onset	duration	sample	trial_type	response_time	stim_file	item_name	serialpos	list	test	answer	experiment	session	subject
0.0	58.543	309486	SESS_START	n/a	n/a	n/a	-999	-999	[0, 0, 0]	n/a	FR1	0	R1130M
58.543	10.0	338756	COUNTDOWN_START	n/a	n/a	n/a	-999	-999	[0, 0, 0]	n/a	FR1	0	R1130M
68.971	3.559	343970	COUNTDOWN_END	n/a	n/a	n/a	-999	-999	[0, 0, 0]	n/a	FR1	0	R1130M
72.53	1.6	345749	PRACTICE_WORD	n/a	n/a	CHEST	1	-1	[0, 0, 0]	n/a	FR1	0	R1130M
74.979	1.6	346974	PRACTICE_WORD	n/a	n/a	IRON	2	-1	[0, 0, 0]	n/a	FR1	0	R1130M
77.364	1.6	348166	PRACTICE_WORD	n/a	n/a	CAMEL	3	-1	[0, 0, 0]	n/a	FR1	0	R1130M
79.897	1.6	349433	PRACTICE_WORD	n/a	n/a	TONGUE	4	-1	[0, 0, 0]	n/a	FR1	0	R1130M
82.381	1.6	350674	PRACTICE_WORD	n/a	n/a	COTTON	5	-1	[0, 0, 0]	n/a	FR1	0	R1130M
84.864	1.6	351916	PRACTICE_WORD	n/a	n/a	BEAM	6	-1	[0, 0, 0]	n/a	FR1	0	R1130M
87.266	1.6	353117	PRACTICE_WORD	n/a	n/a	RHINO	7	-1	[0, 0, 0]	n/a	FR1	0	R1130M
89.683	1.6	354325	PRACTICE_WORD	n/a	n/a	ATTIC	8	-1	[0, 0, 0]	n/a	FR1	0	R1130M
92.283	1.6	355625	PRACTICE_WORD	n/a	n/a	WAGON	9	-1	[0, 0, 0]	n/a	FR1	0	R1130M
94.684	1.6	356826	PRACTICE_WORD	n/a	n/a	RING	10	-1	[0, 0, 0]	n/a	FR1	0	R1130M
97.183	1.6	358075	PRACTICE_WORD	n/a	n/a	FLOOD	11	-1	[0, 0, 0]	n/a	FR1	0	R1130M
99.618	1.6	359292	PRACTICE_WORD	n/a	n/a	WATCH	12	-1	[0, 0, 0]	n/a	FR1	0	R1130M
101.235	0.001	360101	PRACTICE_DISTRACT_START	n/a	n/a	n/a	-999	-1	[0, 0, 0]	n/a	FR1	0	R1130M
101.236	0.016	360101	START	n/a	n/a	n/a	-999	-1	[-999, -999, -999]	n/a	FR1	0	R1130M
101.252	16.436	360109	PROB	16.406	n/a	n/a	-999	-1	[8, 4, 9]	21.0	FR1	0	R1130M
117.688	9.593	368327	PROB	9.593	n/a	n/a	-999	-1	[4, 4, 7]	15.0	FR1	0	R1130M
127.281	0.009	373123	STOP	n/a	n/a	n/a	-999	-1	[-999, -999, -999]	n/a	FR1	0	R1130M
127.29	0.652	373128	PRACTICE_DISTRACT_END	n/a	n/a	n/a	-999	-1	[0, 0, 0]	n/a	FR1	0	R1130M
127.942	30.515	373454	PRACTICE_REC_START	n/a	n/a	n/a	-999	-1	[0, 0, 0]	n/a	FR1	0	R1130M
158.457	181.924	388710	PRACTICE_REC_END	n/a	n/a	n/a	-999	-1	[0, 0, 0]	n/a	FR1	0	R1130M
340.381	0.0	479667	TRIAL	n/a	n/a	n/a	-999	1	[0, 0, 0]	n/a	FR1	0	R1130M
340.381	10.0	479667	COUNTDOWN_START	n/a	n/a	n/a	-999	1	[0, 0, 0]	n/a	FR1	0	R1130M
350.809	0.008	484881	COUNTDOWN_END	n/a	n/a	n/a	-999	1	[0, 0, 0]	n/a	FR1	0	R1130M
350.817	1.6	484885	ORIENT	n/a	n/a	n/a	-999	1	[0, 0, 0]	n/a	FR1	0	R1130M
353.334	1.6	486143	WORD	n/a	wordpools/wordpool_EN.txt	GUARD	1	1	[0, 0, 0]	n/a	FR1	0	R1130M
355.767	1.6	487360	WORD	n/a	wordpools/wordpool_EN.txt	FENCE	2	1	[0, 0, 0]	n/a	FR1	0	R1130M
358.252	1.6	488602	WORD	n/a	wordpools/wordpool_EN.txt	DOLL	3	1	[0, 0, 0]	n/a	FR1	0	R1130M
360.769	1.6	489861	WORD	n/a	wordpools/wordpool_EN.txt	BAT	4	1	[0, 0, 0]	n/a	FR1	0	R1130M
363.353	1.6	491152	WORD	n/a	wordpools/wordpool_EN.txt	LEG	5	1	[0, 0, 0]	n/a	FR1	0	R1130M
365.786	1.6	492369	WORD	n/a	wordpools/wordpool_EN.txt	HORN	6	1	[0, 0, 0]	n/a	FR1	0	R1130M
368.337	1.6	493644	WORD	n/a	wordpools/wordpool_EN.txt	OAR	7	1	[0, 0, 0]	n/a	FR1	0	R1130M
370.837	1.6	494894	WORD	n/a	wordpools/wordpool_EN.txt	FOOT	8	1	[0, 0, 0]	n/a	FR1	0	R1130M
373.354	1.6	496153	WORD	n/a	wordpools/wordpool_EN.txt	BOY	9	1	[0, 0, 0]	n/a	FR1	0	R1130M
375.887	1.6	497419	WORD	n/a	wordpools/wordpool_EN.txt	SOCK	10	1	[0, 0, 0]	n/a	FR1	0	R1130M
378.272	1.6	498612	WORD	n/a	wordpools/wordpool_EN.txt	LOCK	11	1	[0, 0, 0]	n/a	FR1	0	R1130M
380.839	1.6	499895	WORD	n/a	wordpools/wordpool_EN.txt	PEN	12	1	[0, 0, 0]	n/a	FR1	0	R1130M
382.456	0.001	500703	DISTRACT_START	n/a	n/a	n/a	-999	1	[0, 0, 0]	n/a	FR1	0	R1130M
382.457	0.016	500704	START	n/a	n/a	n/a	-999	1	[-999, -999, -999]	n/a	FR1	0	R1130M
382.473	12.069	500712	PROB	12.041	n/a	n/a	-999	1	[9, 4, 7]	20.0	FR1	0	R1130M
394.542	10.692	506746	PROB	10.692	n/a	n/a	-999	1	[1, 7, 2]	10.0	FR1	0	R1130M
405.234	0.01	512092	STOP	n/a	n/a	n/a	-999	1	[-999, -999, -999]	n/a	FR1	0	R1130M
405.244	1.156	512097	DISTRACT_END	n/a	n/a	n/a	-999	1	[0, 0, 0]	n/a	FR1	0	R1130M
406.4	11.134	512675	REC_START	n/a	n/a	n/a	-999	1	[0, 0, 0]	n/a	FR1	0	R1130M
417.534	1.688	518241	REC_WORD	11.134	n/a	GUARD	1	1	[0, 0, 0]	n/a	FR1	0	R1130M
419.222	17.185	519085	REC_WORD	12.822	n/a	FENCE	2	1	[0, 0, 0]	n/a	FR1	0	R1130M
436.407	30.182	527677	REC_END	n/a	n/a	n/a	-999	1	[0, 0, 0]	n/a	FR1	0	R1130M
466.589	10.0	542768	COUNTDOWN_START	n/a	n/a	n/a	-999	2	[0, 0, 0]	n/a	FR1	0	R1130M
466.589	10.428	542768	TRIAL	n/a	n/a	n/a	-999	2	[0, 0, 0]	n/a	FR1	0	R1130M
477.017	0.006	547981	COUNTDOWN_END	n/a	n/a	n/a	-999	2	[0, 0, 0]	n/a	FR1	0	R1130M
477.023	1.6	547984	ORIENT	n/a	n/a	n/a	-999	2	[0, 0, 0]	n/a	FR1	0	R1130M
479.642	1.6	549294	WORD	n/a	wordpools/wordpool_EN.txt	CLOCK	1	2	[0, 0, 0]	n/a	FR1	0	R1130M
482.141	1.6	550543	WORD	n/a	wordpools/wordpool_EN.txt	SPOON	2	2	[0, 0, 0]	n/a	FR1	0	R1130M
484.576	1.6	551761	WORD	n/a	wordpools/wordpool_EN.txt	SWORD	3	2	[0, 0, 0]	n/a	FR1	0	R1130M
487.025	1.6	552985	WORD	n/a	wordpools/wordpool_EN.txt	VAN	4	2	[0, 0, 0]	n/a	FR1	0	R1130M
489.46	1.6	554202	WORD	n/a	wordpools/wordpool_EN.txt	BOOK	5	2	[0, 0, 0]	n/a	FR1	0	R1130M
492.06	1.6	555502	WORD	n/a	wordpools/wordpool_EN.txt	ROOM	6	2	[0, 0, 0]	n/a	FR1	0	R1130M
494.578	1.6	556761	WORD	n/a	wordpools/wordpool_EN.txt	STREET	7	2	[0, 0, 0]	n/a	FR1	0	R1130M
496.961	1.6	557953	WORD	n/a	wordpools/wordpool_EN.txt	BLUSH	8	2	[0, 0, 0]	n/a	FR1	0	R1130M
499.479	1.6	559212	WORD	n/a	wordpools/wordpool_EN.txt	SOUP	9	2	[0, 0, 0]	n/a	FR1	0	R1130M
502.078	1.6	560511	WORD	n/a	wordpools/wordpool_EN.txt	TRUCK	10	2	[0, 0, 0]	n/a	FR1	0	R1130M
504.63	1.6	561787	WORD	n/a	wordpools/wordpool_EN.txt	GOAT	11	2	[0, 0, 0]	n/a	FR1	0	R1130M
507.197	1.6	563070	WORD	n/a	wordpools/wordpool_EN.txt	CART	12	2	[0, 0, 0]	n/a	FR1	0	R1130M
508.814	0.001	563879	DISTRACT_START	n/a	n/a	n/a	-999	2	[0, 0, 0]	n/a	FR1	0	R1130M
508.815	0.016	563879	START	n/a	n/a	n/a	-999	2	[-999, -999, -999]	n/a	FR1	0	R1130M
508.831	11.952	563887	PROB	11.93	n/a	n/a	-999	2	[9, 7, 6]	22.0	FR1	0	R1130M
520.783	8.09	569863	PROB	8.09	n/a	n/a	-999	2	[6, 8, 3]	17.0	FR1	0	R1130M
528.873	0.01	573908	STOP	n/a	n/a	n/a	-999	2	[-999, -999, -999]	n/a	FR1	0	R1130M
528.883	1.068	573913	DISTRACT_END	n/a	n/a	n/a	-999	2	[0, 0, 0]	n/a	FR1	0	R1130M
529.951	3.305	574447	REC_START	n/a	n/a	n/a	-999	2	[0, 0, 0]	n/a	FR1	0	R1130M
533.256	8.746	576099	REC_WORD	3.305	n/a	CLOCK	1	2	[0, 0, 0]	n/a	FR1	0	R1130M
542.002	6.629	580472	REC_WORD	12.051	n/a	SPOON	2	2	[0, 0, 0]	n/a	FR1	0	R1130M
548.631	11.331	583786	REC_WORD	18.68	n/a	STREET	7	2	[0, 0, 0]	n/a	FR1	0	R1130M
559.962	7.112	589451	REC_END	n/a	n/a	n/a	-999	2	[0, 0, 0]	n/a	FR1	0	R1130M
567.074	10.0	593007	COUNTDOWN_START	n/a	n/a	n/a	-999	3	[0, 0, 0]	n/a	FR1	0	R1130M
567.075	10.427	593008	TRIAL	n/a	n/a	n/a	-999	3	[0, 0, 0]	n/a	FR1	0	R1130M
577.502	0.009	598221	COUNTDOWN_END	n/a	n/a	n/a	-999	3	[0, 0, 0]	n/a	FR1	0	R1130M
577.511	1.6	598225	ORIENT	n/a	n/a	n/a	-999	3	[0, 0, 0]	n/a	FR1	0	R1130M
579.927	1.6	599433	WORD	n/a	wordpools/wordpool_EN.txt	POND	1	3	[0, 0, 0]	n/a	FR1	0	R1130M
582.311	1.6	600625	WORD	n/a	wordpools/wordpool_EN.txt	STRAW	2	3	[0, 0, 0]	n/a	FR1	0	R1130M
584.712	1.6	601826	WORD	n/a	wordpools/wordpool_EN.txt	SLUSH	3	3	[0, 0, 0]	n/a	FR1	0	R1130M
587.145	1.6	603042	WORD	n/a	wordpools/wordpool_EN.txt	CAGE	4	3	[0, 0, 0]	n/a	FR1	0	R1130M
589.58	1.6	604260	WORD	n/a	wordpools/wordpool_EN.txt	VASE	5	3	[0, 0, 0]	n/a	FR1	0	R1130M
591.996	1.6	605468	WORD	n/a	wordpools/wordpool_EN.txt	SINK	6	3	[0, 0, 0]	n/a	FR1	0	R1130M
594.414	1.6	606676	WORD	n/a	wordpools/wordpool_EN.txt	JAR	7	3	[0, 0, 0]	n/a	FR1	0	R1130M
596.98	1.6	607959	WORD	n/a	wordpools/wordpool_EN.txt	SEAL	8	3	[0, 0, 0]	n/a	FR1	0	R1130M
599.465	1.6	609202	WORD	n/a	wordpools/wordpool_EN.txt	GEESE	9	3	[0, 0, 0]	n/a	FR1	0	R1130M
601.898	1.6	610418	WORD	n/a	wordpools/wordpool_EN.txt	HAT	10	3	[0, 0, 0]	n/a	FR1	0	R1130M
604.449	1.6	611694	WORD	n/a	wordpools/wordpool_EN.txt	BOX	11	3	[0, 0, 0]	n/a	FR1	0	R1130M
606.982	1.6	612960	WORD	n/a	wordpools/wordpool_EN.txt	PET	12	3	[0, 0, 0]	n/a	FR1	0	R1130M
608.6	0.001	613769	DISTRACT_START	n/a	n/a	n/a	-999	3	[0, 0, 0]	n/a	FR1	0	R1130M
608.601	0.016	613770	START	n/a	n/a	n/a	-999	3	[-999, -999, -999]	n/a	FR1	0	R1130M
608.617	8.985	613778	PROB	8.953	n/a	n/a	-999	3	[8, 1, 4]	13.0	FR1	0	R1130M
617.602	9.051	618270	PROB	9.023	n/a	n/a	-999	3	[3, 5, 5]	13.0	FR1	0	R1130M
626.653	8.685	622795	PROB	8.685	n/a	n/a	-999	3	[2, 4, 5]	11.0	FR1	0	R1130M
635.338	0.017	627137	STOP	n/a	n/a	n/a	-999	3	[-999, -999, -999]	n/a	FR1	0	R1130M
635.355	1.051	627146	DISTRACT_END	n/a	n/a	n/a	-999	3	[0, 0, 0]	n/a	FR1	0	R1130M
636.406	4.076	627671	REC_START	n/a	n/a	n/a	-999	3	[0, 0, 0]	n/a	FR1	0	R1130M
640.482	25.935	629709	REC_WORD	4.076	n/a	POND	1	3	[0, 0, 0]	n/a	FR1	0	R1130M
666.417	7.029	642676	REC_END	n/a	n/a	n/a	-999	3	[0, 0, 0]	n/a	FR1	0	R1130M
673.446	10.0	646190	COUNTDOWN_START	n/a	n/a	n/a	-999	4	[0, 0, 0]	n/a	FR1	0	R1130M
673.446	10.428	646190	TRIAL	n/a	n/a	n/a	-999	4	[0, 0, 0]	n/a	FR1	0	R1130M
683.874	0.006	651404	COUNTDOWN_END	n/a	n/a	n/a	-999	4	[0, 0, 0]	n/a	FR1	0	R1130M
683.88	1.6	651407	ORIENT	n/a	n/a	n/a	-999	4	[0, 0, 0]	n/a	FR1	0	R1130M
686.498	1.6	652716	WORD	n/a	wordpools/wordpool_EN.txt	NEST	1	4	[0, 0, 0]	n/a	FR1	0	R1130M
689.014	1.6	653974	WORD	n/a	wordpools/wordpool_EN.txt	CAKE	2	4	[0, 0, 0]	n/a	FR1	0	R1130M
691.616	1.6	655275	WORD	n/a	wordpools/wordpool_EN.txt	CHEEK	3	4	[0, 0, 0]	n/a	FR1	0	R1130M
694.165	1.6	656549	WORD	n/a	wordpools/wordpool_EN.txt	FACE	4	4	[0, 0, 0]	n/a	FR1	0	R1130M
696.617	1.6	657775	WORD	n/a	wordpools/wordpool_EN.txt	FORK	5	4	[0, 0, 0]	n/a	FR1	0	R1130M
699.0	1.6	658966	WORD	n/a	wordpools/wordpool_EN.txt	CUP	6	4	[0, 0, 0]	n/a	FR1	0	R1130M
701.551	1.6	660242	WORD	n/a	wordpools/wordpool_EN.txt	MOOSE	7	4	[0, 0, 0]	n/a	FR1	0	R1130M
704.034	1.6	661483	WORD	n/a	wordpools/wordpool_EN.txt	AXE	8	4	[0, 0, 0]	n/a	FR1	0	R1130M
706.536	1.6	662734	WORD	n/a	wordpools/wordpool_EN.txt	TOAST	9	4	[0, 0, 0]	n/a	FR1	0	R1130M
709.018	1.6	663975	WORD	n/a	wordpools/wordpool_EN.txt	HEN	10	4	[0, 0, 0]	n/a	FR1	0	R1130M
711.486	1.6	665209	WORD	n/a	wordpools/wordpool_EN.txt	FRUIT	11	4	[0, 0, 0]	n/a	FR1	0	R1130M
713.869	1.6	666401	WORD	n/a	wordpools/wordpool_EN.txt	PALM	12	4	[0, 0, 0]	n/a	FR1	0	R1130M
715.487	0.001	667209	DISTRACT_START	n/a	n/a	n/a	-999	4	[0, 0, 0]	n/a	FR1	0	R1130M
715.488	0.016	667210	START	n/a	n/a	n/a	-999	4	[-999, -999, -999]	n/a	FR1	0	R1130M
715.504	8.384	667218	PROB	8.353	n/a	n/a	-999	4	[5, 1, 8]	14.0	FR1	0	R1130M
723.888	8.419	671410	PROB	8.386	n/a	n/a	-999	4	[4, 7, 2]	13.0	FR1	0	R1130M
732.307	11.614	675619	PROB	11.614	n/a	n/a	-999	4	[2, 6, 5]	13.0	FR1	0	R1130M
743.921	0.004	681426	STOP	n/a	n/a	n/a	-999	4	[-999, -999, -999]	n/a	FR1	0	R1130M
743.925	1.201	681428	DISTRACT_END	n/a	n/a	n/a	-999	4	[0, 0, 0]	n/a	FR1	0	R1130M
745.126	5.982	682028	REC_START	n/a	n/a	n/a	-999	4	[0, 0, 0]	n/a	FR1	0	R1130M
751.108	20.738	685019	REC_WORD	5.982	n/a	CAKE	2	4	[0, 0, 0]	n/a	FR1	0	R1130M
771.846	3.291	695387	REC_WORD	26.72	n/a	LAKE	-999	4	[0, 0, 0]	n/a	FR1	0	R1130M
775.137	42.819	697033	REC_END	n/a	n/a	n/a	-999	4	[0, 0, 0]	n/a	FR1	0	R1130M
817.956	0.0	718441	TRIAL	n/a	n/a	n/a	-999	5	[0, 0, 0]	n/a	FR1	0	R1130M
817.956	10.0	718441	COUNTDOWN_START	n/a	n/a	n/a	-999	5	[0, 0, 0]	n/a	FR1	0	R1130M
828.384	0.009	723655	COUNTDOWN_END	n/a	n/a	n/a	-999	5	[0, 0, 0]	n/a	FR1	0	R1130M
828.393	1.6	723659	ORIENT	n/a	n/a	n/a	-999	5	[0, 0, 0]	n/a	FR1	0	R1130M
830.892	1.6	724909	WORD	n/a	wordpools/wordpool_EN.txt	NOSE	1	5	[0, 0, 0]	n/a	FR1	0	R1130M
833.277	1.6	726101	WORD	n/a	wordpools/wordpool_EN.txt	TAIL	2	5	[0, 0, 0]	n/a	FR1	0	R1130M
835.893	1.6	727409	WORD	n/a	wordpools/wordpool_EN.txt	PIT	3	5	[0, 0, 0]	n/a	FR1	0	R1130M
838.378	1.6	728652	WORD	n/a	wordpools/wordpool_EN.txt	PRINCE	4	5	[0, 0, 0]	n/a	FR1	0	R1130M
840.994	1.6	729959	WORD	n/a	wordpools/wordpool_EN.txt	MOUSE	5	5	[0, 0, 0]	n/a	FR1	0	R1130M
843.462	1.6	731193	WORD	n/a	wordpools/wordpool_EN.txt	SHIELD	6	5	[0, 0, 0]	n/a	FR1	0	R1130M
846.078	1.6	732501	WORD	n/a	wordpools/wordpool_EN.txt	ARM	7	5	[0, 0, 0]	n/a	FR1	0	R1130M
848.463	1.6	733694	WORD	n/a	wordpools/wordpool_EN.txt	TOE	8	5	[0, 0, 0]	n/a	FR1	0	R1130M
850.912	1.6	734918	WORD	n/a	wordpools/wordpool_EN.txt	WALL	9	5	[0, 0, 0]	n/a	FR1	0	R1130M
853.381	1.6	736153	WORD	n/a	wordpools/wordpool_EN.txt	SPEAR	10	5	[0, 0, 0]	n/a	FR1	0	R1130M
855.864	1.6	737394	WORD	n/a	wordpools/wordpool_EN.txt	HOOF	11	5	[0, 0, 0]	n/a	FR1	0	R1130M
858.282	1.6	738603	WORD	n/a	wordpools/wordpool_EN.txt	LAWN	12	5	[0, 0, 0]	n/a	FR1	0	R1130M
859.898	0.0	739411	DISTRACT_START	n/a	n/a	n/a	-999	5	[0, 0, 0]	n/a	FR1	0	R1130M
859.898	0.016	739411	START	n/a	n/a	n/a	-999	5	[-999, -999, -999]	n/a	FR1	0	R1130M
859.914	7.303	739419	PROB	7.279	n/a	n/a	-999	5	[6, 4, 5]	15.0	FR1	0	R1130M
867.217	6.733	743070	PROB	6.711	n/a	n/a	-999	5	[5, 1, 3]	9.0	FR1	0	R1130M
873.95	13.202	746437	PROB	13.202	n/a	n/a	-999	5	[9, 3, 8]	20.0	FR1	0	R1130M
887.152	0.017	753037	STOP	n/a	n/a	n/a	-999	5	[-999, -999, -999]	n/a	FR1	0	R1130M
887.169	1.036	753046	DISTRACT_END	n/a	n/a	n/a	-999	5	[0, 0, 0]	n/a	FR1	0	R1130M
888.205	6.215	753564	REC_START	n/a	n/a	n/a	-999	5	[0, 0, 0]	n/a	FR1	0	R1130M
894.42	2.627	756671	REC_WORD	6.215	n/a	SHIELD	6	5	[0, 0, 0]	n/a	FR1	0	R1130M
897.047	21.169	757984	REC_WORD	8.842	n/a	MOUSE	5	5	[0, 0, 0]	n/a	FR1	0	R1130M
918.216	6.245	768568	REC_END	n/a	n/a	n/a	-999	5	[0, 0, 0]	n/a	FR1	0	R1130M
924.461	10.0	771691	COUNTDOWN_START	n/a	n/a	n/a	-999	6	[0, 0, 0]	n/a	FR1	0	R1130M
924.461	10.428	771691	TRIAL	n/a	n/a	n/a	-999	6	[0, 0, 0]	n/a	FR1	0	R1130M
934.889	0.006	776904	COUNTDOWN_END	n/a	n/a	n/a	-999	6	[0, 0, 0]	n/a	FR1	0	R1130M
934.895	1.6	776907	ORIENT	n/a	n/a	n/a	-999	6	[0, 0, 0]	n/a	FR1	0	R1130M
937.263	1.6	778091	WORD	n/a	wordpools/wordpool_EN.txt	TANK	1	6	[0, 0, 0]	n/a	FR1	0	R1130M
939.664	1.6	779292	WORD	n/a	wordpools/wordpool_EN.txt	HOSE	2	6	[0, 0, 0]	n/a	FR1	0	R1130M
942.248	1.6	780584	WORD	n/a	wordpools/wordpool_EN.txt	BOMB	3	6	[0, 0, 0]	n/a	FR1	0	R1130M
944.732	1.6	781825	WORD	n/a	wordpools/wordpool_EN.txt	COIN	4	6	[0, 0, 0]	n/a	FR1	0	R1130M
947.164	1.6	783041	WORD	n/a	wordpools/wordpool_EN.txt	PLANE	5	6	[0, 0, 0]	n/a	FR1	0	R1130M
949.566	1.6	784242	WORD	n/a	wordpools/wordpool_EN.txt	BRICK	6	6	[0, 0, 0]	n/a	FR1	0	R1130M
952.015	1.6	785467	WORD	n/a	wordpools/wordpool_EN.txt	PLATE	7	6	[0, 0, 0]	n/a	FR1	0	R1130M
954.384	1.6	786651	WORD	n/a	wordpools/wordpool_EN.txt	SQUARE	8	6	[0, 0, 0]	n/a	FR1	0	R1130M
956.834	1.6	787876	WORD	n/a	wordpools/wordpool_EN.txt	MOON	9	6	[0, 0, 0]	n/a	FR1	0	R1130M
959.268	1.6	789093	WORD	n/a	wordpools/wordpool_EN.txt	SHEET	10	6	[0, 0, 0]	n/a	FR1	0	R1130M
961.768	1.6	790343	WORD	n/a	wordpools/wordpool_EN.txt	ARK	11	6	[0, 0, 0]	n/a	FR1	0	R1130M
964.202	1.6	791560	WORD	n/a	wordpools/wordpool_EN.txt	TRAIN	12	6	[0, 0, 0]	n/a	FR1	0	R1130M
965.819	0.001	792368	DISTRACT_START	n/a	n/a	n/a	-999	6	[0, 0, 0]	n/a	FR1	0	R1130M
965.82	0.016	792369	START	n/a	n/a	n/a	-999	6	[-999, -999, -999]	n/a	FR1	0	R1130M
965.836	6.317	792377	PROB	6.293	n/a	n/a	-999	6	[5, 4, 1]	10.0	FR1	0	R1130M
972.153	6.468	795535	PROB	6.433	n/a	n/a	-999	6	[6, 4, 7]	17.0	FR1	0	R1130M
978.621	9.828	798769	PROB	9.828	n/a	n/a	-999	6	[9, 3, 6]	18.0	FR1	0	R1130M
988.449	0.008	803683	STOP	n/a	n/a	n/a	-999	6	[-999, -999, -999]	n/a	FR1	0	R1130M
988.457	1.084	803687	DISTRACT_END	n/a	n/a	n/a	-999	6	[0, 0, 0]	n/a	FR1	0	R1130M
989.541	2.109	804229	REC_START	n/a	n/a	n/a	-999	6	[0, 0, 0]	n/a	FR1	0	R1130M
991.65	1.871	805283	REC_WORD	2.109	n/a	BOMB	3	6	[0, 0, 0]	n/a	FR1	0	R1130M
993.521	2.695	806219	REC_WORD	3.98	n/a	TANK	1	6	[0, 0, 0]	n/a	FR1	0	R1130M
996.216	11.413	807566	REC_WORD	6.675	n/a	PLANE	5	6	[0, 0, 0]	n/a	FR1	0	R1130M
1007.629	5.944	813272	REC_WORD	18.088	n/a	TRAIN	12	6	[0, 0, 0]	n/a	FR1	0	R1130M
1013.573	1.811	816244	REC_WORD_VV	24.032	n/a	<>	-999	6	[0, 0, 0]	n/a	FR1	0	R1130M
1015.384	1.545	817149	REC_WORD_VV	25.843	n/a	<>	-999	6	[0, 0, 0]	n/a	FR1	0	R1130M
1016.929	1.804	817922	REC_WORD_VV	27.388	n/a	<>	-999	6	[0, 0, 0]	n/a	FR1	0	R1130M
1018.733	0.819	818824	REC_WORD_VV	29.192	n/a	<>	-999	6	[0, 0, 0]	n/a	FR1	0	R1130M
1019.552	25.149	819233	REC_END	n/a	n/a	n/a	-999	6	[0, 0, 0]	n/a	FR1	0	R1130M
1044.701	10.0	831807	COUNTDOWN_START	n/a	n/a	n/a	-999	7	[0, 0, 0]	n/a	FR1	0	R1130M
1044.701	10.428	831807	TRIAL	n/a	n/a	n/a	-999	7	[0, 0, 0]	n/a	FR1	0	R1130M
1055.129	0.006	837021	COUNTDOWN_END	n/a	n/a	n/a	-999	7	[0, 0, 0]	n/a	FR1	0	R1130M
1055.135	1.6	837024	ORIENT	n/a	n/a	n/a	-999	7	[0, 0, 0]	n/a	FR1	0	R1130M
1057.687	1.6	838300	WORD	n/a	wordpools/wordpool_EN.txt	ROPE	1	7	[0, 0, 0]	n/a	FR1	0	R1130M
1060.221	1.6	839567	WORD	n/a	wordpools/wordpool_EN.txt	DUCK	2	7	[0, 0, 0]	n/a	FR1	0	R1130M
1062.654	1.6	840783	WORD	n/a	wordpools/wordpool_EN.txt	SNAKE	3	7	[0, 0, 0]	n/a	FR1	0	R1130M
1065.205	1.6	842059	WORD	n/a	wordpools/wordpool_EN.txt	TENT	4	7	[0, 0, 0]	n/a	FR1	0	R1130M
1067.605	1.6	843259	WORD	n/a	wordpools/wordpool_EN.txt	MAZE	5	7	[0, 0, 0]	n/a	FR1	0	R1130M
1069.988	1.6	844450	WORD	n/a	wordpools/wordpool_EN.txt	HAWK	6	7	[0, 0, 0]	n/a	FR1	0	R1130M
1072.356	1.6	845634	WORD	n/a	wordpools/wordpool_EN.txt	WEED	7	7	[0, 0, 0]	n/a	FR1	0	R1130M
1074.956	1.6	846934	WORD	n/a	wordpools/wordpool_EN.txt	OWL	8	7	[0, 0, 0]	n/a	FR1	0	R1130M
1077.407	1.6	848159	WORD	n/a	wordpools/wordpool_EN.txt	DEER	9	7	[0, 0, 0]	n/a	FR1	0	R1130M
1079.791	1.6	849351	WORD	n/a	wordpools/wordpool_EN.txt	BROOM	10	7	[0, 0, 0]	n/a	FR1	0	R1130M
1082.325	1.6	850618	WORD	n/a	wordpools/wordpool_EN.txt	ROAD	11	7	[0, 0, 0]	n/a	FR1	0	R1130M
1084.792	1.6	851852	WORD	n/a	wordpools/wordpool_EN.txt	DOCK	12	7	[0, 0, 0]	n/a	FR1	0	R1130M
1086.409	0.001	852660	DISTRACT_START	n/a	n/a	n/a	-999	7	[0, 0, 0]	n/a	FR1	0	R1130M
1086.41	0.016	852660	START	n/a	n/a	n/a	-999	7	[-999, -999, -999]	n/a	FR1	0	R1130M
1086.426	7.101	852668	PROB	7.071	n/a	n/a	-999	7	[6, 1, 3]	10.0	FR1	0	R1130M
1093.527	5.968	856219	PROB	5.938	n/a	n/a	-999	7	[3, 1, 7]	11.0	FR1	0	R1130M
1099.495	7.891	859203	PROB	7.891	n/a	n/a	-999	7	[3, 8, 3]	14.0	FR1	0	R1130M
1107.386	0.01	863148	STOP	n/a	n/a	n/a	-999	7	[-999, -999, -999]	n/a	FR1	0	R1130M
1107.396	1.218	863153	DISTRACT_END	n/a	n/a	n/a	-999	7	[0, 0, 0]	n/a	FR1	0	R1130M
1108.614	2.099	863762	REC_START	n/a	n/a	n/a	-999	7	[0, 0, 0]	n/a	FR1	0	R1130M
1110.713	1.927	864811	REC_WORD	2.099	n/a	ROPE	1	7	[0, 0, 0]	n/a	FR1	0	R1130M
1112.64	1.244	865775	REC_WORD	4.026	n/a	DUCK	2	7	[0, 0, 0]	n/a	FR1	0	R1130M
1113.884	1.336	866397	REC_WORD	5.27	n/a	OWL	8	7	[0, 0, 0]	n/a	FR1	0	R1130M
1115.22	3.63	867065	REC_WORD	6.606	n/a	SNAKE	3	7	[0, 0, 0]	n/a	FR1	0	R1130M
1118.85	19.775	868880	REC_WORD	10.236	n/a	DEER	9	7	[0, 0, 0]	n/a	FR1	0	R1130M
1138.625	5.912	878766	REC_END	n/a	n/a	n/a	-999	7	[0, 0, 0]	n/a	FR1	0	R1130M
1144.537	0.0	881722	TRIAL	n/a	n/a	n/a	-999	8	[0, 0, 0]	n/a	FR1	0	R1130M
1144.537	10.0	881722	COUNTDOWN_START	n/a	n/a	n/a	-999	8	[0, 0, 0]	n/a	FR1	0	R1130M
1154.965	0.006	886936	COUNTDOWN_END	n/a	n/a	n/a	-999	8	[0, 0, 0]	n/a	FR1	0	R1130M
1154.971	1.6	886939	ORIENT	n/a	n/a	n/a	-999	8	[0, 0, 0]	n/a	FR1	0	R1130M
1157.389	1.6	888148	WORD	n/a	wordpools/wordpool_EN.txt	GLOVE	1	8	[0, 0, 0]	n/a	FR1	0	R1130M
1159.79	1.6	889348	WORD	n/a	wordpools/wordpool_EN.txt	PIPE	2	8	[0, 0, 0]	n/a	FR1	0	R1130M
1162.307	1.6	890607	WORD	n/a	wordpools/wordpool_EN.txt	FAN	3	8	[0, 0, 0]	n/a	FR1	0	R1130M
1164.708	1.6	891807	WORD	n/a	wordpools/wordpool_EN.txt	PURSE	4	8	[0, 0, 0]	n/a	FR1	0	R1130M
1167.14	1.6	893023	WORD	n/a	wordpools/wordpool_EN.txt	BAND	5	8	[0, 0, 0]	n/a	FR1	0	R1130M
1169.625	1.6	894266	WORD	n/a	wordpools/wordpool_EN.txt	PIN	6	8	[0, 0, 0]	n/a	FR1	0	R1130M
1172.209	1.6	895558	WORD	n/a	wordpools/wordpool_EN.txt	WAND	7	8	[0, 0, 0]	n/a	FR1	0	R1130M
1174.826	1.6	896866	WORD	n/a	wordpools/wordpool_EN.txt	TOOL	8	8	[0, 0, 0]	n/a	FR1	0	R1130M
1177.427	1.6	898166	WORD	n/a	wordpools/wordpool_EN.txt	THUMB	9	8	[0, 0, 0]	n/a	FR1	0	R1130M
1180.026	1.6	899466	WORD	n/a	wordpools/wordpool_EN.txt	YARD	10	8	[0, 0, 0]	n/a	FR1	0	R1130M
1182.511	1.6	900708	WORD	n/a	wordpools/wordpool_EN.txt	VEST	11	8	[0, 0, 0]	n/a	FR1	0	R1130M
1185.11	1.6	902008	WORD	n/a	wordpools/wordpool_EN.txt	DESK	12	8	[0, 0, 0]	n/a	FR1	0	R1130M
1186.712	0.001	902809	DISTRACT_START	n/a	n/a	n/a	-999	8	[0, 0, 0]	n/a	FR1	0	R1130M
1186.713	0.015	902809	START	n/a	n/a	n/a	-999	8	[-999, -999, -999]	n/a	FR1	0	R1130M
1186.728	7.451	902817	PROB	7.424	n/a	n/a	-999	8	[6, 4, 8]	18.0	FR1	0	R1130M
1194.179	7.951	906542	PROB	7.918	n/a	n/a	-999	8	[6, 7, 2]	15.0	FR1	0	R1130M
1202.13	6.447	910517	PROB	6.447	n/a	n/a	-999	8	[7, 3, 8]	18.0	FR1	0	R1130M
1208.577	0.005	913741	STOP	n/a	n/a	n/a	-999	8	[-999, -999, -999]	n/a	FR1	0	R1130M
1208.582	1.069	913743	DISTRACT_END	n/a	n/a	n/a	-999	8	[0, 0, 0]	n/a	FR1	0	R1130M
1209.651	2.132	914277	REC_START	n/a	n/a	n/a	-999	8	[0, 0, 0]	n/a	FR1	0	R1130M
1211.783	3.293	915343	REC_WORD_VV	2.132	n/a	<>	-999	8	[0, 0, 0]	n/a	FR1	0	R1130M
1215.076	24.586	916990	REC_WORD	5.425	n/a	TENT	-999	8	[0, 0, 0]	n/a	FR1	0	R1130M
1239.662	33.933	929282	REC_END	n/a	n/a	n/a	-999	8	[0, 0, 0]	n/a	FR1	0	R1130M
1273.595	10.0	946248	COUNTDOWN_START	n/a	n/a	n/a	-999	9	[0, 0, 0]	n/a	FR1	0	R1130M
1273.596	10.427	946248	TRIAL	n/a	n/a	n/a	-999	9	[0, 0, 0]	n/a	FR1	0	R1130M
1284.023	0.007	951461	COUNTDOWN_END	n/a	n/a	n/a	-999	9	[0, 0, 0]	n/a	FR1	0	R1130M
1284.03	1.6	951465	ORIENT	n/a	n/a	n/a	-999	9	[0, 0, 0]	n/a	FR1	0	R1130M
1286.464	1.6	952682	WORD	n/a	wordpools/wordpool_EN.txt	POLE	1	9	[0, 0, 0]	n/a	FR1	0	R1130M
1289.031	1.6	953965	WORD	n/a	wordpools/wordpool_EN.txt	HORSE	2	9	[0, 0, 0]	n/a	FR1	0	R1130M
1291.582	1.6	955241	WORD	n/a	wordpools/wordpool_EN.txt	BALL	3	9	[0, 0, 0]	n/a	FR1	0	R1130M
1294.015	1.6	956457	WORD	n/a	wordpools/wordpool_EN.txt	APE	4	9	[0, 0, 0]	n/a	FR1	0	R1130M
1296.616	1.6	957758	WORD	n/a	wordpools/wordpool_EN.txt	CORD	5	9	[0, 0, 0]	n/a	FR1	0	R1130M
1299.099	1.6	958999	WORD	n/a	wordpools/wordpool_EN.txt	MAP	6	9	[0, 0, 0]	n/a	FR1	0	R1130M
1301.601	1.6	960250	WORD	n/a	wordpools/wordpool_EN.txt	MAIL	7	9	[0, 0, 0]	n/a	FR1	0	R1130M
1304.084	1.6	961491	WORD	n/a	wordpools/wordpool_EN.txt	TOAD	8	9	[0, 0, 0]	n/a	FR1	0	R1130M
1306.652	1.6	962775	WORD	n/a	wordpools/wordpool_EN.txt	TEETH	9	9	[0, 0, 0]	n/a	FR1	0	R1130M
1309.269	1.6	964084	WORD	n/a	wordpools/wordpool_EN.txt	BEAR	10	9	[0, 0, 0]	n/a	FR1	0	R1130M
1311.719	1.6	965309	WORD	n/a	wordpools/wordpool_EN.txt	CAT	11	9	[0, 0, 0]	n/a	FR1	0	R1130M
1314.169	1.6	966534	WORD	n/a	wordpools/wordpool_EN.txt	JUDGE	12	9	[0, 0, 0]	n/a	FR1	0	R1130M
1315.787	0.001	967342	DISTRACT_START	n/a	n/a	n/a	-999	9	[0, 0, 0]	n/a	FR1	0	R1130M
1315.788	0.015	967343	START	n/a	n/a	n/a	-999	9	[-999, -999, -999]	n/a	FR1	0	R1130M
1315.803	8.485	967350	PROB	8.463	n/a	n/a	-999	9	[2, 6, 4]	12.0	FR1	0	R1130M
1324.288	6.701	971593	PROB	6.672	n/a	n/a	-999	9	[5, 6, 6]	17.0	FR1	0	R1130M
1330.989	9.02	974943	PROB	9.02	n/a	n/a	-999	9	[6, 3, 4]	13.0	FR1	0	R1130M
1340.009	0.015	979453	STOP	n/a	n/a	n/a	-999	9	[-999, -999, -999]	n/a	FR1	0	R1130M
1340.024	1.169	979460	DISTRACT_END	n/a	n/a	n/a	-999	9	[0, 0, 0]	n/a	FR1	0	R1130M
1341.193	1.881	980045	REC_START	n/a	n/a	n/a	-999	9	[0, 0, 0]	n/a	FR1	0	R1130M
1343.074	2.598	980985	REC_WORD	1.881	n/a	CAT	11	9	[0, 0, 0]	n/a	FR1	0	R1130M
1345.672	4.272	982284	REC_WORD	4.479	n/a	POLE	1	9	[0, 0, 0]	n/a	FR1	0	R1130M
1349.944	21.26	984420	REC_WORD	8.751	n/a	HORSE	2	9	[0, 0, 0]	n/a	FR1	0	R1130M
1371.204	11.928	995049	REC_END	n/a	n/a	n/a	-999	9	[0, 0, 0]	n/a	FR1	0	R1130M
1383.132	0.0	1001013	TRIAL	n/a	n/a	n/a	-999	10	[0, 0, 0]	n/a	FR1	0	R1130M
1383.132	10.0	1001013	COUNTDOWN_START	n/a	n/a	n/a	-999	10	[0, 0, 0]	n/a	FR1	0	R1130M
1393.56	0.008	1006227	COUNTDOWN_END	n/a	n/a	n/a	-999	10	[0, 0, 0]	n/a	FR1	0	R1130M
1393.568	1.6	1006231	ORIENT	n/a	n/a	n/a	-999	10	[0, 0, 0]	n/a	FR1	0	R1130M
1396.001	1.6	1007447	WORD	n/a	wordpools/wordpool_EN.txt	SLEEVE	1	10	[0, 0, 0]	n/a	FR1	0	R1130M
1398.586	1.6	1008740	WORD	n/a	wordpools/wordpool_EN.txt	DITCH	2	10	[0, 0, 0]	n/a	FR1	0	R1130M
1401.119	1.6	1010006	WORD	n/a	wordpools/wordpool_EN.txt	VINE	3	10	[0, 0, 0]	n/a	FR1	0	R1130M
1403.67	1.6	1011281	WORD	n/a	wordpools/wordpool_EN.txt	BUSH	4	10	[0, 0, 0]	n/a	FR1	0	R1130M
1406.087	1.6	1012490	WORD	n/a	wordpools/wordpool_EN.txt	SNAIL	5	10	[0, 0, 0]	n/a	FR1	0	R1130M
1408.588	1.6	1013740	WORD	n/a	wordpools/wordpool_EN.txt	WHEEL	6	10	[0, 0, 0]	n/a	FR1	0	R1130M
1410.988	1.6	1014940	WORD	n/a	wordpools/wordpool_EN.txt	BIRD	7	10	[0, 0, 0]	n/a	FR1	0	R1130M
1413.372	1.6	1016132	WORD	n/a	wordpools/wordpool_EN.txt	EAR	8	10	[0, 0, 0]	n/a	FR1	0	R1130M
1415.756	1.6	1017324	WORD	n/a	wordpools/wordpool_EN.txt	SWAMP	9	10	[0, 0, 0]	n/a	FR1	0	R1130M
1418.156	1.6	1018524	WORD	n/a	wordpools/wordpool_EN.txt	HOLE	10	10	[0, 0, 0]	n/a	FR1	0	R1130M
1420.657	1.6	1019774	WORD	n/a	wordpools/wordpool_EN.txt	EEL	11	10	[0, 0, 0]	n/a	FR1	0	R1130M
1423.09	1.6	1020991	WORD	n/a	wordpools/wordpool_EN.txt	CRANE	12	10	[0, 0, 0]	n/a	FR1	0	R1130M
1424.691	0.001	1021791	DISTRACT_START	n/a	n/a	n/a	-999	10	[0, 0, 0]	n/a	FR1	0	R1130M
1424.692	0.016	1021792	START	n/a	n/a	n/a	-999	10	[-999, -999, -999]	n/a	FR1	0	R1130M
1424.708	9.552	1021800	PROB	9.526	n/a	n/a	-999	10	[8, 2, 2]	12.0	FR1	0	R1130M
1434.26	22.414	1026576	PROB	22.414	n/a	n/a	-999	10	[2, 9, 5]	16.0	FR1	0	R1130M
1456.674	0.007	1037782	STOP	n/a	n/a	n/a	-999	10	[-999, -999, -999]	n/a	FR1	0	R1130M
1456.681	1.2	1037785	DISTRACT_END	n/a	n/a	n/a	-999	10	[0, 0, 0]	n/a	FR1	0	R1130M
1457.881	17.293	1038385	REC_START	n/a	n/a	n/a	-999	10	[0, 0, 0]	n/a	FR1	0	R1130M
1475.174	12.718	1047031	REC_WORD	17.293	n/a	BIRD	7	10	[0, 0, 0]	n/a	FR1	0	R1130M
1487.892	10.279	1053390	REC_END	n/a	n/a	n/a	-999	10	[0, 0, 0]	n/a	FR1	0	R1130M
1498.171	0.0	1058529	TRIAL	n/a	n/a	n/a	-999	11	[0, 0, 0]	n/a	FR1	0	R1130M
1498.171	10.0	1058529	COUNTDOWN_START	n/a	n/a	n/a	-999	11	[0, 0, 0]	n/a	FR1	0	R1130M
1508.599	0.008	1063743	COUNTDOWN_END	n/a	n/a	n/a	-999	11	[0, 0, 0]	n/a	FR1	0	R1130M
1508.607	1.6	1063747	ORIENT	n/a	n/a	n/a	-999	11	[0, 0, 0]	n/a	FR1	0	R1130M
1511.208	1.6	1065047	WORD	n/a	wordpools/wordpool_EN.txt	FORT	1	11	[0, 0, 0]	n/a	FR1	0	R1130M
1513.792	1.6	1066339	WORD	n/a	wordpools/wordpool_EN.txt	ZOO	2	11	[0, 0, 0]	n/a	FR1	0	R1130M
1516.376	1.6	1067631	WORD	n/a	wordpools/wordpool_EN.txt	SHARK	3	11	[0, 0, 0]	n/a	FR1	0	R1130M
1518.793	1.6	1068840	WORD	n/a	wordpools/wordpool_EN.txt	ROCK	4	11	[0, 0, 0]	n/a	FR1	0	R1130M
1521.31	1.6	1070098	WORD	n/a	wordpools/wordpool_EN.txt	SAIL	5	11	[0, 0, 0]	n/a	FR1	0	R1130M
1523.876	1.6	1071381	WORD	n/a	wordpools/wordpool_EN.txt	BEACH	6	11	[0, 0, 0]	n/a	FR1	0	R1130M
1526.461	1.6	1072673	WORD	n/a	wordpools/wordpool_EN.txt	FLAG	7	11	[0, 0, 0]	n/a	FR1	0	R1130M
1529.027	1.6	1073956	WORD	n/a	wordpools/wordpool_EN.txt	FUR	8	11	[0, 0, 0]	n/a	FR1	0	R1130M
1531.529	1.6	1075207	WORD	n/a	wordpools/wordpool_EN.txt	DOG	9	11	[0, 0, 0]	n/a	FR1	0	R1130M
1534.111	1.6	1076498	WORD	n/a	wordpools/wordpool_EN.txt	FLEA	10	11	[0, 0, 0]	n/a	FR1	0	R1130M
1536.663	1.6	1077774	WORD	n/a	wordpools/wordpool_EN.txt	JAIL	11	11	[0, 0, 0]	n/a	FR1	0	R1130M
1539.062	1.6	1078974	WORD	n/a	wordpools/wordpool_EN.txt	TRASH	12	11	[0, 0, 0]	n/a	FR1	0	R1130M
1540.663	0.001	1079774	DISTRACT_START	n/a	n/a	n/a	-999	11	[0, 0, 0]	n/a	FR1	0	R1130M
1540.664	0.016	1079775	START	n/a	n/a	n/a	-999	11	[-999, -999, -999]	n/a	FR1	0	R1130M
1540.68	5.768	1079783	PROB	5.746	n/a	n/a	-999	11	[2, 2, 7]	11.0	FR1	0	R1130M
1546.448	7.902	1082666	PROB	7.874	n/a	n/a	-999	11	[5, 9, 1]	15.0	FR1	0	R1130M
1554.35	6.86	1086617	PROB	6.86	n/a	n/a	-999	11	[8, 7, 2]	17.0	FR1	0	R1130M
1561.21	0.008	1090047	STOP	n/a	n/a	n/a	-999	11	[-999, -999, -999]	n/a	FR1	0	R1130M
1561.218	1.151	1090051	DISTRACT_END	n/a	n/a	n/a	-999	11	[0, 0, 0]	n/a	FR1	0	R1130M
1562.369	1.688	1090626	REC_START	n/a	n/a	n/a	-999	11	[0, 0, 0]	n/a	FR1	0	R1130M
1564.057	1.963	1091470	REC_WORD	1.688	n/a	SHARK	3	11	[0, 0, 0]	n/a	FR1	0	R1130M
1566.02	5.7	1092452	REC_WORD	3.651	n/a	BEACH	6	11	[0, 0, 0]	n/a	FR1	0	R1130M
1571.72	1.531	1095302	REC_WORD	9.351	n/a	DOG	9	11	[0, 0, 0]	n/a	FR1	0	R1130M
1573.251	19.129	1096067	REC_WORD_VV	10.882	n/a	<>	-999	11	[0, 0, 0]	n/a	FR1	0	R1130M
1592.38	15.629	1105631	REC_END	n/a	n/a	n/a	-999	11	[0, 0, 0]	n/a	FR1	0	R1130M
1608.009	0.0	1113445	TRIAL	n/a	n/a	n/a	-999	12	[0, 0, 0]	n/a	FR1	0	R1130M
1608.009	10.0	1113445	COUNTDOWN_START	n/a	n/a	n/a	-999	12	[0, 0, 0]	n/a	FR1	0	R1130M
1618.437	0.008	1118659	COUNTDOWN_END	n/a	n/a	n/a	-999	12	[0, 0, 0]	n/a	FR1	0	R1130M
1618.445	1.6	1118663	ORIENT	n/a	n/a	n/a	-999	12	[0, 0, 0]	n/a	FR1	0	R1130M
1620.962	1.6	1119921	WORD	n/a	wordpools/wordpool_EN.txt	MOUTH	1	12	[0, 0, 0]	n/a	FR1	0	R1130M
1623.43	1.6	1121155	WORD	n/a	wordpools/wordpool_EN.txt	ROSE	2	12	[0, 0, 0]	n/a	FR1	0	R1130M
1626.029	1.6	1122455	WORD	n/a	wordpools/wordpool_EN.txt	FLOOR	3	12	[0, 0, 0]	n/a	FR1	0	R1130M
1628.597	1.6	1123739	WORD	n/a	wordpools/wordpool_EN.txt	PARK	4	12	[0, 0, 0]	n/a	FR1	0	R1130M
1631.064	1.6	1124972	WORD	n/a	wordpools/wordpool_EN.txt	SHOE	5	12	[0, 0, 0]	n/a	FR1	0	R1130M
1633.498	1.6	1126189	WORD	n/a	wordpools/wordpool_EN.txt	BOOT	6	12	[0, 0, 0]	n/a	FR1	0	R1130M
1635.915	1.6	1127397	WORD	n/a	wordpools/wordpool_EN.txt	CLOWN	7	12	[0, 0, 0]	n/a	FR1	0	R1130M
1638.466	1.6	1128673	WORD	n/a	wordpools/wordpool_EN.txt	SUIT	8	12	[0, 0, 0]	n/a	FR1	0	R1130M
1640.949	1.6	1129914	WORD	n/a	wordpools/wordpool_EN.txt	CAPE	9	12	[0, 0, 0]	n/a	FR1	0	R1130M
1643.5	1.6	1131190	WORD	n/a	wordpools/wordpool_EN.txt	JUICE	10	12	[0, 0, 0]	n/a	FR1	0	R1130M
1646.116	1.6	1132498	WORD	n/a	wordpools/wordpool_EN.txt	WORLD	11	12	[0, 0, 0]	n/a	FR1	0	R1130M
1648.735	1.6	1133807	WORD	n/a	wordpools/wordpool_EN.txt	BAG	12	12	[0, 0, 0]	n/a	FR1	0	R1130M
1650.352	0.001	1134615	DISTRACT_START	n/a	n/a	n/a	-999	12	[0, 0, 0]	n/a	FR1	0	R1130M
1650.353	0.015	1134616	START	n/a	n/a	n/a	-999	12	[-999, -999, -999]	n/a	FR1	0	R1130M
1650.368	8.269	1134623	PROB	8.233	n/a	n/a	-999	12	[8, 1, 7]	16.0	FR1	0	R1130M
1658.637	8.034	1138758	PROB	8.005	n/a	n/a	-999	12	[8, 2, 6]	16.0	FR1	0	R1130M
1666.671	8.635	1142775	PROB	8.635	n/a	n/a	-999	12	[3, 8, 2]	13.0	FR1	0	R1130M
1675.306	0.017	1147092	STOP	n/a	n/a	n/a	-999	12	[-999, -999, -999]	n/a	FR1	0	R1130M
1675.323	1.168	1147100	DISTRACT_END	n/a	n/a	n/a	-999	12	[0, 0, 0]	n/a	FR1	0	R1130M
1676.491	3.015	1147684	REC_START	n/a	n/a	n/a	-999	12	[0, 0, 0]	n/a	FR1	0	R1130M
1679.506	2.975	1149192	REC_WORD	3.015	n/a	CLOWN	7	12	[0, 0, 0]	n/a	FR1	0	R1130M
1682.481	2.593	1150679	REC_WORD	5.99	n/a	PANTS	-999	12	[0, 0, 0]	n/a	FR1	0	R1130M
1685.074	21.428	1151975	REC_WORD	8.583	n/a	SUIT	8	12	[0, 0, 0]	n/a	FR1	0	R1130M
1706.502	511.926	1162689	REC_END	n/a	n/a	n/a	-999	12	[0, 0, 0]	n/a	FR1	0	R1130M
2218.428	0.0	1418637	TRIAL	n/a	n/a	n/a	-999	13	[0, 0, 0]	n/a	FR1	0	R1130M
2218.428	10.0	1418637	COUNTDOWN_START	n/a	n/a	n/a	-999	13	[0, 0, 0]	n/a	FR1	0	R1130M
2228.856	0.007	1423851	COUNTDOWN_END	n/a	n/a	n/a	-999	13	[0, 0, 0]	n/a	FR1	0	R1130M
2228.863	1.6	1423855	ORIENT	n/a	n/a	n/a	-999	13	[0, 0, 0]	n/a	FR1	0	R1130M
2231.247	1.6	1425046	WORD	n/a	wordpools/wordpool_EN.txt	WORM	1	13	[0, 0, 0]	n/a	FR1	0	R1130M
2233.798	1.6	1426322	WORD	n/a	wordpools/wordpool_EN.txt	EGG	2	13	[0, 0, 0]	n/a	FR1	0	R1130M
2236.215	1.6	1427530	WORD	n/a	wordpools/wordpool_EN.txt	HOOK	3	13	[0, 0, 0]	n/a	FR1	0	R1130M
2238.682	1.6	1428764	WORD	n/a	wordpools/wordpool_EN.txt	WING	4	13	[0, 0, 0]	n/a	FR1	0	R1130M
2241.266	1.6	1430056	WORD	n/a	wordpools/wordpool_EN.txt	FISH	5	13	[0, 0, 0]	n/a	FR1	0	R1130M
2243.833	1.6	1431339	WORD	n/a	wordpools/wordpool_EN.txt	STORM	6	13	[0, 0, 0]	n/a	FR1	0	R1130M
2246.233	1.6	1432539	WORD	n/a	wordpools/wordpool_EN.txt	SEA	7	13	[0, 0, 0]	n/a	FR1	0	R1130M
2248.801	1.6	1433823	WORD	n/a	wordpools/wordpool_EN.txt	WEB	8	13	[0, 0, 0]	n/a	FR1	0	R1130M
2251.218	1.6	1435031	WORD	n/a	wordpools/wordpool_EN.txt	SHRIMP	9	13	[0, 0, 0]	n/a	FR1	0	R1130M
2253.668	1.6	1436256	WORD	n/a	wordpools/wordpool_EN.txt	SHELL	10	13	[0, 0, 0]	n/a	FR1	0	R1130M
2256.068	1.6	1437456	WORD	n/a	wordpools/wordpool_EN.txt	CUBE	11	13	[0, 0, 0]	n/a	FR1	0	R1130M
2258.469	1.6	1438657	WORD	n/a	wordpools/wordpool_EN.txt	BOAT	12	13	[0, 0, 0]	n/a	FR1	0	R1130M
2260.085	0.001	1439465	DISTRACT_START	n/a	n/a	n/a	-999	13	[0, 0, 0]	n/a	FR1	0	R1130M
2260.086	0.016	1439465	START	n/a	n/a	n/a	-999	13	[-999, -999, -999]	n/a	FR1	0	R1130M
2260.102	11.002	1439473	PROB	10.97	n/a	n/a	-999	13	[5, 2, 8]	15.0	FR1	0	R1130M
2271.104	4.568	1444974	PROB	4.545	n/a	n/a	-999	13	[2, 5, 2]	9.0	FR1	0	R1130M
2275.672	15.009	1447258	PROB	15.009	n/a	n/a	-999	13	[1, 3, 2]	6.0	FR1	0	R1130M
2290.681	0.011	1454762	STOP	n/a	n/a	n/a	-999	13	[-999, -999, -999]	n/a	FR1	0	R1130M
2290.692	1.151	1454767	DISTRACT_END	n/a	n/a	n/a	-999	13	[0, 0, 0]	n/a	FR1	0	R1130M
2291.843	2.97	1455343	REC_START	n/a	n/a	n/a	-999	13	[0, 0, 0]	n/a	FR1	0	R1130M
2294.813	1.54	1456828	REC_WORD	2.97	n/a	WORM	1	13	[0, 0, 0]	n/a	FR1	0	R1130M
2296.353	2.103	1457598	REC_WORD	4.51	n/a	EGG	2	13	[0, 0, 0]	n/a	FR1	0	R1130M
2298.456	2.499	1458649	REC_WORD	6.613	n/a	HOOK	3	13	[0, 0, 0]	n/a	FR1	0	R1130M
2300.955	6.399	1459899	REC_WORD	9.112	n/a	SHRIMP	9	13	[0, 0, 0]	n/a	FR1	0	R1130M
2307.354	7.355	1463098	REC_WORD	15.511	n/a	BOAT	12	13	[0, 0, 0]	n/a	FR1	0	R1130M
2314.709	0.365	1466775	REC_WORD	22.866	n/a	I THINK	-999	13	[0, 0, 0]	n/a	FR1	0	R1130M
2315.074	0.376	1466958	REC_WORD	23.231	n/a	FISH	5	13	[0, 0, 0]	n/a	FR1	0	R1130M
2315.45	6.404	1467146	REC_WORD	23.607	n/a	WAS IN THERE	-999	13	[0, 0, 0]	n/a	FR1	0	R1130M
2321.854	26.933	1470347	REC_END	n/a	n/a	n/a	-999	13	[0, 0, 0]	n/a	FR1	0	R1130M
2348.787	0.0	1483813	TRIAL	n/a	n/a	n/a	-999	14	[0, 0, 0]	n/a	FR1	0	R1130M
2348.787	10.0	1483813	COUNTDOWN_START	n/a	n/a	n/a	-999	14	[0, 0, 0]	n/a	FR1	0	R1130M
2359.215	0.007	1489027	COUNTDOWN_END	n/a	n/a	n/a	-999	14	[0, 0, 0]	n/a	FR1	0	R1130M
2359.222	1.6	1489030	ORIENT	n/a	n/a	n/a	-999	14	[0, 0, 0]	n/a	FR1	0	R1130M
2361.789	1.6	1490314	WORD	n/a	wordpools/wordpool_EN.txt	NET	1	14	[0, 0, 0]	n/a	FR1	0	R1130M
2364.273	1.6	1491556	WORD	n/a	wordpools/wordpool_EN.txt	MILK	2	14	[0, 0, 0]	n/a	FR1	0	R1130M
2366.872	1.6	1492855	WORD	n/a	wordpools/wordpool_EN.txt	CASH	3	14	[0, 0, 0]	n/a	FR1	0	R1130M
2369.257	1.6	1494048	WORD	n/a	wordpools/wordpool_EN.txt	GOLD	4	14	[0, 0, 0]	n/a	FR1	0	R1130M
2371.89	1.6	1495364	WORD	n/a	wordpools/wordpool_EN.txt	STEAK	5	14	[0, 0, 0]	n/a	FR1	0	R1130M
2374.258	1.6	1496548	WORD	n/a	wordpools/wordpool_EN.txt	GRAPE	6	14	[0, 0, 0]	n/a	FR1	0	R1130M
2376.692	1.6	1497765	WORD	n/a	wordpools/wordpool_EN.txt	CORN	7	14	[0, 0, 0]	n/a	FR1	0	R1130M
2379.158	1.6	1498998	WORD	n/a	wordpools/wordpool_EN.txt	CLOTH	8	14	[0, 0, 0]	n/a	FR1	0	R1130M
2381.66	1.6	1500249	WORD	n/a	wordpools/wordpool_EN.txt	FILM	9	14	[0, 0, 0]	n/a	FR1	0	R1130M
2384.293	1.6	1501565	WORD	n/a	wordpools/wordpool_EN.txt	PIG	10	14	[0, 0, 0]	n/a	FR1	0	R1130M
2386.844	1.6	1502841	WORD	n/a	wordpools/wordpool_EN.txt	BEAK	11	14	[0, 0, 0]	n/a	FR1	0	R1130M
2389.361	1.6	1504099	WORD	n/a	wordpools/wordpool_EN.txt	PEARL	12	14	[0, 0, 0]	n/a	FR1	0	R1130M
2390.977	0.001	1504907	DISTRACT_START	n/a	n/a	n/a	-999	14	[0, 0, 0]	n/a	FR1	0	R1130M
2390.978	0.016	1504907	START	n/a	n/a	n/a	-999	14	[-999, -999, -999]	n/a	FR1	0	R1130M
2390.994	11.67	1504915	PROB	11.639	n/a	n/a	-999	14	[4, 6, 2]	12.0	FR1	0	R1130M
2402.664	8.217	1510750	PROB	8.194	n/a	n/a	-999	14	[8, 2, 3]	13.0	FR1	0	R1130M
2410.881	5.24	1514858	PROB	5.24	n/a	n/a	-999	14	[2, 3, 2]	7.0	FR1	0	R1130M
2416.121	0.011	1517478	STOP	n/a	n/a	n/a	-999	14	[-999, -999, -999]	n/a	FR1	0	R1130M
2416.132	1.136	1517484	DISTRACT_END	n/a	n/a	n/a	-999	14	[0, 0, 0]	n/a	FR1	0	R1130M
2417.268	2.454	1518052	REC_START	n/a	n/a	n/a	-999	14	[0, 0, 0]	n/a	FR1	0	R1130M
2419.722	11.502	1519279	REC_WORD_VV	2.454	n/a	<>	-999	14	[0, 0, 0]	n/a	FR1	0	R1130M
2431.224	8.384	1525029	REC_WORD	13.956	n/a	NET	1	14	[0, 0, 0]	n/a	FR1	0	R1130M
2439.608	6.998	1529221	REC_WORD	22.34	n/a	GOLD	4	14	[0, 0, 0]	n/a	FR1	0	R1130M
2446.606	0.672	1532720	REC_WORD_VV	29.338	n/a	<>	-999	14	[0, 0, 0]	n/a	FR1	0	R1130M
2447.278	9.862	1533056	REC_END	n/a	n/a	n/a	-999	14	[0, 0, 0]	n/a	FR1	0	R1130M
2457.14	10.0	1537987	COUNTDOWN_START	n/a	n/a	n/a	-999	15	[0, 0, 0]	n/a	FR1	0	R1130M
2457.14	10.428	1537987	TRIAL	n/a	n/a	n/a	-999	15	[0, 0, 0]	n/a	FR1	0	R1130M
2467.568	0.008	1543200	COUNTDOWN_END	n/a	n/a	n/a	-999	15	[0, 0, 0]	n/a	FR1	0	R1130M
2467.576	1.6	1543204	ORIENT	n/a	n/a	n/a	-999	15	[0, 0, 0]	n/a	FR1	0	R1130M
2470.026	1.6	1544429	WORD	n/a	wordpools/wordpool_EN.txt	ANT	1	15	[0, 0, 0]	n/a	FR1	0	R1130M
2472.661	1.6	1545747	WORD	n/a	wordpools/wordpool_EN.txt	RAT	2	15	[0, 0, 0]	n/a	FR1	0	R1130M
2475.177	1.6	1547005	WORD	n/a	wordpools/wordpool_EN.txt	PEAR	3	15	[0, 0, 0]	n/a	FR1	0	R1130M
2477.695	1.6	1548263	WORD	n/a	wordpools/wordpool_EN.txt	BRANCH	4	15	[0, 0, 0]	n/a	FR1	0	R1130M
2480.245	1.6	1549538	WORD	n/a	wordpools/wordpool_EN.txt	CAVE	5	15	[0, 0, 0]	n/a	FR1	0	R1130M
2482.762	1.6	1550797	WORD	n/a	wordpools/wordpool_EN.txt	MOLE	6	15	[0, 0, 0]	n/a	FR1	0	R1130M
2485.263	1.6	1552047	WORD	n/a	wordpools/wordpool_EN.txt	HEART	7	15	[0, 0, 0]	n/a	FR1	0	R1130M
2487.647	1.6	1553239	WORD	n/a	wordpools/wordpool_EN.txt	SLIME	8	15	[0, 0, 0]	n/a	FR1	0	R1130M
2490.046	1.6	1554439	WORD	n/a	wordpools/wordpool_EN.txt	FOOD	9	15	[0, 0, 0]	n/a	FR1	0	R1130M
2492.581	1.6	1555706	WORD	n/a	wordpools/wordpool_EN.txt	BEE	10	15	[0, 0, 0]	n/a	FR1	0	R1130M
2495.064	1.6	1556948	WORD	n/a	wordpools/wordpool_EN.txt	BED	11	15	[0, 0, 0]	n/a	FR1	0	R1130M
2497.465	1.6	1558148	WORD	n/a	wordpools/wordpool_EN.txt	PLANT	12	15	[0, 0, 0]	n/a	FR1	0	R1130M
2499.081	0.001	1558956	DISTRACT_START	n/a	n/a	n/a	-999	15	[0, 0, 0]	n/a	FR1	0	R1130M
2499.082	0.016	1558956	START	n/a	n/a	n/a	-999	15	[-999, -999, -999]	n/a	FR1	0	R1130M
2499.098	10.019	1558964	PROB	9.99	n/a	n/a	-999	15	[8, 6, 5]	19.0	FR1	0	R1130M
2509.117	8.236	1563974	PROB	8.212	n/a	n/a	-999	15	[1, 9, 9]	19.0	FR1	0	R1130M
2517.353	10.009	1568091	PROB	10.009	n/a	n/a	-999	15	[7, 4, 3]	14.0	FR1	0	R1130M
2527.362	0.009	1573096	STOP	n/a	n/a	n/a	-999	15	[-999, -999, -999]	n/a	FR1	0	R1130M
2527.371	1.051	1573100	DISTRACT_END	n/a	n/a	n/a	-999	15	[0, 0, 0]	n/a	FR1	0	R1130M
2528.422	4.108	1573626	REC_START	n/a	n/a	n/a	-999	15	[0, 0, 0]	n/a	FR1	0	R1130M
2532.53	1.261	1575679	REC_WORD	4.108	n/a	ANT	1	15	[0, 0, 0]	n/a	FR1	0	R1130M
2533.791	2.033	1576310	REC_WORD	5.369	n/a	RAT	2	15	[0, 0, 0]	n/a	FR1	0	R1130M
2535.824	22.609	1577326	REC_WORD	7.402	n/a	BEE	10	15	[0, 0, 0]	n/a	FR1	0	R1130M
2558.433	6.079	1588630	REC_END	n/a	n/a	n/a	-999	15	[0, 0, 0]	n/a	FR1	0	R1130M
2564.512	0.0	1591670	TRIAL	n/a	n/a	n/a	-999	16	[0, 0, 0]	n/a	FR1	0	R1130M
2564.512	10.0	1591670	COUNTDOWN_START	n/a	n/a	n/a	-999	16	[0, 0, 0]	n/a	FR1	0	R1130M
2574.94	0.006	1596883	COUNTDOWN_END	n/a	n/a	n/a	-999	16	[0, 0, 0]	n/a	FR1	0	R1130M
2574.946	1.6	1596886	ORIENT	n/a	n/a	n/a	-999	16	[0, 0, 0]	n/a	FR1	0	R1130M
2577.531	1.6	1598179	WORD	n/a	wordpools/wordpool_EN.txt	RAIN	1	16	[0, 0, 0]	n/a	FR1	0	R1130M
2580.03	1.6	1599428	WORD	n/a	wordpools/wordpool_EN.txt	SKI	2	16	[0, 0, 0]	n/a	FR1	0	R1130M
2582.532	1.6	1600679	WORD	n/a	wordpools/wordpool_EN.txt	DRUM	3	16	[0, 0, 0]	n/a	FR1	0	R1130M
2584.948	1.6	1601887	WORD	n/a	wordpools/wordpool_EN.txt	CAR	4	16	[0, 0, 0]	n/a	FR1	0	R1130M
2587.549	1.6	1603187	WORD	n/a	wordpools/wordpool_EN.txt	CROWN	5	16	[0, 0, 0]	n/a	FR1	0	R1130M
2589.949	1.6	1604387	WORD	n/a	wordpools/wordpool_EN.txt	STAIR	6	16	[0, 0, 0]	n/a	FR1	0	R1130M
2592.334	1.6	1605580	WORD	n/a	wordpools/wordpool_EN.txt	KEY	7	16	[0, 0, 0]	n/a	FR1	0	R1130M
2594.9	1.6	1606863	WORD	n/a	wordpools/wordpool_EN.txt	DOOR	8	16	[0, 0, 0]	n/a	FR1	0	R1130M
2597.418	1.6	1608122	WORD	n/a	wordpools/wordpool_EN.txt	CHIEF	9	16	[0, 0, 0]	n/a	FR1	0	R1130M
2599.951	1.6	1609388	WORD	n/a	wordpools/wordpool_EN.txt	WAVE	10	16	[0, 0, 0]	n/a	FR1	0	R1130M
2602.535	1.6	1610680	WORD	n/a	wordpools/wordpool_EN.txt	TOY	11	16	[0, 0, 0]	n/a	FR1	0	R1130M
2604.968	1.6	1611896	WORD	n/a	wordpools/wordpool_EN.txt	BLOOM	12	16	[0, 0, 0]	n/a	FR1	0	R1130M
2606.57	0.001	1612697	DISTRACT_START	n/a	n/a	n/a	-999	16	[0, 0, 0]	n/a	FR1	0	R1130M
2606.571	0.016	1612698	START	n/a	n/a	n/a	-999	16	[-999, -999, -999]	n/a	FR1	0	R1130M
2606.587	12.252	1612706	PROB	12.222	n/a	n/a	-999	16	[8, 4, 5]	17.0	FR1	0	R1130M
2618.839	9.723	1618831	PROB	9.723	n/a	n/a	-999	16	[9, 6, 5]	20.0	FR1	0	R1130M
2628.562	0.012	1623693	STOP	n/a	n/a	n/a	-999	16	[-999, -999, -999]	n/a	FR1	0	R1130M
2628.574	1.101	1623699	DISTRACT_END	n/a	n/a	n/a	-999	16	[0, 0, 0]	n/a	FR1	0	R1130M
2629.675	29.994	1624249	REC_START	n/a	n/a	n/a	-999	16	[0, 0, 0]	n/a	FR1	0	R1130M
2659.669	0.017	1639245	REC_WORD_VV	29.994	n/a	<>	-999	16	[0, 0, 0]	n/a	FR1	0	R1130M
2659.686	52.638	1639254	REC_END	n/a	n/a	n/a	-999	16	[0, 0, 0]	n/a	FR1	0	R1130M
2712.324	10.0	1665571	COUNTDOWN_START	n/a	n/a	n/a	-999	17	[0, 0, 0]	n/a	FR1	0	R1130M
2712.324	10.428	1665571	TRIAL	n/a	n/a	n/a	-999	17	[0, 0, 0]	n/a	FR1	0	R1130M
2722.752	0.007	1670785	COUNTDOWN_END	n/a	n/a	n/a	-999	17	[0, 0, 0]	n/a	FR1	0	R1130M
2722.759	1.6	1670789	ORIENT	n/a	n/a	n/a	-999	17	[0, 0, 0]	n/a	FR1	0	R1130M
2725.293	1.6	1672055	WORD	n/a	wordpools/wordpool_EN.txt	SEAT	1	17	[0, 0, 0]	n/a	FR1	0	R1130M
2727.909	1.6	1673363	WORD	n/a	wordpools/wordpool_EN.txt	ROOF	2	17	[0, 0, 0]	n/a	FR1	0	R1130M
2730.41	1.6	1674614	WORD	n/a	wordpools/wordpool_EN.txt	HAND	3	17	[0, 0, 0]	n/a	FR1	0	R1130M
2733.043	1.6	1675930	WORD	n/a	wordpools/wordpool_EN.txt	BADGE	4	17	[0, 0, 0]	n/a	FR1	0	R1130M
2735.561	1.6	1677189	WORD	n/a	wordpools/wordpool_EN.txt	DIME	5	17	[0, 0, 0]	n/a	FR1	0	R1130M
2738.044	1.6	1678431	WORD	n/a	wordpools/wordpool_EN.txt	MAT	6	17	[0, 0, 0]	n/a	FR1	0	R1130M
2740.512	1.6	1679665	WORD	n/a	wordpools/wordpool_EN.txt	STICK	7	17	[0, 0, 0]	n/a	FR1	0	R1130M
2742.912	1.6	1680864	WORD	n/a	wordpools/wordpool_EN.txt	KITE	8	17	[0, 0, 0]	n/a	FR1	0	R1130M
2745.347	1.6	1682082	WORD	n/a	wordpools/wordpool_EN.txt	SMILE	9	17	[0, 0, 0]	n/a	FR1	0	R1130M
2747.814	1.6	1683315	WORD	n/a	wordpools/wordpool_EN.txt	SCHOOL	10	17	[0, 0, 0]	n/a	FR1	0	R1130M
2750.281	1.6	1684549	WORD	n/a	wordpools/wordpool_EN.txt	CANE	11	17	[0, 0, 0]	n/a	FR1	0	R1130M
2752.798	1.6	1685807	WORD	n/a	wordpools/wordpool_EN.txt	COUCH	12	17	[0, 0, 0]	n/a	FR1	0	R1130M
2754.415	0.001	1686616	DISTRACT_START	n/a	n/a	n/a	-999	17	[0, 0, 0]	n/a	FR1	0	R1130M
2754.416	0.016	1686616	START	n/a	n/a	n/a	-999	17	[-999, -999, -999]	n/a	FR1	0	R1130M
2754.432	7.885	1686624	PROB	7.85	n/a	n/a	-999	17	[1, 4, 5]	10.0	FR1	0	R1130M
2762.317	14.764	1690566	PROB	14.764	n/a	n/a	-999	17	[7, 8, 3]	18.0	FR1	0	R1130M
2777.081	0.004	1697948	STOP	n/a	n/a	n/a	-999	17	[-999, -999, -999]	n/a	FR1	0	R1130M
2777.085	1.202	1697950	DISTRACT_END	n/a	n/a	n/a	-999	17	[0, 0, 0]	n/a	FR1	0	R1130M
2778.287	2.541	1698551	REC_START	n/a	n/a	n/a	-999	17	[0, 0, 0]	n/a	FR1	0	R1130M
2780.828	2.219	1699821	REC_WORD	2.541	n/a	SEAT	1	17	[0, 0, 0]	n/a	FR1	0	R1130M
2783.047	2.0	1700931	REC_WORD	4.76	n/a	ROOF	2	17	[0, 0, 0]	n/a	FR1	0	R1130M
2785.047	1.996	1701931	REC_WORD	6.76	n/a	HAND	3	17	[0, 0, 0]	n/a	FR1	0	R1130M
2787.043	1.026	1702929	REC_WORD_VV	8.756	n/a	<>	-999	17	[0, 0, 0]	n/a	FR1	0	R1130M
2788.069	20.229	1703442	REC_WORD	9.782	n/a	BADGE	4	17	[0, 0, 0]	n/a	FR1	0	R1130M
2808.298	8.396	1713556	REC_END	n/a	n/a	n/a	-999	17	[0, 0, 0]	n/a	FR1	0	R1130M
2816.694	0.0	1717753	TRIAL	n/a	n/a	n/a	-999	18	[0, 0, 0]	n/a	FR1	0	R1130M
2816.694	10.0	1717753	COUNTDOWN_START	n/a	n/a	n/a	-999	18	[0, 0, 0]	n/a	FR1	0	R1130M
2827.122	0.006	1722967	COUNTDOWN_END	n/a	n/a	n/a	-999	18	[0, 0, 0]	n/a	FR1	0	R1130M
2827.128	1.6	1722970	ORIENT	n/a	n/a	n/a	-999	18	[0, 0, 0]	n/a	FR1	0	R1130M
2829.713	1.6	1724263	WORD	n/a	wordpools/wordpool_EN.txt	FARM	1	18	[0, 0, 0]	n/a	FR1	0	R1130M
2832.28	1.6	1725546	WORD	n/a	wordpools/wordpool_EN.txt	LAKE	2	18	[0, 0, 0]	n/a	FR1	0	R1130M
2834.73	1.6	1726771	WORD	n/a	wordpools/wordpool_EN.txt	SNOW	3	18	[0, 0, 0]	n/a	FR1	0	R1130M
2837.231	1.6	1728021	WORD	n/a	wordpools/wordpool_EN.txt	RAKE	4	18	[0, 0, 0]	n/a	FR1	0	R1130M
2839.832	1.6	1729322	WORD	n/a	wordpools/wordpool_EN.txt	CALF	5	18	[0, 0, 0]	n/a	FR1	0	R1130M
2842.215	1.6	1730513	WORD	n/a	wordpools/wordpool_EN.txt	SPRING	6	18	[0, 0, 0]	n/a	FR1	0	R1130M
2844.766	1.6	1731789	WORD	n/a	wordpools/wordpool_EN.txt	GRASS	7	18	[0, 0, 0]	n/a	FR1	0	R1130M
2847.149	1.6	1732980	WORD	n/a	wordpools/wordpool_EN.txt	SKUNK	8	18	[0, 0, 0]	n/a	FR1	0	R1130M
2849.667	1.6	1734239	WORD	n/a	wordpools/wordpool_EN.txt	WOOD	9	18	[0, 0, 0]	n/a	FR1	0	R1130M
2852.301	1.6	1735556	WORD	n/a	wordpools/wordpool_EN.txt	SIGN	10	18	[0, 0, 0]	n/a	FR1	0	R1130M
2854.917	1.6	1736864	WORD	n/a	wordpools/wordpool_EN.txt	ELF	11	18	[0, 0, 0]	n/a	FR1	0	R1130M
2857.502	1.6	1738156	WORD	n/a	wordpools/wordpool_EN.txt	MOTH	12	18	[0, 0, 0]	n/a	FR1	0	R1130M
2859.118	0.001	1738964	DISTRACT_START	n/a	n/a	n/a	-999	18	[0, 0, 0]	n/a	FR1	0	R1130M
2859.119	0.015	1738965	START	n/a	n/a	n/a	-999	18	[-999, -999, -999]	n/a	FR1	0	R1130M
2859.134	7.253	1738972	PROB	7.227	n/a	n/a	-999	18	[1, 1, 7]	9.0	FR1	0	R1130M
2866.387	11.734	1742598	PROB	11.709	n/a	n/a	-999	18	[9, 8, 2]	19.0	FR1	0	R1130M
2878.121	10.145	1748465	PROB	10.145	n/a	n/a	-999	18	[5, 6, 7]	18.0	FR1	0	R1130M
2888.266	0.008	1753537	STOP	n/a	n/a	n/a	-999	18	[-999, -999, -999]	n/a	FR1	0	R1130M
2888.274	1.034	1753541	DISTRACT_END	n/a	n/a	n/a	-999	18	[0, 0, 0]	n/a	FR1	0	R1130M
2889.308	8.018	1754058	REC_START	n/a	n/a	n/a	-999	18	[0, 0, 0]	n/a	FR1	0	R1130M
2897.326	1.833	1758067	REC_WORD	8.018	n/a	FARM	1	18	[0, 0, 0]	n/a	FR1	0	R1130M
2899.159	4.987	1758984	REC_WORD	9.851	n/a	LAKE	2	18	[0, 0, 0]	n/a	FR1	0	R1130M
2904.146	15.176	1761477	REC_WORD	14.838	n/a	SNOW	3	18	[0, 0, 0]	n/a	FR1	0	R1130M
2919.322	14.011	1769064	REC_END	n/a	n/a	n/a	-999	18	[0, 0, 0]	n/a	FR1	0	R1130M
2933.333	0.0	1776070	TRIAL	n/a	n/a	n/a	-999	19	[0, 0, 0]	n/a	FR1	0	R1130M
2933.333	10.0	1776070	COUNTDOWN_START	n/a	n/a	n/a	-999	19	[0, 0, 0]	n/a	FR1	0	R1130M
2943.761	0.007	1781283	COUNTDOWN_END	n/a	n/a	n/a	-999	19	[0, 0, 0]	n/a	FR1	0	R1130M
2943.768	1.6	1781287	ORIENT	n/a	n/a	n/a	-999	19	[0, 0, 0]	n/a	FR1	0	R1130M
2946.386	1.6	1782596	WORD	n/a	wordpools/wordpool_EN.txt	ROOT	1	19	[0, 0, 0]	n/a	FR1	0	R1130M
2948.853	1.6	1783829	WORD	n/a	wordpools/wordpool_EN.txt	TREE	2	19	[0, 0, 0]	n/a	FR1	0	R1130M
2951.37	1.6	1785088	WORD	n/a	wordpools/wordpool_EN.txt	POOL	3	19	[0, 0, 0]	n/a	FR1	0	R1130M
2953.953	1.6	1786379	WORD	n/a	wordpools/wordpool_EN.txt	DART	4	19	[0, 0, 0]	n/a	FR1	0	R1130M
2956.354	1.6	1787579	WORD	n/a	wordpools/wordpool_EN.txt	RICE	5	19	[0, 0, 0]	n/a	FR1	0	R1130M
2958.821	1.6	1788813	WORD	n/a	wordpools/wordpool_EN.txt	LEAF	6	19	[0, 0, 0]	n/a	FR1	0	R1130M
2961.272	1.6	1790038	WORD	n/a	wordpools/wordpool_EN.txt	OAK	7	19	[0, 0, 0]	n/a	FR1	0	R1130M
2963.789	1.6	1791297	WORD	n/a	wordpools/wordpool_EN.txt	STEM	8	19	[0, 0, 0]	n/a	FR1	0	R1130M
2966.323	1.6	1792564	WORD	n/a	wordpools/wordpool_EN.txt	SEED	9	19	[0, 0, 0]	n/a	FR1	0	R1130M
2968.889	1.6	1793847	WORD	n/a	wordpools/wordpool_EN.txt	LAMB	10	19	[0, 0, 0]	n/a	FR1	0	R1130M
2971.307	1.6	1795055	WORD	n/a	wordpools/wordpool_EN.txt	MUG	11	19	[0, 0, 0]	n/a	FR1	0	R1130M
2973.94	1.6	1796372	WORD	n/a	wordpools/wordpool_EN.txt	TEA	12	19	[0, 0, 0]	n/a	FR1	0	R1130M
2975.558	0.001	1797181	DISTRACT_START	n/a	n/a	n/a	-999	19	[0, 0, 0]	n/a	FR1	0	R1130M
2975.559	0.016	1797181	START	n/a	n/a	n/a	-999	19	[-999, -999, -999]	n/a	FR1	0	R1130M
2975.575	8.384	1797189	PROB	8.362	n/a	n/a	-999	19	[2, 8, 3]	13.0	FR1	0	R1130M
2983.959	6.217	1801381	PROB	6.194	n/a	n/a	-999	19	[1, 8, 1]	10.0	FR1	0	R1130M
2990.176	8.489	1804489	PROB	8.489	n/a	n/a	-999	19	[7, 1, 4]	12.0	FR1	0	R1130M
2998.665	0.014	1808734	STOP	n/a	n/a	n/a	-999	19	[-999, -999, -999]	n/a	FR1	0	R1130M
2998.679	1.051	1808741	DISTRACT_END	n/a	n/a	n/a	-999	19	[0, 0, 0]	n/a	FR1	0	R1130M
2999.73	2.356	1809266	REC_START	n/a	n/a	n/a	-999	19	[0, 0, 0]	n/a	FR1	0	R1130M
3002.086	1.574	1810444	REC_WORD	2.356	n/a	LAMB	10	19	[0, 0, 0]	n/a	FR1	0	R1130M
3003.66	1.87	1811231	REC_WORD	3.93	n/a	OAK	7	19	[0, 0, 0]	n/a	FR1	0	R1130M
3005.53	2.542	1812166	REC_WORD	5.8	n/a	MUG	11	19	[0, 0, 0]	n/a	FR1	0	R1130M
3008.072	21.669	1813437	REC_WORD	8.342	n/a	TEA	12	19	[0, 0, 0]	n/a	FR1	0	R1130M
3029.741	56.638	1824271	REC_END	n/a	n/a	n/a	-999	19	[0, 0, 0]	n/a	FR1	0	R1130M
3086.379	0.0	1852588	TRIAL	n/a	n/a	n/a	-999	20	[0, 0, 0]	n/a	FR1	0	R1130M
3086.379	10.0	1852588	COUNTDOWN_START	n/a	n/a	n/a	-999	20	[0, 0, 0]	n/a	FR1	0	R1130M
