onset	duration	sample	trial_type	response_time	stim_file	item_name	serialpos	list	test	answer	experiment	session	subject
0.0	36.758	73725	SESS_START	n/a	n/a	n/a	-999	-999	[0, 0, 0]	n/a	FR1	7	R1121M
36.758	10.0	92102	COUNTDOWN_START	n/a	n/a	n/a	-999	13	[0, 0, 0]	n/a	FR1	7	R1121M
36.759	10.427	92103	TRIAL	n/a	n/a	n/a	-999	13	[0, 0, 0]	n/a	FR1	7	R1121M
47.186	0.007	97316	COUNTDOWN_END	n/a	n/a	n/a	-999	13	[0, 0, 0]	n/a	FR1	7	R1121M
47.193	1.6	97319	ORIENT	n/a	n/a	n/a	-999	13	[0, 0, 0]	n/a	FR1	7	R1121M
49.627	1.6	98536	WORD	n/a	wordpools/wordpool_EN.txt	DRUM	1	13	[0, 0, 0]	n/a	FR1	7	R1121M
52.144	1.6	99794	WORD	n/a	wordpools/wordpool_EN.txt	HEART	2	13	[0, 0, 0]	n/a	FR1	7	R1121M
54.712	1.6	101078	WORD	n/a	wordpools/wordpool_EN.txt	SWORD	3	13	[0, 0, 0]	n/a	FR1	7	R1121M
57.128	1.6	102286	WORD	n/a	wordpools/wordpool_EN.txt	BENCH	4	13	[0, 0, 0]	n/a	FR1	7	R1121M
59.713	1.6	103579	WORD	n/a	wordpools/wordpool_EN.txt	PIPE	5	13	[0, 0, 0]	n/a	FR1	7	R1121M
62.246	1.6	104845	WORD	n/a	wordpools/wordpool_EN.txt	FAN	6	13	[0, 0, 0]	n/a	FR1	7	R1121M
64.731	1.6	106087	WORD	n/a	wordpools/wordpool_EN.txt	COUCH	7	13	[0, 0, 0]	n/a	FR1	7	R1121M
67.33	1.6	107387	WORD	n/a	wordpools/wordpool_EN.txt	KITE	8	13	[0, 0, 0]	n/a	FR1	7	R1121M
69.88	1.6	108662	WORD	n/a	wordpools/wordpool_EN.txt	LIP	9	13	[0, 0, 0]	n/a	FR1	7	R1121M
72.381	1.6	109912	WORD	n/a	wordpools/wordpool_EN.txt	LAWN	10	13	[0, 0, 0]	n/a	FR1	7	R1121M
74.948	1.6	111196	WORD	n/a	wordpools/wordpool_EN.txt	FORK	11	13	[0, 0, 0]	n/a	FR1	7	R1121M
77.499	1.6	112471	WORD	n/a	wordpools/wordpool_EN.txt	AXE	12	13	[0, 0, 0]	n/a	FR1	7	R1121M
79.116	0.001	113279	DISTRACT_START	n/a	n/a	n/a	-999	13	[0, 0, 0]	n/a	FR1	7	R1121M
79.117	0.015	113280	START	n/a	n/a	n/a	-999	1	[-999, -999, -999]	n/a	FR1	7	R1121M
79.132	7.468	113287	PROB	7.446	n/a	n/a	-999	1	[3, 5, 7]	19.0	FR1	7	R1121M
86.6	4.435	117021	PROB	4.41	n/a	n/a	-999	1	[1, 9, 9]	19.0	FR1	7	R1121M
91.035	7.118	119238	PROB	7.087	n/a	n/a	-999	1	[4, 7, 5]	19.0	FR1	7	R1121M
98.153	5.193	122797	PROB	5.193	n/a	n/a	-999	1	[5, 3, 2]	10.0	FR1	7	R1121M
103.346	0.008	125393	STOP	n/a	n/a	n/a	-999	1	[-999, -999, -999]	n/a	FR1	7	R1121M
103.354	1.067	125397	DISTRACT_END	n/a	n/a	n/a	-999	13	[0, 0, 0]	n/a	FR1	7	R1121M
104.421	1.503	125931	REC_START	n/a	n/a	n/a	-999	13	[0, 0, 0]	n/a	FR1	7	R1121M
105.924	2.318	126682	REC_WORD	1.503	n/a	LAWN	-999	13	[0, 0, 0]	n/a	FR1	7	R1121M
108.242	5.635	127841	REC_WORD	3.821	n/a	AXE	-999	13	[0, 0, 0]	n/a	FR1	7	R1121M
113.877	7.571	130658	REC_WORD_VV	9.456	n/a	<>	-999	13	[0, 0, 0]	n/a	FR1	7	R1121M
121.448	12.984	134444	REC_WORD	17.027	n/a	KEY	-999	13	[0, 0, 0]	n/a	FR1	7	R1121M
134.432	12.947	140935	REC_END	n/a	n/a	n/a	-999	13	[0, 0, 0]	n/a	FR1	7	R1121M
147.379	0.0	147408	TRIAL	n/a	n/a	n/a	-999	14	[0, 0, 0]	n/a	FR1	7	R1121M
147.379	10.0	147408	COUNTDOWN_START	n/a	n/a	n/a	-999	14	[0, 0, 0]	n/a	FR1	7	R1121M
157.807	0.007	152622	COUNTDOWN_END	n/a	n/a	n/a	-999	14	[0, 0, 0]	n/a	FR1	7	R1121M
157.814	1.6	152625	ORIENT	n/a	n/a	n/a	-999	14	[0, 0, 0]	n/a	FR1	7	R1121M
160.231	1.6	153834	WORD	n/a	wordpools/wordpool_EN.txt	LEAF	1	14	[0, 0, 0]	n/a	FR1	7	R1121M
162.832	1.6	155134	WORD	n/a	wordpools/wordpool_EN.txt	POOL	2	14	[0, 0, 0]	n/a	FR1	7	R1121M
165.366	1.6	156401	WORD	n/a	wordpools/wordpool_EN.txt	CART	3	14	[0, 0, 0]	n/a	FR1	7	R1121M
167.899	1.6	157667	WORD	n/a	wordpools/wordpool_EN.txt	BARN	4	14	[0, 0, 0]	n/a	FR1	7	R1121M
170.483	1.6	158959	WORD	n/a	wordpools/wordpool_EN.txt	STOVE	5	14	[0, 0, 0]	n/a	FR1	7	R1121M
172.884	1.6	160160	WORD	n/a	wordpools/wordpool_EN.txt	FENCE	6	14	[0, 0, 0]	n/a	FR1	7	R1121M
175.318	1.6	161377	WORD	n/a	wordpools/wordpool_EN.txt	HORSE	7	14	[0, 0, 0]	n/a	FR1	7	R1121M
177.736	1.6	162585	WORD	n/a	wordpools/wordpool_EN.txt	POND	8	14	[0, 0, 0]	n/a	FR1	7	R1121M
180.269	1.6	163852	WORD	n/a	wordpools/wordpool_EN.txt	HAWK	9	14	[0, 0, 0]	n/a	FR1	7	R1121M
182.687	1.6	165061	WORD	n/a	wordpools/wordpool_EN.txt	INK	10	14	[0, 0, 0]	n/a	FR1	7	R1121M
185.253	1.6	166344	WORD	n/a	wordpools/wordpool_EN.txt	NEST	11	14	[0, 0, 0]	n/a	FR1	7	R1121M
187.87	1.6	167652	WORD	n/a	wordpools/wordpool_EN.txt	FLUTE	12	14	[0, 0, 0]	n/a	FR1	7	R1121M
189.487	0.001	168460	DISTRACT_START	n/a	n/a	n/a	-999	14	[0, 0, 0]	n/a	FR1	7	R1121M
189.488	0.016	168461	START	n/a	n/a	n/a	-999	2	[-999, -999, -999]	n/a	FR1	7	R1121M
189.504	6.751	168469	PROB	6.722	n/a	n/a	-999	2	[6, 9, 2]	17.0	FR1	7	R1121M
196.255	5.485	171844	PROB	5.452	n/a	n/a	-999	2	[8, 2, 9]	19.0	FR1	7	R1121M
201.74	5.484	174586	PROB	5.462	n/a	n/a	-999	2	[7, 3, 9]	19.0	FR1	7	R1121M
207.224	15.978	177328	PROB	15.978	n/a	n/a	-999	2	[9, 5, 8]	17.0	FR1	7	R1121M
223.202	0.008	185317	STOP	n/a	n/a	n/a	-999	2	[-999, -999, -999]	n/a	FR1	7	R1121M
223.21	1.084	185321	DISTRACT_END	n/a	n/a	n/a	-999	14	[0, 0, 0]	n/a	FR1	7	R1121M
224.294	3.441	185863	REC_START	n/a	n/a	n/a	-999	14	[0, 0, 0]	n/a	FR1	7	R1121M
227.735	3.077	187583	REC_WORD	3.441	n/a	LEAF	-999	14	[0, 0, 0]	n/a	FR1	7	R1121M
230.812	1.655	189121	REC_WORD	6.518	n/a	POOL	-999	14	[0, 0, 0]	n/a	FR1	7	R1121M
232.467	1.8	189949	REC_WORD	8.173	n/a	BARN	-999	14	[0, 0, 0]	n/a	FR1	7	R1121M
234.267	2.343	190849	REC_WORD	9.973	n/a	HORSE	-999	14	[0, 0, 0]	n/a	FR1	7	R1121M
236.61	2.187	192020	REC_WORD	12.316	n/a	HAWK	-999	14	[0, 0, 0]	n/a	FR1	7	R1121M
238.797	15.513	193113	REC_WORD	14.503	n/a	NEST	-999	14	[0, 0, 0]	n/a	FR1	7	R1121M
254.31	22.811	200869	REC_END	n/a	n/a	n/a	-999	14	[0, 0, 0]	n/a	FR1	7	R1121M
277.121	0.0	212274	TRIAL	n/a	n/a	n/a	-999	15	[0, 0, 0]	n/a	FR1	7	R1121M
277.121	10.0	212274	COUNTDOWN_START	n/a	n/a	n/a	-999	15	[0, 0, 0]	n/a	FR1	7	R1121M
287.549	0.007	217487	COUNTDOWN_END	n/a	n/a	n/a	-999	15	[0, 0, 0]	n/a	FR1	7	R1121M
287.556	1.6	217491	ORIENT	n/a	n/a	n/a	-999	15	[0, 0, 0]	n/a	FR1	7	R1121M
290.023	1.6	218724	WORD	n/a	wordpools/wordpool_EN.txt	MAT	1	15	[0, 0, 0]	n/a	FR1	7	R1121M
292.457	1.6	219941	WORD	n/a	wordpools/wordpool_EN.txt	FUR	2	15	[0, 0, 0]	n/a	FR1	7	R1121M
294.84	1.6	221133	WORD	n/a	wordpools/wordpool_EN.txt	SINK	3	15	[0, 0, 0]	n/a	FR1	7	R1121M
297.391	1.6	222408	WORD	n/a	wordpools/wordpool_EN.txt	TIE	4	15	[0, 0, 0]	n/a	FR1	7	R1121M
299.808	1.6	223616	WORD	n/a	wordpools/wordpool_EN.txt	CANE	5	15	[0, 0, 0]	n/a	FR1	7	R1121M
302.409	1.6	224917	WORD	n/a	wordpools/wordpool_EN.txt	BRUSH	6	15	[0, 0, 0]	n/a	FR1	7	R1121M
304.909	1.6	226167	WORD	n/a	wordpools/wordpool_EN.txt	EEL	7	15	[0, 0, 0]	n/a	FR1	7	R1121M
307.31	1.6	227367	WORD	n/a	wordpools/wordpool_EN.txt	STOOL	8	15	[0, 0, 0]	n/a	FR1	7	R1121M
309.81	1.6	228617	WORD	n/a	wordpools/wordpool_EN.txt	DOLL	9	15	[0, 0, 0]	n/a	FR1	7	R1121M
312.344	1.6	229884	WORD	n/a	wordpools/wordpool_EN.txt	BOOT	10	15	[0, 0, 0]	n/a	FR1	7	R1121M
314.729	1.6	231076	WORD	n/a	wordpools/wordpool_EN.txt	HAT	11	15	[0, 0, 0]	n/a	FR1	7	R1121M
317.262	1.6	232343	WORD	n/a	wordpools/wordpool_EN.txt	ARM	12	15	[0, 0, 0]	n/a	FR1	7	R1121M
318.879	0.001	233151	DISTRACT_START	n/a	n/a	n/a	-999	15	[0, 0, 0]	n/a	FR1	7	R1121M
318.88	0.015	233152	START	n/a	n/a	n/a	-999	3	[-999, -999, -999]	n/a	FR1	7	R1121M
318.895	5.886	233159	PROB	5.86	n/a	n/a	-999	3	[1, 9, 9]	19.0	FR1	7	R1121M
324.781	5.483	236102	PROB	5.453	n/a	n/a	-999	3	[9, 2, 8]	19.0	FR1	7	R1121M
330.264	4.618	238843	PROB	4.594	n/a	n/a	-999	3	[1, 9, 7]	18.0	FR1	7	R1121M
334.882	5.632	241152	PROB	5.632	n/a	n/a	-999	3	[9, 1, 8]	18.0	FR1	7	R1121M
340.514	0.019	243968	STOP	n/a	n/a	n/a	-999	3	[-999, -999, -999]	n/a	FR1	7	R1121M
340.533	1.067	243977	DISTRACT_END	n/a	n/a	n/a	-999	15	[0, 0, 0]	n/a	FR1	7	R1121M
341.6	2.083	244511	REC_START	n/a	n/a	n/a	-999	15	[0, 0, 0]	n/a	FR1	7	R1121M
343.683	1.923	245552	REC_WORD	2.083	n/a	BOOT	-999	15	[0, 0, 0]	n/a	FR1	7	R1121M
345.606	1.801	246514	REC_WORD	4.006	n/a	EEL	-999	15	[0, 0, 0]	n/a	FR1	7	R1121M
347.407	3.143	247414	REC_WORD	5.807	n/a	STOOL	-999	15	[0, 0, 0]	n/a	FR1	7	R1121M
350.55	9.16	248985	REC_WORD	8.95	n/a	STORE	-999	15	[0, 0, 0]	n/a	FR1	7	R1121M
359.71	11.906	253565	REC_WORD	18.11	n/a	LEAF	-999	15	[0, 0, 0]	n/a	FR1	7	R1121M
371.616	18.977	259518	REC_END	n/a	n/a	n/a	-999	15	[0, 0, 0]	n/a	FR1	7	R1121M
390.593	0.0	269005	TRIAL	n/a	n/a	n/a	-999	16	[0, 0, 0]	n/a	FR1	7	R1121M
390.593	10.0	269005	COUNTDOWN_START	n/a	n/a	n/a	-999	16	[0, 0, 0]	n/a	FR1	7	R1121M
401.021	0.007	274219	COUNTDOWN_END	n/a	n/a	n/a	-999	16	[0, 0, 0]	n/a	FR1	7	R1121M
401.028	1.6	274222	ORIENT	n/a	n/a	n/a	-999	16	[0, 0, 0]	n/a	FR1	7	R1121M
403.445	1.6	275431	WORD	n/a	wordpools/wordpool_EN.txt	PANTS	1	16	[0, 0, 0]	n/a	FR1	7	R1121M
405.995	1.6	276706	WORD	n/a	wordpools/wordpool_EN.txt	PEN	2	16	[0, 0, 0]	n/a	FR1	7	R1121M
408.546	1.6	277981	WORD	n/a	wordpools/wordpool_EN.txt	SHEEP	3	16	[0, 0, 0]	n/a	FR1	7	R1121M
411.113	1.6	279264	WORD	n/a	wordpools/wordpool_EN.txt	BATH	4	16	[0, 0, 0]	n/a	FR1	7	R1121M
413.613	1.6	280514	WORD	n/a	wordpools/wordpool_EN.txt	BED	5	16	[0, 0, 0]	n/a	FR1	7	R1121M
416.131	1.6	281773	WORD	n/a	wordpools/wordpool_EN.txt	SMILE	6	16	[0, 0, 0]	n/a	FR1	7	R1121M
418.515	1.6	282965	WORD	n/a	wordpools/wordpool_EN.txt	RIB	7	16	[0, 0, 0]	n/a	FR1	7	R1121M
421.065	1.6	284240	WORD	n/a	wordpools/wordpool_EN.txt	FOAM	8	16	[0, 0, 0]	n/a	FR1	7	R1121M
423.667	1.6	285541	WORD	n/a	wordpools/wordpool_EN.txt	PIG	9	16	[0, 0, 0]	n/a	FR1	7	R1121M
426.133	1.6	286774	WORD	n/a	wordpools/wordpool_EN.txt	CROW	10	16	[0, 0, 0]	n/a	FR1	7	R1121M
428.55	1.6	287982	WORD	n/a	wordpools/wordpool_EN.txt	THREAD	11	16	[0, 0, 0]	n/a	FR1	7	R1121M
431.017	1.6	289216	WORD	n/a	wordpools/wordpool_EN.txt	TRAY	12	16	[0, 0, 0]	n/a	FR1	7	R1121M
432.634	0.001	290024	DISTRACT_START	n/a	n/a	n/a	-999	16	[0, 0, 0]	n/a	FR1	7	R1121M
432.635	0.016	290025	START	n/a	n/a	n/a	-999	4	[-999, -999, -999]	n/a	FR1	7	R1121M
432.651	5.018	290033	PROB	4.991	n/a	n/a	-999	4	[2, 8, 3]	11.0	FR1	7	R1121M
437.669	17.941	292541	PROB	17.941	n/a	n/a	-999	4	[5, 1, 7]	14.0	FR1	7	R1121M
455.61	0.012	301511	STOP	n/a	n/a	n/a	-999	4	[-999, -999, -999]	n/a	FR1	7	R1121M
455.622	1.118	301517	DISTRACT_END	n/a	n/a	n/a	-999	16	[0, 0, 0]	n/a	FR1	7	R1121M
456.74	23.802	302076	REC_START	n/a	n/a	n/a	-999	16	[0, 0, 0]	n/a	FR1	7	R1121M
480.542	1.503	313976	REC_WORD	23.802	n/a	PANTS	-999	16	[0, 0, 0]	n/a	FR1	7	R1121M
482.045	1.837	314728	REC_WORD	25.305	n/a	PET	-999	16	[0, 0, 0]	n/a	FR1	7	R1121M
483.882	2.874	315646	REC_WORD	27.142	n/a	PURSE	-999	16	[0, 0, 0]	n/a	FR1	7	R1121M
486.756	15.208	317083	REC_END	n/a	n/a	n/a	-999	16	[0, 0, 0]	n/a	FR1	7	R1121M
501.964	0.0	324686	TRIAL	n/a	n/a	n/a	-999	17	[0, 0, 0]	n/a	FR1	7	R1121M
501.964	10.0	324686	COUNTDOWN_START	n/a	n/a	n/a	-999	17	[0, 0, 0]	n/a	FR1	7	R1121M
512.392	0.007	329900	COUNTDOWN_END	n/a	n/a	n/a	-999	17	[0, 0, 0]	n/a	FR1	7	R1121M
512.399	1.6	329903	ORIENT	n/a	n/a	n/a	-999	17	[0, 0, 0]	n/a	FR1	7	R1121M
514.784	1.6	331096	WORD	n/a	wordpools/wordpool_EN.txt	RAKE	1	17	[0, 0, 0]	n/a	FR1	7	R1121M
517.384	1.6	332396	WORD	n/a	wordpools/wordpool_EN.txt	CROWN	2	17	[0, 0, 0]	n/a	FR1	7	R1121M
519.768	1.6	333588	WORD	n/a	wordpools/wordpool_EN.txt	TOOTH	3	17	[0, 0, 0]	n/a	FR1	7	R1121M
522.335	1.6	334871	WORD	n/a	wordpools/wordpool_EN.txt	TOE	4	17	[0, 0, 0]	n/a	FR1	7	R1121M
524.902	1.6	336154	WORD	n/a	wordpools/wordpool_EN.txt	CORN	5	17	[0, 0, 0]	n/a	FR1	7	R1121M
527.419	1.6	337413	WORD	n/a	wordpools/wordpool_EN.txt	GUARD	6	17	[0, 0, 0]	n/a	FR1	7	R1121M
529.952	1.6	338679	WORD	n/a	wordpools/wordpool_EN.txt	DESK	7	17	[0, 0, 0]	n/a	FR1	7	R1121M
532.503	1.6	339955	WORD	n/a	wordpools/wordpool_EN.txt	TEETH	8	17	[0, 0, 0]	n/a	FR1	7	R1121M
534.92	1.6	341163	WORD	n/a	wordpools/wordpool_EN.txt	TOOL	9	17	[0, 0, 0]	n/a	FR1	7	R1121M
537.304	1.6	342355	WORD	n/a	wordpools/wordpool_EN.txt	BRIDGE	10	17	[0, 0, 0]	n/a	FR1	7	R1121M
539.854	1.6	343630	WORD	n/a	wordpools/wordpool_EN.txt	WHEEL	11	17	[0, 0, 0]	n/a	FR1	7	R1121M
542.405	1.6	344905	WORD	n/a	wordpools/wordpool_EN.txt	CUBE	12	17	[0, 0, 0]	n/a	FR1	7	R1121M
544.022	0.001	345714	DISTRACT_START	n/a	n/a	n/a	-999	17	[0, 0, 0]	n/a	FR1	7	R1121M
544.023	0.016	345714	START	n/a	n/a	n/a	-999	5	[-999, -999, -999]	n/a	FR1	7	R1121M
544.039	14.019	345722	PROB	13.987	n/a	n/a	-999	5	[5, 4, 9]	18.0	FR1	7	R1121M
558.058	4.984	352731	PROB	4.96	n/a	n/a	-999	5	[4, 3, 1]	8.0	FR1	7	R1121M
563.042	3.136	355223	PROB	3.136	n/a	n/a	-999	5	[1, 1, 3]	5.0	FR1	7	R1121M
566.178	0.015	356791	STOP	n/a	n/a	n/a	-999	5	[-999, -999, -999]	n/a	FR1	7	R1121M
566.193	1.052	356798	DISTRACT_END	n/a	n/a	n/a	-999	17	[0, 0, 0]	n/a	FR1	7	R1121M
567.245	1.534	357324	REC_START	n/a	n/a	n/a	-999	17	[0, 0, 0]	n/a	FR1	7	R1121M
568.779	28.476	358091	REC_WORD	1.534	n/a	WHEEL	-999	17	[0, 0, 0]	n/a	FR1	7	R1121M
597.255	7.179	372328	REC_END	n/a	n/a	n/a	-999	17	[0, 0, 0]	n/a	FR1	7	R1121M
604.434	0.0	375917	TRIAL	n/a	n/a	n/a	-999	18	[0, 0, 0]	n/a	FR1	7	R1121M
604.434	10.0	375917	COUNTDOWN_START	n/a	n/a	n/a	-999	18	[0, 0, 0]	n/a	FR1	7	R1121M
614.862	0.007	381131	COUNTDOWN_END	n/a	n/a	n/a	-999	18	[0, 0, 0]	n/a	FR1	7	R1121M
614.869	1.6	381134	ORIENT	n/a	n/a	n/a	-999	18	[0, 0, 0]	n/a	FR1	7	R1121M
617.253	1.6	382326	WORD	n/a	wordpools/wordpool_EN.txt	STEAK	1	18	[0, 0, 0]	n/a	FR1	7	R1121M
619.803	1.6	383601	WORD	n/a	wordpools/wordpool_EN.txt	EGG	2	18	[0, 0, 0]	n/a	FR1	7	R1121M
622.204	1.6	384801	WORD	n/a	wordpools/wordpool_EN.txt	BLOOM	3	18	[0, 0, 0]	n/a	FR1	7	R1121M
624.722	1.6	386060	WORD	n/a	wordpools/wordpool_EN.txt	PEAR	4	18	[0, 0, 0]	n/a	FR1	7	R1121M
627.105	1.6	387252	WORD	n/a	wordpools/wordpool_EN.txt	FOOD	5	18	[0, 0, 0]	n/a	FR1	7	R1121M
629.706	1.6	388552	WORD	n/a	wordpools/wordpool_EN.txt	SLEEVE	6	18	[0, 0, 0]	n/a	FR1	7	R1121M
632.272	1.6	389835	WORD	n/a	wordpools/wordpool_EN.txt	ELF	7	18	[0, 0, 0]	n/a	FR1	7	R1121M
634.89	1.6	391144	WORD	n/a	wordpools/wordpool_EN.txt	GEESE	8	18	[0, 0, 0]	n/a	FR1	7	R1121M
637.39	1.6	392394	WORD	n/a	wordpools/wordpool_EN.txt	BAG	9	18	[0, 0, 0]	n/a	FR1	7	R1121M
639.991	1.6	393694	WORD	n/a	wordpools/wordpool_EN.txt	SPRING	10	18	[0, 0, 0]	n/a	FR1	7	R1121M
642.558	1.6	394978	WORD	n/a	wordpools/wordpool_EN.txt	MILK	11	18	[0, 0, 0]	n/a	FR1	7	R1121M
645.158	1.6	396278	WORD	n/a	wordpools/wordpool_EN.txt	FARM	12	18	[0, 0, 0]	n/a	FR1	7	R1121M
646.76	0.001	397078	DISTRACT_START	n/a	n/a	n/a	-999	18	[0, 0, 0]	n/a	FR1	7	R1121M
646.761	0.015	397079	START	n/a	n/a	n/a	-999	6	[-999, -999, -999]	n/a	FR1	7	R1121M
646.776	6.483	397086	PROB	6.458	n/a	n/a	-999	6	[4, 4, 6]	16.0	FR1	7	R1121M
653.259	3.335	400328	PROB	3.311	n/a	n/a	-999	6	[3, 1, 3]	7.0	FR1	7	R1121M
656.594	6.152	401995	PROB	6.129	n/a	n/a	-999	6	[5, 9, 6]	20.0	FR1	7	R1121M
662.746	5.864	405071	PROB	5.864	n/a	n/a	-999	6	[8, 6, 5]	19.0	FR1	7	R1121M
668.61	0.019	408003	STOP	n/a	n/a	n/a	-999	6	[-999, -999, -999]	n/a	FR1	7	R1121M
668.629	1.168	408012	DISTRACT_END	n/a	n/a	n/a	-999	18	[0, 0, 0]	n/a	FR1	7	R1121M
669.797	1.517	408596	REC_START	n/a	n/a	n/a	-999	18	[0, 0, 0]	n/a	FR1	7	R1121M
671.314	4.111	409354	REC_WORD	1.517	n/a	FARM	-999	18	[0, 0, 0]	n/a	FR1	7	R1121M
675.425	21.018	411410	REC_WORD	5.628	n/a	GEESE	-999	18	[0, 0, 0]	n/a	FR1	7	R1121M
696.443	3.366	421918	REC_WORD	26.646	n/a	RAKE	-999	18	[0, 0, 0]	n/a	FR1	7	R1121M
699.809	30.266	423601	REC_END	n/a	n/a	n/a	-999	18	[0, 0, 0]	n/a	FR1	7	R1121M
730.075	0.0	438733	TRIAL	n/a	n/a	n/a	-999	19	[0, 0, 0]	n/a	FR1	7	R1121M
730.075	10.0	438733	COUNTDOWN_START	n/a	n/a	n/a	-999	19	[0, 0, 0]	n/a	FR1	7	R1121M
740.503	0.007	443946	COUNTDOWN_END	n/a	n/a	n/a	-999	19	[0, 0, 0]	n/a	FR1	7	R1121M
740.51	1.6	443950	ORIENT	n/a	n/a	n/a	-999	19	[0, 0, 0]	n/a	FR1	7	R1121M
743.011	1.6	445200	WORD	n/a	wordpools/wordpool_EN.txt	CAPE	1	19	[0, 0, 0]	n/a	FR1	7	R1121M
745.444	1.6	446416	WORD	n/a	wordpools/wordpool_EN.txt	ROPE	2	19	[0, 0, 0]	n/a	FR1	7	R1121M
748.061	1.6	447725	WORD	n/a	wordpools/wordpool_EN.txt	DOCK	3	19	[0, 0, 0]	n/a	FR1	7	R1121M
750.629	1.6	449009	WORD	n/a	wordpools/wordpool_EN.txt	FORT	4	19	[0, 0, 0]	n/a	FR1	7	R1121M
753.079	1.6	450234	WORD	n/a	wordpools/wordpool_EN.txt	STEAM	5	19	[0, 0, 0]	n/a	FR1	7	R1121M
755.48	1.6	451434	WORD	n/a	wordpools/wordpool_EN.txt	SAIL	6	19	[0, 0, 0]	n/a	FR1	7	R1121M
757.98	1.6	452684	WORD	n/a	wordpools/wordpool_EN.txt	SLIME	7	19	[0, 0, 0]	n/a	FR1	7	R1121M
760.364	1.6	453876	WORD	n/a	wordpools/wordpool_EN.txt	HOOK	8	19	[0, 0, 0]	n/a	FR1	7	R1121M
762.797	1.6	455092	WORD	n/a	wordpools/wordpool_EN.txt	PRINCE	9	19	[0, 0, 0]	n/a	FR1	7	R1121M
765.265	1.6	456326	WORD	n/a	wordpools/wordpool_EN.txt	FLAG	10	19	[0, 0, 0]	n/a	FR1	7	R1121M
767.783	1.6	457585	WORD	n/a	wordpools/wordpool_EN.txt	SEA	11	19	[0, 0, 0]	n/a	FR1	7	R1121M
770.266	1.6	458826	WORD	n/a	wordpools/wordpool_EN.txt	HORN	12	19	[0, 0, 0]	n/a	FR1	7	R1121M
771.883	0.001	459635	DISTRACT_START	n/a	n/a	n/a	-999	19	[0, 0, 0]	n/a	FR1	7	R1121M
771.884	0.015	459635	START	n/a	n/a	n/a	-999	7	[-999, -999, -999]	n/a	FR1	7	R1121M
771.899	8.836	459643	PROB	8.8	n/a	n/a	-999	7	[6, 5, 2]	13.0	FR1	7	R1121M
780.735	3.317	464061	PROB	3.291	n/a	n/a	-999	7	[2, 2, 1]	5.0	FR1	7	R1121M
784.052	7.184	465719	PROB	7.157	n/a	n/a	-999	7	[8, 7, 7]	21.0	FR1	7	R1121M
791.236	10.358	469311	PROB	10.358	n/a	n/a	-999	7	[2, 3, 8]	13.0	FR1	7	R1121M
801.594	0.011	474489	STOP	n/a	n/a	n/a	-999	7	[-999, -999, -999]	n/a	FR1	7	R1121M
801.605	1.152	474495	DISTRACT_END	n/a	n/a	n/a	-999	19	[0, 0, 0]	n/a	FR1	7	R1121M
802.757	4.582	475071	REC_START	n/a	n/a	n/a	-999	19	[0, 0, 0]	n/a	FR1	7	R1121M
807.339	3.716	477361	REC_WORD	4.582	n/a	SLIME	-999	19	[0, 0, 0]	n/a	FR1	7	R1121M
811.055	1.021	479219	REC_WORD	8.298	n/a	HOOK	-999	19	[0, 0, 0]	n/a	FR1	7	R1121M
812.076	20.692	479730	REC_WORD	9.319	n/a	CAPE	-999	19	[0, 0, 0]	n/a	FR1	7	R1121M
832.768	4.361	490075	REC_END	n/a	n/a	n/a	-999	19	[0, 0, 0]	n/a	FR1	7	R1121M
837.129	0.0	492255	TRIAL	n/a	n/a	n/a	-999	20	[0, 0, 0]	n/a	FR1	7	R1121M
837.129	10.0	492255	COUNTDOWN_START	n/a	n/a	n/a	-999	20	[0, 0, 0]	n/a	FR1	7	R1121M
847.557	0.007	497469	COUNTDOWN_END	n/a	n/a	n/a	-999	20	[0, 0, 0]	n/a	FR1	7	R1121M
847.564	1.6	497472	ORIENT	n/a	n/a	n/a	-999	20	[0, 0, 0]	n/a	FR1	7	R1121M
850.198	1.6	498789	WORD	n/a	wordpools/wordpool_EN.txt	PASTE	1	20	[0, 0, 0]	n/a	FR1	7	R1121M
852.749	1.6	500065	WORD	n/a	wordpools/wordpool_EN.txt	SUIT	2	20	[0, 0, 0]	n/a	FR1	7	R1121M
855.199	1.6	501290	WORD	n/a	wordpools/wordpool_EN.txt	THUMB	3	20	[0, 0, 0]	n/a	FR1	7	R1121M
857.734	1.6	502557	WORD	n/a	wordpools/wordpool_EN.txt	CHIEF	4	20	[0, 0, 0]	n/a	FR1	7	R1121M
860.2	1.6	503790	WORD	n/a	wordpools/wordpool_EN.txt	JUDGE	5	20	[0, 0, 0]	n/a	FR1	7	R1121M
862.8	1.6	505090	WORD	n/a	wordpools/wordpool_EN.txt	BANK	6	20	[0, 0, 0]	n/a	FR1	7	R1121M
865.267	1.6	506323	WORD	n/a	wordpools/wordpool_EN.txt	CLIFF	7	20	[0, 0, 0]	n/a	FR1	7	R1121M
867.651	1.6	507515	WORD	n/a	wordpools/wordpool_EN.txt	SPEAR	8	20	[0, 0, 0]	n/a	FR1	7	R1121M
870.052	1.6	508715	WORD	n/a	wordpools/wordpool_EN.txt	COIN	9	20	[0, 0, 0]	n/a	FR1	7	R1121M
872.585	1.6	509982	WORD	n/a	wordpools/wordpool_EN.txt	BEAN	10	20	[0, 0, 0]	n/a	FR1	7	R1121M
875.053	1.6	511216	WORD	n/a	wordpools/wordpool_EN.txt	RICE	11	20	[0, 0, 0]	n/a	FR1	7	R1121M
877.57	1.6	512474	WORD	n/a	wordpools/wordpool_EN.txt	MOOSE	12	20	[0, 0, 0]	n/a	FR1	7	R1121M
879.187	0.001	513283	DISTRACT_START	n/a	n/a	n/a	-999	20	[0, 0, 0]	n/a	FR1	7	R1121M
879.188	0.015	513283	START	n/a	n/a	n/a	-999	8	[-999, -999, -999]	n/a	FR1	7	R1121M
879.203	3.618	513291	PROB	3.591	n/a	n/a	-999	8	[3, 3, 3]	9.0	FR1	7	R1121M
882.821	10.502	515099	PROB	10.477	n/a	n/a	-999	8	[7, 8, 8]	21.0	FR1	7	R1121M
893.323	18.783	520350	PROB	18.783	n/a	n/a	-999	8	[4, 3, 8]	15.0	FR1	7	R1121M
912.106	0.004	529741	STOP	n/a	n/a	n/a	-999	8	[-999, -999, -999]	n/a	FR1	7	R1121M
912.11	1.067	529743	DISTRACT_END	n/a	n/a	n/a	-999	20	[0, 0, 0]	n/a	FR1	7	R1121M
913.177	3.828	530276	REC_START	n/a	n/a	n/a	-999	20	[0, 0, 0]	n/a	FR1	7	R1121M
917.005	26.183	532190	REC_WORD	3.828	n/a	PASTE	-999	20	[0, 0, 0]	n/a	FR1	7	R1121M
943.188	4.612	545280	REC_END	n/a	n/a	n/a	-999	20	[0, 0, 0]	n/a	FR1	7	R1121M
947.8	0.0	547586	TRIAL	n/a	n/a	n/a	-999	21	[0, 0, 0]	n/a	FR1	7	R1121M
947.8	10.0	547586	COUNTDOWN_START	n/a	n/a	n/a	-999	21	[0, 0, 0]	n/a	FR1	7	R1121M
958.228	0.007	552800	COUNTDOWN_END	n/a	n/a	n/a	-999	21	[0, 0, 0]	n/a	FR1	7	R1121M
958.235	1.6	552803	ORIENT	n/a	n/a	n/a	-999	21	[0, 0, 0]	n/a	FR1	7	R1121M
960.852	1.6	554112	WORD	n/a	wordpools/wordpool_EN.txt	CHALK	1	21	[0, 0, 0]	n/a	FR1	7	R1121M
963.453	1.6	555412	WORD	n/a	wordpools/wordpool_EN.txt	ICE	2	21	[0, 0, 0]	n/a	FR1	7	R1121M
966.053	1.6	556712	WORD	n/a	wordpools/wordpool_EN.txt	CONE	3	21	[0, 0, 0]	n/a	FR1	7	R1121M
968.521	1.6	557946	WORD	n/a	wordpools/wordpool_EN.txt	WEED	4	21	[0, 0, 0]	n/a	FR1	7	R1121M
971.054	1.6	559212	WORD	n/a	wordpools/wordpool_EN.txt	MULE	5	21	[0, 0, 0]	n/a	FR1	7	R1121M
973.638	1.6	560504	WORD	n/a	wordpools/wordpool_EN.txt	TAIL	6	21	[0, 0, 0]	n/a	FR1	7	R1121M
976.172	1.6	561771	WORD	n/a	wordpools/wordpool_EN.txt	SNOW	7	21	[0, 0, 0]	n/a	FR1	7	R1121M
978.757	1.6	563064	WORD	n/a	wordpools/wordpool_EN.txt	FOG	8	21	[0, 0, 0]	n/a	FR1	7	R1121M
981.223	1.6	564296	WORD	n/a	wordpools/wordpool_EN.txt	SHIELD	9	21	[0, 0, 0]	n/a	FR1	7	R1121M
983.741	1.6	565555	WORD	n/a	wordpools/wordpool_EN.txt	PARK	10	21	[0, 0, 0]	n/a	FR1	7	R1121M
986.29	1.6	566830	WORD	n/a	wordpools/wordpool_EN.txt	SIGN	11	21	[0, 0, 0]	n/a	FR1	7	R1121M
988.692	1.6	568031	WORD	n/a	wordpools/wordpool_EN.txt	SHIRT	12	21	[0, 0, 0]	n/a	FR1	7	R1121M
990.308	0.001	568839	DISTRACT_START	n/a	n/a	n/a	-999	21	[0, 0, 0]	n/a	FR1	7	R1121M
990.309	0.016	568839	START	n/a	n/a	n/a	-999	9	[-999, -999, -999]	n/a	FR1	7	R1121M
990.325	5.951	568847	PROB	5.925	n/a	n/a	-999	9	[9, 3, 5]	17.0	FR1	7	R1121M
996.276	8.952	571822	PROB	8.918	n/a	n/a	-999	9	[2, 3, 5]	99.0	FR1	7	R1121M
1005.228	6.838	576298	PROB	6.838	n/a	n/a	-999	9	[1, 3, 2]	6.0	FR1	7	R1121M
1012.066	0.013	579717	STOP	n/a	n/a	n/a	-999	9	[-999, -999, -999]	n/a	FR1	7	R1121M
1012.079	1.034	579723	DISTRACT_END	n/a	n/a	n/a	-999	21	[0, 0, 0]	n/a	FR1	7	R1121M
1013.113	4.04	580240	REC_START	n/a	n/a	n/a	-999	21	[0, 0, 0]	n/a	FR1	7	R1121M
1017.153	1.301	582260	REC_WORD	4.04	n/a	SHIRT	-999	21	[0, 0, 0]	n/a	FR1	7	R1121M
1018.454	2.315	582910	REC_WORD	5.341	n/a	SHIELD	-999	21	[0, 0, 0]	n/a	FR1	7	R1121M
1020.769	22.355	584068	REC_WORD	7.656	n/a	FOG	-999	21	[0, 0, 0]	n/a	FR1	7	R1121M
1043.124	5.312	595244	REC_END	n/a	n/a	n/a	-999	21	[0, 0, 0]	n/a	FR1	7	R1121M
1048.436	0.0	597900	TRIAL	n/a	n/a	n/a	-999	22	[0, 0, 0]	n/a	FR1	7	R1121M
1048.436	10.0	597900	COUNTDOWN_START	n/a	n/a	n/a	-999	22	[0, 0, 0]	n/a	FR1	7	R1121M
1058.864	0.007	603114	COUNTDOWN_END	n/a	n/a	n/a	-999	22	[0, 0, 0]	n/a	FR1	7	R1121M
1058.871	1.6	603117	ORIENT	n/a	n/a	n/a	-999	22	[0, 0, 0]	n/a	FR1	7	R1121M
1061.305	1.6	604334	WORD	n/a	wordpools/wordpool_EN.txt	LOCK	1	22	[0, 0, 0]	n/a	FR1	7	R1121M
1063.69	1.6	605527	WORD	n/a	wordpools/wordpool_EN.txt	VEST	2	22	[0, 0, 0]	n/a	FR1	7	R1121M
1066.239	1.6	606801	WORD	n/a	wordpools/wordpool_EN.txt	HOUSE	3	22	[0, 0, 0]	n/a	FR1	7	R1121M
1068.623	1.6	607993	WORD	n/a	wordpools/wordpool_EN.txt	ROOM	4	22	[0, 0, 0]	n/a	FR1	7	R1121M
1071.157	1.6	609260	WORD	n/a	wordpools/wordpool_EN.txt	LAMB	5	22	[0, 0, 0]	n/a	FR1	7	R1121M
1073.758	1.6	610560	WORD	n/a	wordpools/wordpool_EN.txt	ROSE	6	22	[0, 0, 0]	n/a	FR1	7	R1121M
1076.341	1.6	611852	WORD	n/a	wordpools/wordpool_EN.txt	SKY	7	22	[0, 0, 0]	n/a	FR1	7	R1121M
1078.809	1.6	613085	WORD	n/a	wordpools/wordpool_EN.txt	MUG	8	22	[0, 0, 0]	n/a	FR1	7	R1121M
1081.209	1.6	614285	WORD	n/a	wordpools/wordpool_EN.txt	WALL	9	22	[0, 0, 0]	n/a	FR1	7	R1121M
1083.826	1.6	615594	WORD	n/a	wordpools/wordpool_EN.txt	TEA	10	22	[0, 0, 0]	n/a	FR1	7	R1121M
1086.277	1.6	616819	WORD	n/a	wordpools/wordpool_EN.txt	HOOF	11	22	[0, 0, 0]	n/a	FR1	7	R1121M
1088.711	1.6	618036	WORD	n/a	wordpools/wordpool_EN.txt	BOWL	12	22	[0, 0, 0]	n/a	FR1	7	R1121M
1090.327	0.001	618844	DISTRACT_START	n/a	n/a	n/a	-999	22	[0, 0, 0]	n/a	FR1	7	R1121M
1090.328	0.016	618845	START	n/a	n/a	n/a	-999	10	[-999, -999, -999]	n/a	FR1	7	R1121M
1090.344	6.651	618853	PROB	6.625	n/a	n/a	-999	10	[7, 2, 4]	13.0	FR1	7	R1121M
1096.995	10.002	622178	PROB	9.967	n/a	n/a	-999	10	[9, 6, 5]	1.0	FR1	7	R1121M
1106.997	13.629	627178	PROB	13.629	n/a	n/a	-999	10	[6, 7, 1]	14.0	FR1	7	R1121M
1120.626	0.007	633992	STOP	n/a	n/a	n/a	-999	10	[-999, -999, -999]	n/a	FR1	7	R1121M
1120.633	1.119	633996	DISTRACT_END	n/a	n/a	n/a	-999	22	[0, 0, 0]	n/a	FR1	7	R1121M
1121.752	15.678	634555	REC_START	n/a	n/a	n/a	-999	22	[0, 0, 0]	n/a	FR1	7	R1121M
1137.43	14.333	642394	REC_WORD	15.678	n/a	WALL	-999	22	[0, 0, 0]	n/a	FR1	7	R1121M
1151.763	0.0	649560	REC_END	n/a	n/a	n/a	-999	22	[0, 0, 0]	n/a	FR1	7	R1121M
