onset	duration	sample	trial_type	response_time	stim_file	item_name	serialpos	list	test	answer	experiment	session	subject
0.0	36.833	186028	SESS_START	n/a	n/a	n/a	-999	-999	[0, 0, 0]	n/a	FR1	1	R1129D
36.833	10.0	244957	COUNTDOWN_START	n/a	n/a	n/a	-999	-999	[0, 0, 0]	n/a	FR1	1	R1129D
47.261	3.925	261640	COUNTDOWN_END	n/a	n/a	n/a	-999	-999	[0, 0, 0]	n/a	FR1	1	R1129D
51.186	1.6	267920	PRACTICE_WORD	n/a	n/a	RING	1	-1	[0, 0, 0]	n/a	FR1	1	R1129D
53.752	1.6	272025	PRACTICE_WORD	n/a	n/a	WATCH	2	-1	[0, 0, 0]	n/a	FR1	1	R1129D
56.321	1.6	276135	PRACTICE_WORD	n/a	n/a	COTTON	3	-1	[0, 0, 0]	n/a	FR1	1	R1129D
58.903	1.6	280266	PRACTICE_WORD	n/a	n/a	WAGON	4	-1	[0, 0, 0]	n/a	FR1	1	R1129D
61.488	1.6	284402	PRACTICE_WORD	n/a	n/a	RHINO	5	-1	[0, 0, 0]	n/a	FR1	1	R1129D
63.871	1.6	288215	PRACTICE_WORD	n/a	n/a	CHEST	6	-1	[0, 0, 0]	n/a	FR1	1	R1129D
66.439	1.6	292323	PRACTICE_WORD	n/a	n/a	TONGUE	7	-1	[0, 0, 0]	n/a	FR1	1	R1129D
69.056	1.6	296510	PRACTICE_WORD	n/a	n/a	ATTIC	8	-1	[0, 0, 0]	n/a	FR1	1	R1129D
71.557	1.6	300511	PRACTICE_WORD	n/a	n/a	BEAM	9	-1	[0, 0, 0]	n/a	FR1	1	R1129D
74.174	1.6	304698	PRACTICE_WORD	n/a	n/a	CAMEL	10	-1	[0, 0, 0]	n/a	FR1	1	R1129D
76.558	1.6	308512	PRACTICE_WORD	n/a	n/a	IRON	11	-1	[0, 0, 0]	n/a	FR1	1	R1129D
78.974	1.6	312378	PRACTICE_WORD	n/a	n/a	FLOOD	12	-1	[0, 0, 0]	n/a	FR1	1	R1129D
80.575	0.0	314939	PRACTICE_DISTRACT_START	n/a	n/a	n/a	-999	-1	[0, 0, 0]	n/a	FR1	1	R1129D
80.575	0.017	314939	START	n/a	n/a	n/a	-999	-1	[-999, -999, -999]	n/a	FR1	1	R1129D
80.592	18.636	314966	PROB	18.606	n/a	n/a	-999	-1	[7, 7, 6]	20.0	FR1	1	R1129D
99.228	42.385	344782	PROB	42.385	n/a	n/a	-999	-1	[7, 9, 6]	22.0	FR1	1	R1129D
141.613	0.006	412594	STOP	n/a	n/a	n/a	-999	-1	[-999, -999, -999]	n/a	FR1	1	R1129D
141.619	0.536	412603	PRACTICE_DISTRACT_END	n/a	n/a	n/a	-999	-1	[0, 0, 0]	n/a	FR1	1	R1129D
142.155	30.515	413461	PRACTICE_REC_START	n/a	n/a	n/a	-999	-1	[0, 0, 0]	n/a	FR1	1	R1129D
172.67	9.239	462281	PRACTICE_REC_END	n/a	n/a	n/a	-999	-1	[0, 0, 0]	n/a	FR1	1	R1129D
181.909	0.0	477063	TRIAL	n/a	n/a	n/a	-999	1	[0, 0, 0]	n/a	FR1	1	R1129D
181.909	10.0	477063	COUNTDOWN_START	n/a	n/a	n/a	-999	1	[0, 0, 0]	n/a	FR1	1	R1129D
192.337	0.008	493747	COUNTDOWN_END	n/a	n/a	n/a	-999	1	[0, 0, 0]	n/a	FR1	1	R1129D
192.345	1.6	493759	ORIENT	n/a	n/a	n/a	-999	1	[0, 0, 0]	n/a	FR1	1	R1129D
194.945	1.6	497919	WORD	n/a	wordpools/wordpool_EN.txt	COW	1	1	[0, 0, 0]	n/a	FR1	1	R1129D
197.33	1.6	501735	WORD	n/a	wordpools/wordpool_EN.txt	STAR	2	1	[0, 0, 0]	n/a	FR1	1	R1129D
199.912	1.6	505866	WORD	n/a	wordpools/wordpool_EN.txt	HOUSE	3	1	[0, 0, 0]	n/a	FR1	1	R1129D
202.43	1.6	509894	WORD	n/a	wordpools/wordpool_EN.txt	DRESS	4	1	[0, 0, 0]	n/a	FR1	1	R1129D
204.813	1.6	513707	WORD	n/a	wordpools/wordpool_EN.txt	BRIDGE	5	1	[0, 0, 0]	n/a	FR1	1	R1129D
207.281	1.6	517655	WORD	n/a	wordpools/wordpool_EN.txt	GATE	6	1	[0, 0, 0]	n/a	FR1	1	R1129D
209.714	1.6	521548	WORD	n/a	wordpools/wordpool_EN.txt	STONE	7	1	[0, 0, 0]	n/a	FR1	1	R1129D
212.149	1.6	525444	WORD	n/a	wordpools/wordpool_EN.txt	FOX	8	1	[0, 0, 0]	n/a	FR1	1	R1129D
214.549	1.6	529283	WORD	n/a	wordpools/wordpool_EN.txt	TIE	9	1	[0, 0, 0]	n/a	FR1	1	R1129D
216.966	1.6	533150	WORD	n/a	wordpools/wordpool_EN.txt	SKY	10	1	[0, 0, 0]	n/a	FR1	1	R1129D
219.6	1.6	537365	WORD	n/a	wordpools/wordpool_EN.txt	PEA	11	1	[0, 0, 0]	n/a	FR1	1	R1129D
222.051	1.6	541286	WORD	n/a	wordpools/wordpool_EN.txt	HILL	12	1	[0, 0, 0]	n/a	FR1	1	R1129D
223.668	0.001	543873	DISTRACT_START	n/a	n/a	n/a	-999	1	[0, 0, 0]	n/a	FR1	1	R1129D
223.669	0.014	543875	START	n/a	n/a	n/a	-999	1	[-999, -999, -999]	n/a	FR1	1	R1129D
223.683	33.618	543897	PROB	33.618	n/a	n/a	-999	1	[2, 5, 7]	14.0	FR1	1	R1129D
257.301	0.006	597682	STOP	n/a	n/a	n/a	-999	1	[-999, -999, -999]	n/a	FR1	1	R1129D
257.307	1.055	597692	DISTRACT_END	n/a	n/a	n/a	-999	1	[0, 0, 0]	n/a	FR1	1	R1129D
258.362	3.518	599380	REC_START	n/a	n/a	n/a	-999	1	[0, 0, 0]	n/a	FR1	1	R1129D
261.88	5.402	605008	REC_WORD	3.518	n/a	FOX	-999	1	[0, 0, 0]	n/a	FR1	1	R1129D
267.282	1.607	613651	REC_WORD	8.92	n/a	SKY	-999	1	[0, 0, 0]	n/a	FR1	1	R1129D
268.889	9.039	616222	REC_WORD	10.527	n/a	BRIDGE	-999	1	[0, 0, 0]	n/a	FR1	1	R1129D
277.928	7.023	630683	REC_WORD	19.566	n/a	PEA	-999	1	[0, 0, 0]	n/a	FR1	1	R1129D
284.951	3.417	641919	REC_WORD	26.589	n/a	HILL	-999	1	[0, 0, 0]	n/a	FR1	1	R1129D
288.368	7.595	647386	REC_END	n/a	n/a	n/a	-999	1	[0, 0, 0]	n/a	FR1	1	R1129D
295.963	0.0	659537	TRIAL	n/a	n/a	n/a	-999	2	[0, 0, 0]	n/a	FR1	1	R1129D
295.963	10.0	659537	COUNTDOWN_START	n/a	n/a	n/a	-999	2	[0, 0, 0]	n/a	FR1	1	R1129D
306.391	0.008	676221	COUNTDOWN_END	n/a	n/a	n/a	-999	2	[0, 0, 0]	n/a	FR1	1	R1129D
306.399	1.6	676234	ORIENT	n/a	n/a	n/a	-999	2	[0, 0, 0]	n/a	FR1	1	R1129D
308.815	1.6	680099	WORD	n/a	wordpools/wordpool_EN.txt	GUARD	1	2	[0, 0, 0]	n/a	FR1	1	R1129D
311.233	1.6	683968	WORD	n/a	wordpools/wordpool_EN.txt	FENCE	2	2	[0, 0, 0]	n/a	FR1	1	R1129D
313.667	1.6	687862	WORD	n/a	wordpools/wordpool_EN.txt	DOLL	3	2	[0, 0, 0]	n/a	FR1	1	R1129D
316.268	1.6	692023	WORD	n/a	wordpools/wordpool_EN.txt	BAT	4	2	[0, 0, 0]	n/a	FR1	1	R1129D
318.817	1.6	696101	WORD	n/a	wordpools/wordpool_EN.txt	LEG	5	2	[0, 0, 0]	n/a	FR1	1	R1129D
321.269	1.6	700024	WORD	n/a	wordpools/wordpool_EN.txt	HORN	6	2	[0, 0, 0]	n/a	FR1	1	R1129D
323.685	1.6	703890	WORD	n/a	wordpools/wordpool_EN.txt	OAR	7	2	[0, 0, 0]	n/a	FR1	1	R1129D
326.186	1.6	707891	WORD	n/a	wordpools/wordpool_EN.txt	FOOT	8	2	[0, 0, 0]	n/a	FR1	1	R1129D
328.587	1.6	711732	WORD	n/a	wordpools/wordpool_EN.txt	BOY	9	2	[0, 0, 0]	n/a	FR1	1	R1129D
331.121	1.6	715786	WORD	n/a	wordpools/wordpool_EN.txt	SOCK	10	2	[0, 0, 0]	n/a	FR1	1	R1129D
333.604	1.6	719759	WORD	n/a	wordpools/wordpool_EN.txt	LOCK	11	2	[0, 0, 0]	n/a	FR1	1	R1129D
336.221	1.6	723946	WORD	n/a	wordpools/wordpool_EN.txt	PEN	12	2	[0, 0, 0]	n/a	FR1	1	R1129D
337.837	0.001	726531	DISTRACT_START	n/a	n/a	n/a	-999	2	[0, 0, 0]	n/a	FR1	1	R1129D
337.838	0.016	726533	START	n/a	n/a	n/a	-999	2	[-999, -999, -999]	n/a	FR1	1	R1129D
337.854	32.894	726559	PROB	32.894	n/a	n/a	-999	2	[9, 8, 9]	25.0	FR1	1	R1129D
370.748	0.012	779185	STOP	n/a	n/a	n/a	-999	2	[-999, -999, -999]	n/a	FR1	1	R1129D
370.76	1.236	779205	DISTRACT_END	n/a	n/a	n/a	-999	2	[0, 0, 0]	n/a	FR1	1	R1129D
371.996	2.266	781182	REC_START	n/a	n/a	n/a	-999	2	[0, 0, 0]	n/a	FR1	1	R1129D
374.262	4.83	784807	REC_WORD	2.266	n/a	FOX	-999	2	[0, 0, 0]	n/a	FR1	1	R1129D
379.092	1.484	792535	REC_WORD	7.096	n/a	DOLL	-999	2	[0, 0, 0]	n/a	FR1	1	R1129D
380.576	2.721	794909	REC_WORD	8.58	n/a	LEG	-999	2	[0, 0, 0]	n/a	FR1	1	R1129D
383.297	2.339	799263	REC_WORD_VV	11.301	n/a	<>	-999	2	[0, 0, 0]	n/a	FR1	1	R1129D
385.636	16.37	803005	REC_WORD	13.64	n/a	BOY	-999	2	[0, 0, 0]	n/a	FR1	1	R1129D
402.006	30.166	829195	REC_END	n/a	n/a	n/a	-999	2	[0, 0, 0]	n/a	FR1	1	R1129D
432.172	0.0	877457	TRIAL	n/a	n/a	n/a	-999	3	[0, 0, 0]	n/a	FR1	1	R1129D
432.172	10.0	877457	COUNTDOWN_START	n/a	n/a	n/a	-999	3	[0, 0, 0]	n/a	FR1	1	R1129D
442.6	0.007	894141	COUNTDOWN_END	n/a	n/a	n/a	-999	3	[0, 0, 0]	n/a	FR1	1	R1129D
442.607	1.6	894152	ORIENT	n/a	n/a	n/a	-999	3	[0, 0, 0]	n/a	FR1	1	R1129D
445.208	1.6	898314	WORD	n/a	wordpools/wordpool_EN.txt	NEST	1	3	[0, 0, 0]	n/a	FR1	1	R1129D
447.807	1.6	902472	WORD	n/a	wordpools/wordpool_EN.txt	CAKE	2	3	[0, 0, 0]	n/a	FR1	1	R1129D
450.359	1.6	906555	WORD	n/a	wordpools/wordpool_EN.txt	CHEEK	3	3	[0, 0, 0]	n/a	FR1	1	R1129D
452.858	1.6	910553	WORD	n/a	wordpools/wordpool_EN.txt	FACE	4	3	[0, 0, 0]	n/a	FR1	1	R1129D
455.426	1.6	914661	WORD	n/a	wordpools/wordpool_EN.txt	FORK	5	3	[0, 0, 0]	n/a	FR1	1	R1129D
457.926	1.6	918661	WORD	n/a	wordpools/wordpool_EN.txt	CUP	6	3	[0, 0, 0]	n/a	FR1	1	R1129D
460.327	1.6	922502	WORD	n/a	wordpools/wordpool_EN.txt	MOOSE	7	3	[0, 0, 0]	n/a	FR1	1	R1129D
462.91	1.6	926635	WORD	n/a	wordpools/wordpool_EN.txt	AXE	8	3	[0, 0, 0]	n/a	FR1	1	R1129D
465.395	1.6	930611	WORD	n/a	wordpools/wordpool_EN.txt	TOAST	9	3	[0, 0, 0]	n/a	FR1	1	R1129D
467.944	1.6	934689	WORD	n/a	wordpools/wordpool_EN.txt	HEN	10	3	[0, 0, 0]	n/a	FR1	1	R1129D
470.529	1.6	938825	WORD	n/a	wordpools/wordpool_EN.txt	FRUIT	11	3	[0, 0, 0]	n/a	FR1	1	R1129D
472.912	1.6	942637	WORD	n/a	wordpools/wordpool_EN.txt	PALM	12	3	[0, 0, 0]	n/a	FR1	1	R1129D
474.53	0.001	945226	DISTRACT_START	n/a	n/a	n/a	-999	3	[0, 0, 0]	n/a	FR1	1	R1129D
474.531	0.015	945227	START	n/a	n/a	n/a	-999	3	[-999, -999, -999]	n/a	FR1	1	R1129D
474.546	31.402	945251	PROB	31.402	n/a	n/a	-999	3	[5, 6, 6]	17.0	FR1	1	R1129D
505.948	0.02	995491	STOP	n/a	n/a	n/a	-999	3	[-999, -999, -999]	n/a	FR1	1	R1129D
505.968	1.052	995523	DISTRACT_END	n/a	n/a	n/a	-999	3	[0, 0, 0]	n/a	FR1	1	R1129D
507.02	1.45	997206	REC_START	n/a	n/a	n/a	-999	3	[0, 0, 0]	n/a	FR1	1	R1129D
508.47	1.215	999526	REC_WORD	1.45	n/a	HEN	-999	3	[0, 0, 0]	n/a	FR1	1	R1129D
509.685	1.972	1001470	REC_WORD	2.665	n/a	FENCE	-999	3	[0, 0, 0]	n/a	FR1	1	R1129D
511.657	8.17	1004625	REC_WORD	4.637	n/a	FOX	-999	3	[0, 0, 0]	n/a	FR1	1	R1129D
519.827	17.203	1017696	REC_WORD	12.807	n/a	FORK	-999	3	[0, 0, 0]	n/a	FR1	1	R1129D
537.03	6.129	1045219	REC_END	n/a	n/a	n/a	-999	3	[0, 0, 0]	n/a	FR1	1	R1129D
543.159	0.0	1055025	TRIAL	n/a	n/a	n/a	-999	4	[0, 0, 0]	n/a	FR1	1	R1129D
543.159	10.0	1055025	COUNTDOWN_START	n/a	n/a	n/a	-999	4	[0, 0, 0]	n/a	FR1	1	R1129D
553.587	0.007	1071709	COUNTDOWN_END	n/a	n/a	n/a	-999	4	[0, 0, 0]	n/a	FR1	1	R1129D
553.594	1.6	1071720	ORIENT	n/a	n/a	n/a	-999	4	[0, 0, 0]	n/a	FR1	1	R1129D
556.161	1.6	1075827	WORD	n/a	wordpools/wordpool_EN.txt	NOSE	1	4	[0, 0, 0]	n/a	FR1	1	R1129D
558.628	1.6	1079774	WORD	n/a	wordpools/wordpool_EN.txt	TAIL	2	4	[0, 0, 0]	n/a	FR1	1	R1129D
561.112	1.6	1083748	WORD	n/a	wordpools/wordpool_EN.txt	PIT	3	4	[0, 0, 0]	n/a	FR1	1	R1129D
563.496	1.6	1087562	WORD	n/a	wordpools/wordpool_EN.txt	PRINCE	4	4	[0, 0, 0]	n/a	FR1	1	R1129D
565.945	1.6	1091480	WORD	n/a	wordpools/wordpool_EN.txt	MOUSE	5	4	[0, 0, 0]	n/a	FR1	1	R1129D
568.397	1.6	1095403	WORD	n/a	wordpools/wordpool_EN.txt	SHIELD	6	4	[0, 0, 0]	n/a	FR1	1	R1129D
570.83	1.6	1099296	WORD	n/a	wordpools/wordpool_EN.txt	ARM	7	4	[0, 0, 0]	n/a	FR1	1	R1129D
573.364	1.6	1103350	WORD	n/a	wordpools/wordpool_EN.txt	TOE	8	4	[0, 0, 0]	n/a	FR1	1	R1129D
575.764	1.6	1107189	WORD	n/a	wordpools/wordpool_EN.txt	WALL	9	4	[0, 0, 0]	n/a	FR1	1	R1129D
578.299	1.6	1111245	WORD	n/a	wordpools/wordpool_EN.txt	SPEAR	10	4	[0, 0, 0]	n/a	FR1	1	R1129D
580.881	1.6	1115376	WORD	n/a	wordpools/wordpool_EN.txt	HOOF	11	4	[0, 0, 0]	n/a	FR1	1	R1129D
583.416	1.6	1119432	WORD	n/a	wordpools/wordpool_EN.txt	LAWN	12	4	[0, 0, 0]	n/a	FR1	1	R1129D
585.033	0.001	1122019	DISTRACT_START	n/a	n/a	n/a	-999	4	[0, 0, 0]	n/a	FR1	1	R1129D
585.034	0.016	1122021	START	n/a	n/a	n/a	-999	4	[-999, -999, -999]	n/a	FR1	1	R1129D
585.05	21.963	1122046	PROB	21.963	n/a	n/a	-999	4	[2, 1, 9]	12.0	FR1	1	R1129D
607.013	0.008	1157185	STOP	n/a	n/a	n/a	-999	4	[-999, -999, -999]	n/a	FR1	1	R1129D
607.021	1.184	1157197	DISTRACT_END	n/a	n/a	n/a	-999	4	[0, 0, 0]	n/a	FR1	1	R1129D
608.205	3.14	1159092	REC_START	n/a	n/a	n/a	-999	4	[0, 0, 0]	n/a	FR1	1	R1129D
611.345	11.678	1164115	REC_WORD	3.14	n/a	MOUSE	-999	4	[0, 0, 0]	n/a	FR1	1	R1129D
623.023	4.512	1182799	REC_WORD	14.818	n/a	LAWN	-999	4	[0, 0, 0]	n/a	FR1	1	R1129D
627.535	10.68	1190018	REC_WORD	19.33	n/a	LOAN	-999	4	[0, 0, 0]	n/a	FR1	1	R1129D
638.215	10.947	1207105	REC_END	n/a	n/a	n/a	-999	4	[0, 0, 0]	n/a	FR1	1	R1129D
649.162	0.0	1224619	TRIAL	n/a	n/a	n/a	-999	5	[0, 0, 0]	n/a	FR1	1	R1129D
649.162	10.0	1224619	COUNTDOWN_START	n/a	n/a	n/a	-999	5	[0, 0, 0]	n/a	FR1	1	R1129D
659.59	0.007	1241302	COUNTDOWN_END	n/a	n/a	n/a	-999	5	[0, 0, 0]	n/a	FR1	1	R1129D
659.597	1.6	1241313	ORIENT	n/a	n/a	n/a	-999	5	[0, 0, 0]	n/a	FR1	1	R1129D
662.164	1.6	1245420	WORD	n/a	wordpools/wordpool_EN.txt	CLAY	1	5	[0, 0, 0]	n/a	FR1	1	R1129D
664.713	1.6	1249499	WORD	n/a	wordpools/wordpool_EN.txt	INK	2	5	[0, 0, 0]	n/a	FR1	1	R1129D
667.198	1.6	1253474	WORD	n/a	wordpools/wordpool_EN.txt	CHIN	3	5	[0, 0, 0]	n/a	FR1	1	R1129D
669.698	1.6	1257474	WORD	n/a	wordpools/wordpool_EN.txt	BANK	4	5	[0, 0, 0]	n/a	FR1	1	R1129D
672.266	1.6	1261583	WORD	n/a	wordpools/wordpool_EN.txt	PEACH	5	5	[0, 0, 0]	n/a	FR1	1	R1129D
674.899	1.6	1265795	WORD	n/a	wordpools/wordpool_EN.txt	STOOL	6	5	[0, 0, 0]	n/a	FR1	1	R1129D
677.517	1.6	1269984	WORD	n/a	wordpools/wordpool_EN.txt	BENCH	7	5	[0, 0, 0]	n/a	FR1	1	R1129D
679.983	1.6	1273929	WORD	n/a	wordpools/wordpool_EN.txt	THREAD	8	5	[0, 0, 0]	n/a	FR1	1	R1129D
682.567	1.6	1278063	WORD	n/a	wordpools/wordpool_EN.txt	LAMP	9	5	[0, 0, 0]	n/a	FR1	1	R1129D
685.051	1.6	1282037	WORD	n/a	wordpools/wordpool_EN.txt	SOAP	10	5	[0, 0, 0]	n/a	FR1	1	R1129D
687.635	1.6	1286171	WORD	n/a	wordpools/wordpool_EN.txt	FLUTE	11	5	[0, 0, 0]	n/a	FR1	1	R1129D
690.252	1.6	1290358	WORD	n/a	wordpools/wordpool_EN.txt	PASTE	12	5	[0, 0, 0]	n/a	FR1	1	R1129D
691.868	0.001	1292944	DISTRACT_START	n/a	n/a	n/a	-999	5	[0, 0, 0]	n/a	FR1	1	R1129D
691.869	0.016	1292945	START	n/a	n/a	n/a	-999	5	[-999, -999, -999]	n/a	FR1	1	R1129D
691.885	43.753	1292971	PROB	43.753	n/a	n/a	-999	5	[8, 4, 9]	21.0	FR1	1	R1129D
735.638	0.006	1362971	STOP	n/a	n/a	n/a	-999	5	[-999, -999, -999]	n/a	FR1	1	R1129D
735.644	1.2	1362981	DISTRACT_END	n/a	n/a	n/a	-999	5	[0, 0, 0]	n/a	FR1	1	R1129D
736.844	3.176	1364901	REC_START	n/a	n/a	n/a	-999	5	[0, 0, 0]	n/a	FR1	1	R1129D
740.02	26.834	1369982	REC_WORD	3.176	n/a	PASTE	-999	5	[0, 0, 0]	n/a	FR1	1	R1129D
766.854	5.146	1412913	REC_END	n/a	n/a	n/a	-999	5	[0, 0, 0]	n/a	FR1	1	R1129D
772.0	10.0	1421146	COUNTDOWN_START	n/a	n/a	n/a	-999	6	[0, 0, 0]	n/a	FR1	1	R1129D
772.001	10.427	1421148	TRIAL	n/a	n/a	n/a	-999	6	[0, 0, 0]	n/a	FR1	1	R1129D
782.428	0.008	1437830	COUNTDOWN_END	n/a	n/a	n/a	-999	6	[0, 0, 0]	n/a	FR1	1	R1129D
782.436	1.6	1437843	ORIENT	n/a	n/a	n/a	-999	6	[0, 0, 0]	n/a	FR1	1	R1129D
785.019	1.6	1441975	WORD	n/a	wordpools/wordpool_EN.txt	POND	1	6	[0, 0, 0]	n/a	FR1	1	R1129D
787.553	1.6	1446030	WORD	n/a	wordpools/wordpool_EN.txt	STRAW	2	6	[0, 0, 0]	n/a	FR1	1	R1129D
789.952	1.6	1449868	WORD	n/a	wordpools/wordpool_EN.txt	SLUSH	3	6	[0, 0, 0]	n/a	FR1	1	R1129D
792.488	1.6	1453925	WORD	n/a	wordpools/wordpool_EN.txt	CAGE	4	6	[0, 0, 0]	n/a	FR1	1	R1129D
794.954	1.6	1457870	WORD	n/a	wordpools/wordpool_EN.txt	VASE	5	6	[0, 0, 0]	n/a	FR1	1	R1129D
797.422	1.6	1461819	WORD	n/a	wordpools/wordpool_EN.txt	SINK	6	6	[0, 0, 0]	n/a	FR1	1	R1129D
799.954	1.6	1465870	WORD	n/a	wordpools/wordpool_EN.txt	JAR	7	6	[0, 0, 0]	n/a	FR1	1	R1129D
802.556	1.6	1470033	WORD	n/a	wordpools/wordpool_EN.txt	SEAL	8	6	[0, 0, 0]	n/a	FR1	1	R1129D
804.939	1.6	1473845	WORD	n/a	wordpools/wordpool_EN.txt	GEESE	9	6	[0, 0, 0]	n/a	FR1	1	R1129D
807.54	1.6	1478007	WORD	n/a	wordpools/wordpool_EN.txt	HAT	10	6	[0, 0, 0]	n/a	FR1	1	R1129D
810.057	1.6	1482034	WORD	n/a	wordpools/wordpool_EN.txt	BOX	11	6	[0, 0, 0]	n/a	FR1	1	R1129D
812.508	1.6	1485955	WORD	n/a	wordpools/wordpool_EN.txt	PET	12	6	[0, 0, 0]	n/a	FR1	1	R1129D
814.125	0.001	1488542	DISTRACT_START	n/a	n/a	n/a	-999	6	[0, 0, 0]	n/a	FR1	1	R1129D
814.126	0.016	1488544	START	n/a	n/a	n/a	-999	6	[-999, -999, -999]	n/a	FR1	1	R1129D
814.142	26.047	1488569	PROB	26.047	n/a	n/a	-999	6	[9, 8, 9]	26.0	FR1	1	R1129D
840.189	0.007	1530242	STOP	n/a	n/a	n/a	-999	6	[-999, -999, -999]	n/a	FR1	1	R1129D
840.196	1.068	1530253	DISTRACT_END	n/a	n/a	n/a	-999	6	[0, 0, 0]	n/a	FR1	1	R1129D
841.264	3.554	1531962	REC_START	n/a	n/a	n/a	-999	6	[0, 0, 0]	n/a	FR1	1	R1129D
844.818	4.07	1537648	REC_WORD	3.554	n/a	GEESE	-999	6	[0, 0, 0]	n/a	FR1	1	R1129D
848.888	5.472	1544159	REC_WORD	7.624	n/a	STRAW	-999	6	[0, 0, 0]	n/a	FR1	1	R1129D
854.36	3.897	1552914	REC_WORD	13.096	n/a	JAR	-999	6	[0, 0, 0]	n/a	FR1	1	R1129D
858.257	13.017	1559149	REC_WORD	16.993	n/a	VASE	-999	6	[0, 0, 0]	n/a	FR1	1	R1129D
871.274	8.079	1579974	REC_END	n/a	n/a	n/a	-999	6	[0, 0, 0]	n/a	FR1	1	R1129D
879.353	10.0	1592900	COUNTDOWN_START	n/a	n/a	n/a	-999	7	[0, 0, 0]	n/a	FR1	1	R1129D
879.354	10.427	1592902	TRIAL	n/a	n/a	n/a	-999	7	[0, 0, 0]	n/a	FR1	1	R1129D
889.781	0.007	1609584	COUNTDOWN_END	n/a	n/a	n/a	-999	7	[0, 0, 0]	n/a	FR1	1	R1129D
889.788	1.6	1609595	ORIENT	n/a	n/a	n/a	-999	7	[0, 0, 0]	n/a	FR1	1	R1129D
892.355	1.6	1613702	WORD	n/a	wordpools/wordpool_EN.txt	SLEEVE	1	7	[0, 0, 0]	n/a	FR1	1	R1129D
894.788	1.6	1617594	WORD	n/a	wordpools/wordpool_EN.txt	DITCH	2	7	[0, 0, 0]	n/a	FR1	1	R1129D
897.206	1.6	1621463	WORD	n/a	wordpools/wordpool_EN.txt	VINE	3	7	[0, 0, 0]	n/a	FR1	1	R1129D
899.723	1.6	1625490	WORD	n/a	wordpools/wordpool_EN.txt	BUSH	4	7	[0, 0, 0]	n/a	FR1	1	R1129D
902.291	1.6	1629598	WORD	n/a	wordpools/wordpool_EN.txt	SNAIL	5	7	[0, 0, 0]	n/a	FR1	1	R1129D
904.89	1.6	1633756	WORD	n/a	wordpools/wordpool_EN.txt	WHEEL	6	7	[0, 0, 0]	n/a	FR1	1	R1129D
907.375	1.6	1637732	WORD	n/a	wordpools/wordpool_EN.txt	BIRD	7	7	[0, 0, 0]	n/a	FR1	1	R1129D
909.991	1.6	1641918	WORD	n/a	wordpools/wordpool_EN.txt	EAR	8	7	[0, 0, 0]	n/a	FR1	1	R1129D
912.526	1.6	1645973	WORD	n/a	wordpools/wordpool_EN.txt	SWAMP	9	7	[0, 0, 0]	n/a	FR1	1	R1129D
915.01	1.6	1649947	WORD	n/a	wordpools/wordpool_EN.txt	HOLE	10	7	[0, 0, 0]	n/a	FR1	1	R1129D
917.494	1.6	1653922	WORD	n/a	wordpools/wordpool_EN.txt	EEL	11	7	[0, 0, 0]	n/a	FR1	1	R1129D
919.893	1.6	1657760	WORD	n/a	wordpools/wordpool_EN.txt	CRANE	12	7	[0, 0, 0]	n/a	FR1	1	R1129D
921.494	0.001	1660321	DISTRACT_START	n/a	n/a	n/a	-999	7	[0, 0, 0]	n/a	FR1	1	R1129D
921.495	0.016	1660323	START	n/a	n/a	n/a	-999	7	[-999, -999, -999]	n/a	FR1	1	R1129D
921.511	40.702	1660348	PROB	40.702	n/a	n/a	-999	7	[8, 2, 6]	16.0	FR1	1	R1129D
962.213	0.005	1725467	STOP	n/a	n/a	n/a	-999	7	[-999, -999, -999]	n/a	FR1	1	R1129D
962.218	1.151	1725475	DISTRACT_END	n/a	n/a	n/a	-999	7	[0, 0, 0]	n/a	FR1	1	R1129D
963.369	2.751	1727317	REC_START	n/a	n/a	n/a	-999	7	[0, 0, 0]	n/a	FR1	1	R1129D
966.12	10.749	1731718	REC_WORD	2.751	n/a	BEE	-999	7	[0, 0, 0]	n/a	FR1	1	R1129D
976.869	3.326	1748915	REC_WORD	13.5	n/a	BRIER	-999	7	[0, 0, 0]	n/a	FR1	1	R1129D
980.195	1.268	1754237	REC_WORD_VV	16.826	n/a	<>	-999	7	[0, 0, 0]	n/a	FR1	1	R1129D
981.463	11.918	1756265	REC_WORD	18.094	n/a	BUSH	-999	7	[0, 0, 0]	n/a	FR1	1	R1129D
993.381	8.427	1775333	REC_END	n/a	n/a	n/a	-999	7	[0, 0, 0]	n/a	FR1	1	R1129D
1001.808	0.0	1788815	TRIAL	n/a	n/a	n/a	-999	8	[0, 0, 0]	n/a	FR1	1	R1129D
1001.808	10.0	1788815	COUNTDOWN_START	n/a	n/a	n/a	-999	8	[0, 0, 0]	n/a	FR1	1	R1129D
1012.236	0.008	1805499	COUNTDOWN_END	n/a	n/a	n/a	-999	8	[0, 0, 0]	n/a	FR1	1	R1129D
1012.244	1.6	1805512	ORIENT	n/a	n/a	n/a	-999	8	[0, 0, 0]	n/a	FR1	1	R1129D
1014.86	1.6	1809697	WORD	n/a	wordpools/wordpool_EN.txt	WOLF	1	8	[0, 0, 0]	n/a	FR1	1	R1129D
1017.412	1.6	1813780	WORD	n/a	wordpools/wordpool_EN.txt	SHEEP	2	8	[0, 0, 0]	n/a	FR1	1	R1129D
1019.845	1.6	1817672	WORD	n/a	wordpools/wordpool_EN.txt	RUG	3	8	[0, 0, 0]	n/a	FR1	1	R1129D
1022.346	1.6	1821674	WORD	n/a	wordpools/wordpool_EN.txt	SPARK	4	8	[0, 0, 0]	n/a	FR1	1	R1129D
1024.745	1.6	1825512	WORD	n/a	wordpools/wordpool_EN.txt	SUN	5	8	[0, 0, 0]	n/a	FR1	1	R1129D
1027.247	1.6	1829515	WORD	n/a	wordpools/wordpool_EN.txt	CONE	6	8	[0, 0, 0]	n/a	FR1	1	R1129D
1029.796	1.6	1833593	WORD	n/a	wordpools/wordpool_EN.txt	ICE	7	8	[0, 0, 0]	n/a	FR1	1	R1129D
1032.214	1.6	1837461	WORD	n/a	wordpools/wordpool_EN.txt	WHALE	8	8	[0, 0, 0]	n/a	FR1	1	R1129D
1034.681	1.6	1841408	WORD	n/a	wordpools/wordpool_EN.txt	NAIL	9	8	[0, 0, 0]	n/a	FR1	1	R1129D
1037.132	1.6	1845330	WORD	n/a	wordpools/wordpool_EN.txt	CLIFF	10	8	[0, 0, 0]	n/a	FR1	1	R1129D
1039.649	1.6	1849357	WORD	n/a	wordpools/wordpool_EN.txt	JEEP	11	8	[0, 0, 0]	n/a	FR1	1	R1129D
1042.116	1.6	1853304	WORD	n/a	wordpools/wordpool_EN.txt	CROW	12	8	[0, 0, 0]	n/a	FR1	1	R1129D
1043.732	0.001	1855889	DISTRACT_START	n/a	n/a	n/a	-999	8	[0, 0, 0]	n/a	FR1	1	R1129D
1043.733	0.016	1855891	START	n/a	n/a	n/a	-999	8	[-999, -999, -999]	n/a	FR1	1	R1129D
1043.749	26.191	1855916	PROB	26.191	n/a	n/a	-999	8	[2, 1, 7]	10.0	FR1	1	R1129D
1069.94	0.014	1897819	STOP	n/a	n/a	n/a	-999	8	[-999, -999, -999]	n/a	FR1	1	R1129D
1069.954	1.085	1897841	DISTRACT_END	n/a	n/a	n/a	-999	8	[0, 0, 0]	n/a	FR1	1	R1129D
1071.039	1.595	1899577	REC_START	n/a	n/a	n/a	-999	8	[0, 0, 0]	n/a	FR1	1	R1129D
1072.634	2.031	1902129	REC_WORD	1.595	n/a	NAIL	-999	8	[0, 0, 0]	n/a	FR1	1	R1129D
1074.665	26.384	1905379	REC_WORD	3.626	n/a	WHALE	-999	8	[0, 0, 0]	n/a	FR1	1	R1129D
1101.049	7.695	1947590	REC_END	n/a	n/a	n/a	-999	8	[0, 0, 0]	n/a	FR1	1	R1129D
1108.744	10.0	1959901	COUNTDOWN_START	n/a	n/a	n/a	-999	9	[0, 0, 0]	n/a	FR1	1	R1129D
1108.744	10.428	1959901	TRIAL	n/a	n/a	n/a	-999	9	[0, 0, 0]	n/a	FR1	1	R1129D
1119.172	0.008	1976585	COUNTDOWN_END	n/a	n/a	n/a	-999	9	[0, 0, 0]	n/a	FR1	1	R1129D
1119.18	1.6	1976598	ORIENT	n/a	n/a	n/a	-999	9	[0, 0, 0]	n/a	FR1	1	R1129D
1121.647	1.6	1980545	WORD	n/a	wordpools/wordpool_EN.txt	TANK	1	9	[0, 0, 0]	n/a	FR1	1	R1129D
1124.114	1.6	1984492	WORD	n/a	wordpools/wordpool_EN.txt	HOSE	2	9	[0, 0, 0]	n/a	FR1	1	R1129D
1126.548	1.6	1988386	WORD	n/a	wordpools/wordpool_EN.txt	BOMB	3	9	[0, 0, 0]	n/a	FR1	1	R1129D
1128.948	1.6	1992226	WORD	n/a	wordpools/wordpool_EN.txt	COIN	4	9	[0, 0, 0]	n/a	FR1	1	R1129D
1131.399	1.6	1996147	WORD	n/a	wordpools/wordpool_EN.txt	PLANE	5	9	[0, 0, 0]	n/a	FR1	1	R1129D
1133.949	1.6	2000227	WORD	n/a	wordpools/wordpool_EN.txt	BRICK	6	9	[0, 0, 0]	n/a	FR1	1	R1129D
1136.367	1.6	2004095	WORD	n/a	wordpools/wordpool_EN.txt	PLATE	7	9	[0, 0, 0]	n/a	FR1	1	R1129D
1138.9	1.6	2008148	WORD	n/a	wordpools/wordpool_EN.txt	SQUARE	8	9	[0, 0, 0]	n/a	FR1	1	R1129D
1141.418	1.6	2012176	WORD	n/a	wordpools/wordpool_EN.txt	MOON	9	9	[0, 0, 0]	n/a	FR1	1	R1129D
1143.967	1.6	2016254	WORD	n/a	wordpools/wordpool_EN.txt	SHEET	10	9	[0, 0, 0]	n/a	FR1	1	R1129D
1146.519	1.6	2020337	WORD	n/a	wordpools/wordpool_EN.txt	ARK	11	9	[0, 0, 0]	n/a	FR1	1	R1129D
1149.119	1.6	2024497	WORD	n/a	wordpools/wordpool_EN.txt	TRAIN	12	9	[0, 0, 0]	n/a	FR1	1	R1129D
1150.735	0.001	2027083	DISTRACT_START	n/a	n/a	n/a	-999	9	[0, 0, 0]	n/a	FR1	1	R1129D
1150.736	0.016	2027084	START	n/a	n/a	n/a	-999	9	[-999, -999, -999]	n/a	FR1	1	R1129D
1150.752	58.021	2027110	PROB	58.021	n/a	n/a	-999	9	[1, 4, 4]	9.0	FR1	1	R1129D
1208.773	0.006	2119937	STOP	n/a	n/a	n/a	-999	9	[-999, -999, -999]	n/a	FR1	1	R1129D
1208.779	1.084	2119947	DISTRACT_END	n/a	n/a	n/a	-999	9	[0, 0, 0]	n/a	FR1	1	R1129D
1209.863	2.818	2121681	REC_START	n/a	n/a	n/a	-999	9	[0, 0, 0]	n/a	FR1	1	R1129D
1212.681	1.625	2126190	REC_WORD	2.818	n/a	BRICK	-999	9	[0, 0, 0]	n/a	FR1	1	R1129D
1214.306	5.526	2128789	REC_WORD	4.443	n/a	BRIDGE	-999	9	[0, 0, 0]	n/a	FR1	1	R1129D
1219.832	20.041	2137631	REC_WORD	9.969	n/a	MOON	-999	9	[0, 0, 0]	n/a	FR1	1	R1129D
1239.873	6.879	2169694	REC_END	n/a	n/a	n/a	-999	9	[0, 0, 0]	n/a	FR1	1	R1129D
1246.752	10.0	2180700	COUNTDOWN_START	n/a	n/a	n/a	-999	10	[0, 0, 0]	n/a	FR1	1	R1129D
1246.753	10.427	2180701	TRIAL	n/a	n/a	n/a	-999	10	[0, 0, 0]	n/a	FR1	1	R1129D
1257.18	0.009	2197383	COUNTDOWN_END	n/a	n/a	n/a	-999	10	[0, 0, 0]	n/a	FR1	1	R1129D
1257.189	1.6	2197398	ORIENT	n/a	n/a	n/a	-999	10	[0, 0, 0]	n/a	FR1	1	R1129D
1259.772	1.6	2201530	WORD	n/a	wordpools/wordpool_EN.txt	GLOVE	1	10	[0, 0, 0]	n/a	FR1	1	R1129D
1262.323	1.6	2205612	WORD	n/a	wordpools/wordpool_EN.txt	PIPE	2	10	[0, 0, 0]	n/a	FR1	1	R1129D
1264.756	1.6	2209504	WORD	n/a	wordpools/wordpool_EN.txt	FAN	3	10	[0, 0, 0]	n/a	FR1	1	R1129D
1267.374	1.6	2213693	WORD	n/a	wordpools/wordpool_EN.txt	PURSE	4	10	[0, 0, 0]	n/a	FR1	1	R1129D
1269.823	1.6	2217611	WORD	n/a	wordpools/wordpool_EN.txt	BAND	5	10	[0, 0, 0]	n/a	FR1	1	R1129D
1272.292	1.6	2221561	WORD	n/a	wordpools/wordpool_EN.txt	PIN	6	10	[0, 0, 0]	n/a	FR1	1	R1129D
1274.908	1.6	2225746	WORD	n/a	wordpools/wordpool_EN.txt	WAND	7	10	[0, 0, 0]	n/a	FR1	1	R1129D
1277.509	1.6	2229908	WORD	n/a	wordpools/wordpool_EN.txt	TOOL	8	10	[0, 0, 0]	n/a	FR1	1	R1129D
1279.958	1.6	2233826	WORD	n/a	wordpools/wordpool_EN.txt	THUMB	9	10	[0, 0, 0]	n/a	FR1	1	R1129D
1282.56	1.6	2237989	WORD	n/a	wordpools/wordpool_EN.txt	YARD	10	10	[0, 0, 0]	n/a	FR1	1	R1129D
1285.11	1.6	2242068	WORD	n/a	wordpools/wordpool_EN.txt	VEST	11	10	[0, 0, 0]	n/a	FR1	1	R1129D
1287.561	1.6	2245990	WORD	n/a	wordpools/wordpool_EN.txt	DESK	12	10	[0, 0, 0]	n/a	FR1	1	R1129D
1289.178	0.001	2248577	DISTRACT_START	n/a	n/a	n/a	-999	10	[0, 0, 0]	n/a	FR1	1	R1129D
1289.179	0.016	2248578	START	n/a	n/a	n/a	-999	10	[-999, -999, -999]	n/a	FR1	1	R1129D
1289.195	19.994	2248604	PROB	19.994	n/a	n/a	-999	10	[2, 4, 4]	9.0	FR1	1	R1129D
1309.189	0.009	2280592	STOP	n/a	n/a	n/a	-999	10	[-999, -999, -999]	n/a	FR1	1	R1129D
1309.198	1.201	2280607	DISTRACT_END	n/a	n/a	n/a	-999	10	[0, 0, 0]	n/a	FR1	1	R1129D
1310.399	1.94	2282528	REC_START	n/a	n/a	n/a	-999	10	[0, 0, 0]	n/a	FR1	1	R1129D
1312.339	28.07	2285632	REC_WORD	1.94	n/a	WAND	-999	10	[0, 0, 0]	n/a	FR1	1	R1129D
1340.409	6.278	2330541	REC_END	n/a	n/a	n/a	-999	10	[0, 0, 0]	n/a	FR1	1	R1129D
1346.687	10.0	2340585	COUNTDOWN_START	n/a	n/a	n/a	-999	11	[0, 0, 0]	n/a	FR1	1	R1129D
1346.688	10.427	2340587	TRIAL	n/a	n/a	n/a	-999	11	[0, 0, 0]	n/a	FR1	1	R1129D
1357.115	0.009	2357269	COUNTDOWN_END	n/a	n/a	n/a	-999	11	[0, 0, 0]	n/a	FR1	1	R1129D
1357.124	1.6	2357283	ORIENT	n/a	n/a	n/a	-999	11	[0, 0, 0]	n/a	FR1	1	R1129D
1359.574	1.6	2361203	WORD	n/a	wordpools/wordpool_EN.txt	ROPE	1	11	[0, 0, 0]	n/a	FR1	1	R1129D
1362.024	1.6	2365123	WORD	n/a	wordpools/wordpool_EN.txt	DUCK	2	11	[0, 0, 0]	n/a	FR1	1	R1129D
1364.508	1.6	2369097	WORD	n/a	wordpools/wordpool_EN.txt	SNAKE	3	11	[0, 0, 0]	n/a	FR1	1	R1129D
1366.991	1.6	2373069	WORD	n/a	wordpools/wordpool_EN.txt	TENT	4	11	[0, 0, 0]	n/a	FR1	1	R1129D
1369.476	1.6	2377045	WORD	n/a	wordpools/wordpool_EN.txt	MAZE	5	11	[0, 0, 0]	n/a	FR1	1	R1129D
1371.875	1.6	2380883	WORD	n/a	wordpools/wordpool_EN.txt	HAWK	6	11	[0, 0, 0]	n/a	FR1	1	R1129D
1374.393	1.6	2384912	WORD	n/a	wordpools/wordpool_EN.txt	WEED	7	11	[0, 0, 0]	n/a	FR1	1	R1129D
1376.876	1.6	2388884	WORD	n/a	wordpools/wordpool_EN.txt	OWL	8	11	[0, 0, 0]	n/a	FR1	1	R1129D
1379.328	1.6	2392807	WORD	n/a	wordpools/wordpool_EN.txt	DEER	9	11	[0, 0, 0]	n/a	FR1	1	R1129D
1381.827	1.6	2396805	WORD	n/a	wordpools/wordpool_EN.txt	BROOM	10	11	[0, 0, 0]	n/a	FR1	1	R1129D
1384.312	1.6	2400781	WORD	n/a	wordpools/wordpool_EN.txt	ROAD	11	11	[0, 0, 0]	n/a	FR1	1	R1129D
1386.711	1.6	2404619	WORD	n/a	wordpools/wordpool_EN.txt	DOCK	12	11	[0, 0, 0]	n/a	FR1	1	R1129D
1388.312	0.001	2407181	DISTRACT_START	n/a	n/a	n/a	-999	11	[0, 0, 0]	n/a	FR1	1	R1129D
1388.313	0.016	2407182	START	n/a	n/a	n/a	-999	11	[-999, -999, -999]	n/a	FR1	1	R1129D
1388.329	35.828	2407208	PROB	35.828	n/a	n/a	-999	11	[5, 5, 5]	25.0	FR1	1	R1129D
1424.157	0.012	2464529	STOP	n/a	n/a	n/a	-999	11	[-999, -999, -999]	n/a	FR1	1	R1129D
1424.169	1.184	2464548	DISTRACT_END	n/a	n/a	n/a	-999	11	[0, 0, 0]	n/a	FR1	1	R1129D
1425.353	1.666	2466442	REC_START	n/a	n/a	n/a	-999	11	[0, 0, 0]	n/a	FR1	1	R1129D
1427.019	2.423	2469108	REC_WORD	1.666	n/a	BROOM	-999	11	[0, 0, 0]	n/a	FR1	1	R1129D
1429.442	1.94	2472984	REC_WORD	4.089	n/a	DUCK	-999	11	[0, 0, 0]	n/a	FR1	1	R1129D
1431.382	12.867	2476088	REC_WORD	6.029	n/a	DUST	-999	11	[0, 0, 0]	n/a	FR1	1	R1129D
1444.249	9.513	2496674	REC_WORD	18.896	n/a	GEESE	-999	11	[0, 0, 0]	n/a	FR1	1	R1129D
1453.762	1.605	2511894	REC_WORD	28.409	n/a	PAN	-999	11	[0, 0, 0]	n/a	FR1	1	R1129D
1455.367	45.116	2514462	REC_END	n/a	n/a	n/a	-999	11	[0, 0, 0]	n/a	FR1	1	R1129D
1500.483	0.0	2586643	TRIAL	n/a	n/a	n/a	-999	12	[0, 0, 0]	n/a	FR1	1	R1129D
1500.483	10.0	2586643	COUNTDOWN_START	n/a	n/a	n/a	-999	12	[0, 0, 0]	n/a	FR1	1	R1129D
