onset	duration	sample	trial_type	response_time	stim_file	item_name	serialpos	list	test	answer	experiment	session	subject
0.0	8.115	1746	INSTRUCT_START	n/a	n/a	n/a	-999	-999	[0, 0, 0]	n/a	FR1	1	R1354E
8.115	2.368	9861	INSTRUCT_END	n/a	n/a	n/a	-999	-999	[0, 0, 0]	n/a	FR1	1	R1354E
10.483	7.749	12229	MIC TEST_START	n/a	n/a	n/a	-999	-999	[0, 0, 0]	n/a	FR1	1	R1354E
18.232	0.009	19977	MIC TEST_END	n/a	n/a	n/a	-999	-999	[0, 0, 0]	n/a	FR1	1	R1354E
18.241	0.0	19986	TRIAL_START	n/a	n/a	n/a	-999	-1	[0, 0, 0]	n/a	FR1	1	R1354E
18.241	0.001	19986	TRIAL	n/a	n/a	n/a	-999	-1	[0, 0, 0]	n/a	FR1	1	R1354E
18.242	12.76	19987	WAITING_START	n/a	n/a	n/a	-999	-1	[0, 0, 0]	n/a	FR1	1	R1354E
31.002	10.0	32747	COUNTDOWN_START	n/a	n/a	n/a	-999	-1	[0, 0, 0]	n/a	FR1	1	R1354E
31.002	10.429	32747	WAITING_END	n/a	n/a	n/a	-999	-1	[0, 0, 0]	n/a	FR1	1	R1354E
41.431	0.0	43176	COUNTDOWN_END	n/a	n/a	n/a	-999	-1	[0, 0, 0]	n/a	FR1	1	R1354E
41.431	1.24	43176	ORIENT_START	n/a	n/a	n/a	-999	-1	[0, 0, 0]	n/a	FR1	1	R1354E
42.671	0.001	44415	ORIENT_END	n/a	n/a	n/a	-999	-1	[0, 0, 0]	n/a	FR1	1	R1354E
42.672	0.892	44416	ENCODING_START	n/a	n/a	n/a	-999	-1	[0, 0, 0]	n/a	FR1	1	R1354E
43.564	1.6	45308	WORD	n/a	n/a	RING	1	-1	[0, 0, 0]	n/a	FR1	1	R1354E
45.188	0.927	46932	WORD_OFF	n/a	n/a	RING	1	-1	[0, 0, 0]	n/a	FR1	1	R1354E
46.115	1.6	47859	WORD	n/a	n/a	WAGON	2	-1	[0, 0, 0]	n/a	FR1	1	R1354E
47.739	0.992	49483	WORD_OFF	n/a	n/a	WAGON	2	-1	[0, 0, 0]	n/a	FR1	1	R1354E
48.731	1.6	50475	WORD	n/a	n/a	TONGUE	3	-1	[0, 0, 0]	n/a	FR1	1	R1354E
50.355	0.83	52099	WORD_OFF	n/a	n/a	TONGUE	3	-1	[0, 0, 0]	n/a	FR1	1	R1354E
51.185	1.6	52929	WORD	n/a	n/a	BEAM	4	-1	[0, 0, 0]	n/a	FR1	1	R1354E
52.822	0.914	54566	WORD_OFF	n/a	n/a	BEAM	4	-1	[0, 0, 0]	n/a	FR1	1	R1354E
53.736	1.6	55480	WORD	n/a	n/a	IMAGE	5	-1	[0, 0, 0]	n/a	FR1	1	R1354E
55.356	1.035	57100	WORD_OFF	n/a	n/a	IMAGE	5	-1	[0, 0, 0]	n/a	FR1	1	R1354E
56.391	1.6	58135	WORD	n/a	n/a	CAMEL	6	-1	[0, 0, 0]	n/a	FR1	1	R1354E
58.023	0.956	59767	WORD_OFF	n/a	n/a	CAMEL	6	-1	[0, 0, 0]	n/a	FR1	1	R1354E
58.979	1.6	60723	WORD	n/a	n/a	COTTON	7	-1	[0, 0, 0]	n/a	FR1	1	R1354E
60.608	0.937	62352	WORD_OFF	n/a	n/a	COTTON	7	-1	[0, 0, 0]	n/a	FR1	1	R1354E
61.545	1.6	63289	WORD	n/a	n/a	FLOOD	8	-1	[0, 0, 0]	n/a	FR1	1	R1354E
63.174	0.795	64918	WORD_OFF	n/a	n/a	FLOOD	8	-1	[0, 0, 0]	n/a	FR1	1	R1354E
63.969	1.6	65713	WORD	n/a	n/a	RHINO	9	-1	[0, 0, 0]	n/a	FR1	1	R1354E
65.592	0.93	67336	WORD_OFF	n/a	n/a	RHINO	9	-1	[0, 0, 0]	n/a	FR1	1	R1354E
66.522	1.6	68266	WORD	n/a	n/a	BABY	10	-1	[0, 0, 0]	n/a	FR1	1	R1354E
68.158	0.93	69902	WORD_OFF	n/a	n/a	BABY	10	-1	[0, 0, 0]	n/a	FR1	1	R1354E
69.088	1.6	70832	WORD	n/a	n/a	CHEST	11	-1	[0, 0, 0]	n/a	FR1	1	R1354E
70.693	0.989	72436	WORD_OFF	n/a	n/a	CHEST	11	-1	[0, 0, 0]	n/a	FR1	1	R1354E
71.682	1.6	73425	WORD	n/a	n/a	WATCH	12	-1	[0, 0, 0]	n/a	FR1	1	R1354E
73.309	0.001	75052	WORD_OFF	n/a	n/a	WATCH	12	-1	[0, 0, 0]	n/a	FR1	1	R1354E
73.31	0.0	75053	ENCODING_END	n/a	n/a	n/a	-999	-1	[0, 0, 0]	n/a	FR1	1	R1354E
73.31	0.0	75053	DISTRACT_START	n/a	n/a	n/a	-999	-1	[0, 0, 0]	n/a	FR1	1	R1354E
73.31	0.016	75053	START	n/a	n/a	n/a	-999	-1	[-999, -999, -999]	n/a	FR1	1	R1354E
73.326	1.717	75069	PROB	1.678	n/a	n/a	-999	-1	[7, 6, 1]	14.0	FR1	1	R1354E
75.043	1.384	76786	PROB	1.355	n/a	n/a	-999	-1	[2, 6, 2]	10.0	FR1	1	R1354E
76.427	1.783	78170	PROB	1.746	n/a	n/a	-999	-1	[7, 6, 4]	17.0	FR1	1	R1354E
78.21	2.984	79953	PROB	2.955	n/a	n/a	-999	-1	[8, 4, 7]	17.0	FR1	1	R1354E
81.194	1.85	82937	PROB	1.826	n/a	n/a	-999	-1	[9, 4, 5]	18.0	FR1	1	R1354E
83.044	1.668	84787	PROB	1.634	n/a	n/a	-999	-1	[8, 1, 9]	18.0	FR1	1	R1354E
84.712	1.349	86455	PROB	1.324	n/a	n/a	-999	-1	[1, 7, 2]	10.0	FR1	1	R1354E
86.061	1.685	87804	PROB	1.656	n/a	n/a	-999	-1	[3, 2, 2]	7.0	FR1	1	R1354E
87.746	1.266	89489	PROB	1.235	n/a	n/a	-999	-1	[9, 1, 1]	11.0	FR1	1	R1354E
89.012	0.983	90755	PROB	0.961	n/a	n/a	-999	-1	[6, 4, 1]	11.0	FR1	1	R1354E
89.995	1.167	91738	PROB	1.13	n/a	n/a	-999	-1	[1, 6, 5]	12.0	FR1	1	R1354E
91.162	2.228	92905	PROB	2.228	n/a	n/a	-999	-1	[4, 4, 6]	14.0	FR1	1	R1354E
93.39	0.007	95133	STOP	n/a	n/a	n/a	-999	-1	[-999, -999, -999]	n/a	FR1	1	R1354E
93.397	0.535	95140	DISTRACT_END	n/a	n/a	n/a	-999	-1	[0, 0, 0]	n/a	FR1	1	R1354E
93.932	1.6	95675	RETRIEVAL_ORIENT_START	n/a	n/a	n/a	-999	-1	[0, 0, 0]	n/a	FR1	1	R1354E
95.631	0.0	97374	RETRIEVAL_ORIENT_END	n/a	n/a	n/a	-999	-1	[0, 0, 0]	n/a	FR1	1	R1354E
95.631	0.0	97374	REC_START	n/a	n/a	n/a	-999	-1	[0, 0, 0]	n/a	FR1	1	R1354E
95.631	0.841	97374	REC_WORD	0.0	n/a	COTTON	-999	-1	[0, 0, 0]	n/a	FR1	1	R1354E
96.472	1.041	98215	REC_WORD	0.841	n/a	IMAGE	-999	-1	[0, 0, 0]	n/a	FR1	1	R1354E
97.513	28.127	99256	REC_WORD	1.882	n/a	RUG	-999	-1	[0, 0, 0]	n/a	FR1	1	R1354E
125.64	0.0	127382	REC_END	n/a	n/a	n/a	-999	-1	[0, 0, 0]	n/a	FR1	1	R1354E
125.64	2.28	127382	PRACTICE_POST_INSTRUCT_START	n/a	n/a	n/a	-999	-1	[0, 0, 0]	n/a	FR1	1	R1354E
127.92	0.0	129661	PRACTICE_POST_INSTRUCT_END	n/a	n/a	n/a	-999	-1	[0, 0, 0]	n/a	FR1	1	R1354E
127.92	0.02	129661	TRIAL_END	n/a	n/a	n/a	-999	-1	[0, 0, 0]	n/a	FR1	1	R1354E
127.94	0.001	129681	TRIAL_START	n/a	n/a	n/a	-999	1	[0, 0, 0]	n/a	FR1	1	R1354E
127.941	0.0	129682	TRIAL	n/a	n/a	n/a	-999	1	[0, 0, 0]	n/a	FR1	1	R1354E
127.941	0.779	129682	WAITING_START	n/a	n/a	n/a	-999	1	[0, 0, 0]	n/a	FR1	1	R1354E
128.72	10.0	130461	COUNTDOWN_START	n/a	n/a	n/a	-999	1	[0, 0, 0]	n/a	FR1	1	R1354E
128.72	10.429	130461	WAITING_END	n/a	n/a	n/a	-999	1	[0, 0, 0]	n/a	FR1	1	R1354E
139.149	0.0	140890	COUNTDOWN_END	n/a	n/a	n/a	-999	1	[0, 0, 0]	n/a	FR1	1	R1354E
139.149	1.072	140890	ORIENT_START	n/a	n/a	n/a	-999	1	[0, 0, 0]	n/a	FR1	1	R1354E
140.221	0.0	141962	ORIENT_END	n/a	n/a	n/a	-999	1	[0, 0, 0]	n/a	FR1	1	R1354E
140.221	0.975	141962	ENCODING_START	n/a	n/a	n/a	-999	1	[0, 0, 0]	n/a	FR1	1	R1354E
141.196	1.6	142937	WORD	n/a	wordpools/wordpool_EN.txt	CLAY	1	1	[0, 0, 0]	n/a	FR1	1	R1354E
142.821	1.105	144562	WORD_OFF	n/a	n/a	CLAY	1	1	[0, 0, 0]	n/a	FR1	1	R1354E
143.926	1.6	145667	WORD	n/a	wordpools/wordpool_EN.txt	STEAK	2	1	[0, 0, 0]	n/a	FR1	1	R1354E
145.556	1.132	147297	WORD_OFF	n/a	n/a	STEAK	2	1	[0, 0, 0]	n/a	FR1	1	R1354E
146.688	1.6	148429	WORD	n/a	wordpools/wordpool_EN.txt	STOOL	3	1	[0, 0, 0]	n/a	FR1	1	R1354E
148.322	1.084	150063	WORD_OFF	n/a	n/a	STOOL	3	1	[0, 0, 0]	n/a	FR1	1	R1354E
149.406	1.6	151147	WORD	n/a	wordpools/wordpool_EN.txt	WHALE	4	1	[0, 0, 0]	n/a	FR1	1	R1354E
151.039	0.791	152780	WORD_OFF	n/a	n/a	WHALE	4	1	[0, 0, 0]	n/a	FR1	1	R1354E
151.83	1.6	153571	WORD	n/a	wordpools/wordpool_EN.txt	EEL	5	1	[0, 0, 0]	n/a	FR1	1	R1354E
153.457	1.14	155198	WORD_OFF	n/a	n/a	EEL	5	1	[0, 0, 0]	n/a	FR1	1	R1354E
154.597	1.6	156337	WORD	n/a	wordpools/wordpool_EN.txt	CAGE	6	1	[0, 0, 0]	n/a	FR1	1	R1354E
156.224	1.095	157964	WORD_OFF	n/a	n/a	CAGE	6	1	[0, 0, 0]	n/a	FR1	1	R1354E
157.319	1.6	159059	WORD	n/a	wordpools/wordpool_EN.txt	FOX	7	1	[0, 0, 0]	n/a	FR1	1	R1354E
158.941	0.944	160681	WORD_OFF	n/a	n/a	FOX	7	1	[0, 0, 0]	n/a	FR1	1	R1354E
159.885	1.6	161625	WORD	n/a	wordpools/wordpool_EN.txt	PHONE	8	1	[0, 0, 0]	n/a	FR1	1	R1354E
161.509	0.932	163249	WORD_OFF	n/a	n/a	PHONE	8	1	[0, 0, 0]	n/a	FR1	1	R1354E
162.441	1.6	164181	WORD	n/a	wordpools/wordpool_EN.txt	SAIL	9	1	[0, 0, 0]	n/a	FR1	1	R1354E
164.075	1.147	165815	WORD_OFF	n/a	n/a	SAIL	9	1	[0, 0, 0]	n/a	FR1	1	R1354E
165.222	1.6	166962	WORD	n/a	wordpools/wordpool_EN.txt	CHIN	10	1	[0, 0, 0]	n/a	FR1	1	R1354E
166.842	1.017	168582	WORD_OFF	n/a	n/a	CHIN	10	1	[0, 0, 0]	n/a	FR1	1	R1354E
167.859	1.6	169599	WORD	n/a	wordpools/wordpool_EN.txt	FISH	11	1	[0, 0, 0]	n/a	FR1	1	R1354E
169.494	0.751	171234	WORD_OFF	n/a	n/a	FISH	11	1	[0, 0, 0]	n/a	FR1	1	R1354E
170.245	1.6	171985	WORD	n/a	wordpools/wordpool_EN.txt	SHIRT	12	1	[0, 0, 0]	n/a	FR1	1	R1354E
171.876	0.001	173616	WORD_OFF	n/a	n/a	SHIRT	12	1	[0, 0, 0]	n/a	FR1	1	R1354E
171.877	0.0	173617	ENCODING_END	n/a	n/a	n/a	-999	1	[0, 0, 0]	n/a	FR1	1	R1354E
171.877	0.0	173617	DISTRACT_START	n/a	n/a	n/a	-999	1	[0, 0, 0]	n/a	FR1	1	R1354E
171.877	0.016	173617	START	n/a	n/a	n/a	-999	1	[-999, -999, -999]	n/a	FR1	1	R1354E
171.893	1.834	173633	PROB	1.805	n/a	n/a	-999	1	[7, 8, 2]	17.0	FR1	1	R1354E
173.727	1.55	175467	PROB	1.522	n/a	n/a	-999	1	[7, 5, 5]	17.0	FR1	1	R1354E
175.277	1.05	177017	PROB	1.019	n/a	n/a	-999	1	[1, 6, 6]	13.0	FR1	1	R1354E
176.327	1.633	178067	PROB	1.601	n/a	n/a	-999	1	[9, 4, 3]	16.0	FR1	1	R1354E
177.96	1.652	179700	PROB	1.617	n/a	n/a	-999	1	[1, 3, 5]	9.0	FR1	1	R1354E
179.612	1.749	181352	PROB	1.717	n/a	n/a	-999	1	[5, 7, 3]	15.0	FR1	1	R1354E
181.361	1.784	183101	PROB	1.76	n/a	n/a	-999	1	[6, 7, 2]	15.0	FR1	1	R1354E
183.145	1.584	184884	PROB	1.553	n/a	n/a	-999	1	[6, 5, 5]	16.0	FR1	1	R1354E
184.729	1.651	186468	PROB	1.623	n/a	n/a	-999	1	[7, 4, 1]	12.0	FR1	1	R1354E
186.38	2.083	188119	PROB	2.054	n/a	n/a	-999	1	[7, 8, 8]	23.0	FR1	1	R1354E
188.463	1.8	190202	PROB	1.762	n/a	n/a	-999	1	[6, 5, 9]	20.0	FR1	1	R1354E
190.263	1.434	192002	PROB	1.411	n/a	n/a	-999	1	[3, 1, 8]	12.0	FR1	1	R1354E
191.697	1.48	193436	PROB	1.48	n/a	n/a	-999	1	[6, 9, 6]	21.0	FR1	1	R1354E
193.177	0.02	194916	STOP	n/a	n/a	n/a	-999	1	[-999, -999, -999]	n/a	FR1	1	R1354E
193.197	0.606	194936	DISTRACT_END	n/a	n/a	n/a	-999	1	[0, 0, 0]	n/a	FR1	1	R1354E
193.803	1.6	195542	RETRIEVAL_ORIENT_START	n/a	n/a	n/a	-999	1	[0, 0, 0]	n/a	FR1	1	R1354E
195.347	0.0	197086	RETRIEVAL_ORIENT_END	n/a	n/a	n/a	-999	1	[0, 0, 0]	n/a	FR1	1	R1354E
195.347	1.346	197086	REC_START	n/a	n/a	n/a	-999	1	[0, 0, 0]	n/a	FR1	1	R1354E
196.693	6.648	198432	REC_WORD	1.346	n/a	FOX	7	1	[0, 0, 0]	n/a	FR1	1	R1354E
203.341	1.57	205080	REC_WORD	7.994	n/a	SNAIL	-999	1	[0, 0, 0]	n/a	FR1	1	R1354E
204.911	4.204	206650	REC_WORD	9.564	n/a	EEL	5	1	[0, 0, 0]	n/a	FR1	1	R1354E
209.115	16.242	210854	REC_WORD	13.768	n/a	FISH	11	1	[0, 0, 0]	n/a	FR1	1	R1354E
225.357	0.0	227095	REC_END	n/a	n/a	n/a	-999	1	[0, 0, 0]	n/a	FR1	1	R1354E
225.357	0.018	227095	TRIAL_END	n/a	n/a	n/a	-999	1	[0, 0, 0]	n/a	FR1	1	R1354E
225.375	0.0	227113	TRIAL_START	n/a	n/a	n/a	-999	2	[0, 0, 0]	n/a	FR1	1	R1354E
225.375	0.0	227113	TRIAL	n/a	n/a	n/a	-999	2	[0, 0, 0]	n/a	FR1	1	R1354E
225.375	8.929	227113	WAITING_START	n/a	n/a	n/a	-999	2	[0, 0, 0]	n/a	FR1	1	R1354E
234.304	10.0	236042	COUNTDOWN_START	n/a	n/a	n/a	-999	2	[0, 0, 0]	n/a	FR1	1	R1354E
234.304	10.429	236042	WAITING_END	n/a	n/a	n/a	-999	2	[0, 0, 0]	n/a	FR1	1	R1354E
244.733	0.001	246470	COUNTDOWN_END	n/a	n/a	n/a	-999	2	[0, 0, 0]	n/a	FR1	1	R1354E
244.734	1.189	246471	ORIENT_START	n/a	n/a	n/a	-999	2	[0, 0, 0]	n/a	FR1	1	R1354E
245.923	0.0	247660	ORIENT_END	n/a	n/a	n/a	-999	2	[0, 0, 0]	n/a	FR1	1	R1354E
245.923	1.143	247660	ENCODING_START	n/a	n/a	n/a	-999	2	[0, 0, 0]	n/a	FR1	1	R1354E
247.066	1.6	248803	WORD	n/a	wordpools/wordpool_EN.txt	SHEET	1	2	[0, 0, 0]	n/a	FR1	1	R1354E
248.691	0.973	250428	WORD_OFF	n/a	n/a	SHEET	1	2	[0, 0, 0]	n/a	FR1	1	R1354E
249.664	1.6	251401	WORD	n/a	wordpools/wordpool_EN.txt	FORK	2	2	[0, 0, 0]	n/a	FR1	1	R1354E
251.29	0.765	253027	WORD_OFF	n/a	n/a	FORK	2	2	[0, 0, 0]	n/a	FR1	1	R1354E
252.055	1.6	253792	WORD	n/a	wordpools/wordpool_EN.txt	BEAR	3	2	[0, 0, 0]	n/a	FR1	1	R1354E
253.675	0.828	255412	WORD_OFF	n/a	n/a	BEAR	3	2	[0, 0, 0]	n/a	FR1	1	R1354E
254.503	1.6	256240	WORD	n/a	wordpools/wordpool_EN.txt	SHOE	4	2	[0, 0, 0]	n/a	FR1	1	R1354E
256.124	0.873	257861	WORD_OFF	n/a	n/a	SHOE	4	2	[0, 0, 0]	n/a	FR1	1	R1354E
256.997	1.6	258734	WORD	n/a	wordpools/wordpool_EN.txt	CAPE	5	2	[0, 0, 0]	n/a	FR1	1	R1354E
258.626	1.022	260363	WORD_OFF	n/a	n/a	CAPE	5	2	[0, 0, 0]	n/a	FR1	1	R1354E
259.648	1.6	261385	WORD	n/a	wordpools/wordpool_EN.txt	APE	6	2	[0, 0, 0]	n/a	FR1	1	R1354E
261.275	0.96	263012	WORD_OFF	n/a	n/a	APE	6	2	[0, 0, 0]	n/a	FR1	1	R1354E
262.235	1.6	263972	WORD	n/a	wordpools/wordpool_EN.txt	PIN	7	2	[0, 0, 0]	n/a	FR1	1	R1354E
263.859	0.856	265596	WORD_OFF	n/a	n/a	PIN	7	2	[0, 0, 0]	n/a	FR1	1	R1354E
264.715	1.6	266452	WORD	n/a	wordpools/wordpool_EN.txt	TEETH	8	2	[0, 0, 0]	n/a	FR1	1	R1354E
266.343	1.058	268079	WORD_OFF	n/a	n/a	TEETH	8	2	[0, 0, 0]	n/a	FR1	1	R1354E
267.401	1.6	269137	WORD	n/a	wordpools/wordpool_EN.txt	HOOF	9	2	[0, 0, 0]	n/a	FR1	1	R1354E
269.027	1.009	270763	WORD_OFF	n/a	n/a	HOOF	9	2	[0, 0, 0]	n/a	FR1	1	R1354E
270.036	1.6	271772	WORD	n/a	wordpools/wordpool_EN.txt	TRUCK	10	2	[0, 0, 0]	n/a	FR1	1	R1354E
271.661	0.98	273397	WORD_OFF	n/a	n/a	TRUCK	10	2	[0, 0, 0]	n/a	FR1	1	R1354E
272.641	1.6	274377	WORD	n/a	wordpools/wordpool_EN.txt	LAMB	11	2	[0, 0, 0]	n/a	FR1	1	R1354E
274.261	0.899	275997	WORD_OFF	n/a	n/a	LAMB	11	2	[0, 0, 0]	n/a	FR1	1	R1354E
275.16	1.6	276896	WORD	n/a	wordpools/wordpool_EN.txt	KEY	12	2	[0, 0, 0]	n/a	FR1	1	R1354E
276.795	0.0	278531	DISTRACT_START	n/a	n/a	n/a	-999	2	[0, 0, 0]	n/a	FR1	1	R1354E
276.795	0.0	278531	WORD_OFF	n/a	n/a	KEY	12	2	[0, 0, 0]	n/a	FR1	1	R1354E
276.795	0.0	278531	ENCODING_END	n/a	n/a	n/a	-999	2	[0, 0, 0]	n/a	FR1	1	R1354E
276.795	0.016	278531	START	n/a	n/a	n/a	-999	2	[-999, -999, -999]	n/a	FR1	1	R1354E
276.811	2.835	278547	PROB	2.8	n/a	n/a	-999	2	[9, 1, 7]	18.0	FR1	1	R1354E
279.646	1.233	281382	PROB	1.196	n/a	n/a	-999	2	[4, 4, 1]	9.0	FR1	1	R1354E
280.879	1.216	282615	PROB	1.18	n/a	n/a	-999	2	[1, 6, 3]	10.0	FR1	1	R1354E
282.095	1.435	283831	PROB	1.404	n/a	n/a	-999	2	[1, 8, 7]	16.0	FR1	1	R1354E
283.53	1.383	285266	PROB	1.344	n/a	n/a	-999	2	[1, 5, 3]	9.0	FR1	1	R1354E
284.913	1.3	286649	PROB	1.273	n/a	n/a	-999	2	[7, 4, 3]	13.0	FR1	1	R1354E
286.213	1.567	287949	PROB	1.542	n/a	n/a	-999	2	[3, 4, 8]	15.0	FR1	1	R1354E
287.78	1.167	289516	PROB	1.143	n/a	n/a	-999	2	[1, 5, 6]	12.0	FR1	1	R1354E
288.947	1.801	290683	PROB	1.777	n/a	n/a	-999	2	[7, 5, 7]	19.0	FR1	1	R1354E
290.748	0.95	292484	PROB	0.927	n/a	n/a	-999	2	[1, 1, 1]	3.0	FR1	1	R1354E
291.698	1.817	293434	PROB	1.793	n/a	n/a	-999	2	[7, 1, 8]	16.0	FR1	1	R1354E
293.515	1.95	295251	PROB	1.92	n/a	n/a	-999	2	[7, 4, 5]	16.0	FR1	1	R1354E
295.465	1.333	297200	PROB	1.305	n/a	n/a	-999	2	[3, 4, 6]	13.0	FR1	1	R1354E
296.798	1.63	298533	PROB	1.63	n/a	n/a	-999	2	[4, 4, 5]	13.0	FR1	1	R1354E
298.428	0.021	300163	STOP	n/a	n/a	n/a	-999	2	[-999, -999, -999]	n/a	FR1	1	R1354E
298.449	0.66	300184	DISTRACT_END	n/a	n/a	n/a	-999	2	[0, 0, 0]	n/a	FR1	1	R1354E
299.109	1.6	300844	RETRIEVAL_ORIENT_START	n/a	n/a	n/a	-999	2	[0, 0, 0]	n/a	FR1	1	R1354E
300.667	0.0	302402	RETRIEVAL_ORIENT_END	n/a	n/a	n/a	-999	2	[0, 0, 0]	n/a	FR1	1	R1354E
300.667	0.0	302402	REC_START	n/a	n/a	n/a	-999	2	[0, 0, 0]	n/a	FR1	1	R1354E
300.667	1.185	302402	REC_WORD	0.0	n/a	SHEET	1	2	[0, 0, 0]	n/a	FR1	1	R1354E
301.852	0.898	303587	REC_WORD	1.185	n/a	BEAR	3	2	[0, 0, 0]	n/a	FR1	1	R1354E
302.75	27.929	304485	REC_WORD	2.083	n/a	FORK	2	2	[0, 0, 0]	n/a	FR1	1	R1354E
330.679	0.0	332413	REC_END	n/a	n/a	n/a	-999	2	[0, 0, 0]	n/a	FR1	1	R1354E
330.679	0.018	332413	TRIAL_END	n/a	n/a	n/a	-999	2	[0, 0, 0]	n/a	FR1	1	R1354E
330.697	0.0	332431	TRIAL_START	n/a	n/a	n/a	-999	3	[0, 0, 0]	n/a	FR1	1	R1354E
330.697	0.0	332431	TRIAL	n/a	n/a	n/a	-999	3	[0, 0, 0]	n/a	FR1	1	R1354E
330.697	2.692	332431	WAITING_START	n/a	n/a	n/a	-999	3	[0, 0, 0]	n/a	FR1	1	R1354E
333.389	0.0	335123	WAITING_END	n/a	n/a	n/a	-999	3	[0, 0, 0]	n/a	FR1	1	R1354E
333.389	10.0	335123	COUNTDOWN_START	n/a	n/a	n/a	-999	3	[0, 0, 0]	n/a	FR1	1	R1354E
343.819	0.001	345553	COUNTDOWN_END	n/a	n/a	n/a	-999	3	[0, 0, 0]	n/a	FR1	1	R1354E
343.82	1.07	345554	ORIENT_START	n/a	n/a	n/a	-999	3	[0, 0, 0]	n/a	FR1	1	R1354E
344.89	0.0	346624	ENCODING_START	n/a	n/a	n/a	-999	3	[0, 0, 0]	n/a	FR1	1	R1354E
344.89	0.833	346624	ORIENT_END	n/a	n/a	n/a	-999	3	[0, 0, 0]	n/a	FR1	1	R1354E
345.723	1.6	347457	WORD	n/a	wordpools/wordpool_EN.txt	ARK	1	3	[0, 0, 0]	n/a	FR1	1	R1354E
347.357	0.788	349091	WORD_OFF	n/a	n/a	ARK	1	3	[0, 0, 0]	n/a	FR1	1	R1354E
348.145	1.6	349879	WORD	n/a	wordpools/wordpool_EN.txt	GOLD	2	3	[0, 0, 0]	n/a	FR1	1	R1354E
349.774	0.802	351508	WORD_OFF	n/a	n/a	GOLD	2	3	[0, 0, 0]	n/a	FR1	1	R1354E
350.576	1.6	352309	WORD	n/a	wordpools/wordpool_EN.txt	TOOL	3	3	[0, 0, 0]	n/a	FR1	1	R1354E
352.208	1.055	353941	WORD_OFF	n/a	n/a	TOOL	3	3	[0, 0, 0]	n/a	FR1	1	R1354E
353.263	1.6	354996	WORD	n/a	wordpools/wordpool_EN.txt	MOUSE	4	3	[0, 0, 0]	n/a	FR1	1	R1354E
354.892	1.024	356625	WORD_OFF	n/a	n/a	MOUSE	4	3	[0, 0, 0]	n/a	FR1	1	R1354E
355.916	1.6	357649	WORD	n/a	wordpools/wordpool_EN.txt	CORN	5	3	[0, 0, 0]	n/a	FR1	1	R1354E
357.543	1.051	359276	WORD_OFF	n/a	n/a	CORN	5	3	[0, 0, 0]	n/a	FR1	1	R1354E
358.594	1.6	360327	WORD	n/a	wordpools/wordpool_EN.txt	MULE	6	3	[0, 0, 0]	n/a	FR1	1	R1354E
360.226	0.841	361959	WORD_OFF	n/a	n/a	MULE	6	3	[0, 0, 0]	n/a	FR1	1	R1354E
361.067	1.6	362800	WORD	n/a	wordpools/wordpool_EN.txt	CLOWN	7	3	[0, 0, 0]	n/a	FR1	1	R1354E
362.694	0.752	364427	WORD_OFF	n/a	n/a	CLOWN	7	3	[0, 0, 0]	n/a	FR1	1	R1354E
363.446	1.6	365179	WORD	n/a	wordpools/wordpool_EN.txt	EGG	8	3	[0, 0, 0]	n/a	FR1	1	R1354E
365.077	0.862	366810	WORD_OFF	n/a	n/a	EGG	8	3	[0, 0, 0]	n/a	FR1	1	R1354E
365.939	1.6	367672	WORD	n/a	wordpools/wordpool_EN.txt	TRAIN	9	3	[0, 0, 0]	n/a	FR1	1	R1354E
367.562	1.088	369295	WORD_OFF	n/a	n/a	TRAIN	9	3	[0, 0, 0]	n/a	FR1	1	R1354E
368.65	1.6	370383	WORD	n/a	wordpools/wordpool_EN.txt	HEN	10	3	[0, 0, 0]	n/a	FR1	1	R1354E
370.278	0.831	372011	WORD_OFF	n/a	n/a	HEN	10	3	[0, 0, 0]	n/a	FR1	1	R1354E
371.109	1.6	372842	WORD	n/a	wordpools/wordpool_EN.txt	BED	11	3	[0, 0, 0]	n/a	FR1	1	R1354E
372.746	1.141	374479	WORD_OFF	n/a	n/a	BED	11	3	[0, 0, 0]	n/a	FR1	1	R1354E
373.887	1.6	375620	WORD	n/a	wordpools/wordpool_EN.txt	BEE	12	3	[0, 0, 0]	n/a	FR1	1	R1354E
375.513	0.0	377246	WORD_OFF	n/a	n/a	BEE	12	3	[0, 0, 0]	n/a	FR1	1	R1354E
375.513	0.001	377246	ENCODING_END	n/a	n/a	n/a	-999	3	[0, 0, 0]	n/a	FR1	1	R1354E
375.514	0.0	377247	DISTRACT_START	n/a	n/a	n/a	-999	3	[0, 0, 0]	n/a	FR1	1	R1354E
375.514	0.015	377247	START	n/a	n/a	n/a	-999	3	[-999, -999, -999]	n/a	FR1	1	R1354E
375.529	2.583	377262	PROB	2.558	n/a	n/a	-999	3	[6, 4, 3]	13.0	FR1	1	R1354E
378.112	1.884	379845	PROB	1.855	n/a	n/a	-999	3	[3, 2, 8]	13.0	FR1	1	R1354E
379.996	1.618	381728	PROB	1.588	n/a	n/a	-999	3	[2, 4, 3]	9.0	FR1	1	R1354E
381.614	1.632	383346	PROB	1.6	n/a	n/a	-999	3	[9, 3, 2]	14.0	FR1	1	R1354E
383.246	1.468	384978	PROB	1.442	n/a	n/a	-999	3	[3, 2, 7]	12.0	FR1	1	R1354E
384.714	1.633	386446	PROB	1.596	n/a	n/a	-999	3	[4, 8, 4]	16.0	FR1	1	R1354E
386.347	1.867	388079	PROB	1.844	n/a	n/a	-999	3	[9, 3, 5]	17.0	FR1	1	R1354E
388.214	4.168	389946	PROB	4.129	n/a	n/a	-999	3	[8, 9, 7]	24.0	FR1	1	R1354E
392.382	2.334	394114	PROB	2.306	n/a	n/a	-999	3	[9, 2, 5]	16.0	FR1	1	R1354E
394.716	1.619	396448	PROB	1.619	n/a	n/a	-999	3	[3, 9, 4]	16.0	FR1	1	R1354E
396.335	0.014	398067	STOP	n/a	n/a	n/a	-999	3	[-999, -999, -999]	n/a	FR1	1	R1354E
396.349	0.595	398081	DISTRACT_END	n/a	n/a	n/a	-999	3	[0, 0, 0]	n/a	FR1	1	R1354E
396.944	1.6	398676	RETRIEVAL_ORIENT_START	n/a	n/a	n/a	-999	3	[0, 0, 0]	n/a	FR1	1	R1354E
398.5	0.001	400232	RETRIEVAL_ORIENT_END	n/a	n/a	n/a	-999	3	[0, 0, 0]	n/a	FR1	1	R1354E
398.501	0.117	400233	REC_START	n/a	n/a	n/a	-999	3	[0, 0, 0]	n/a	FR1	1	R1354E
398.618	0.728	400350	REC_WORD	0.117	n/a	BEE	12	3	[0, 0, 0]	n/a	FR1	1	R1354E
399.346	3.75	401078	REC_WORD	0.845	n/a	GOOD	-999	3	[0, 0, 0]	n/a	FR1	1	R1354E
403.096	9.612	404828	REC_WORD	4.595	n/a	MOUSE	4	3	[0, 0, 0]	n/a	FR1	1	R1354E
412.708	0.881	414439	REC_WORD	14.207	n/a	EGG	8	3	[0, 0, 0]	n/a	FR1	1	R1354E
413.589	1.955	415320	REC_WORD	15.088	n/a	HOUSE	-999	3	[0, 0, 0]	n/a	FR1	1	R1354E
415.544	12.968	417275	REC_WORD	17.043	n/a	TRAIN	9	3	[0, 0, 0]	n/a	FR1	1	R1354E
428.512	0.001	430243	REC_END	n/a	n/a	n/a	-999	3	[0, 0, 0]	n/a	FR1	1	R1354E
428.513	0.018	430244	TRIAL_END	n/a	n/a	n/a	-999	3	[0, 0, 0]	n/a	FR1	1	R1354E
428.531	0.001	430262	TRIAL_START	n/a	n/a	n/a	-999	4	[0, 0, 0]	n/a	FR1	1	R1354E
428.532	0.0	430263	TRIAL	n/a	n/a	n/a	-999	4	[0, 0, 0]	n/a	FR1	1	R1354E
428.532	10.374	430263	WAITING_START	n/a	n/a	n/a	-999	4	[0, 0, 0]	n/a	FR1	1	R1354E
438.906	0.001	440636	WAITING_END	n/a	n/a	n/a	-999	4	[0, 0, 0]	n/a	FR1	1	R1354E
438.907	10.0	440637	COUNTDOWN_START	n/a	n/a	n/a	-999	4	[0, 0, 0]	n/a	FR1	1	R1354E
449.336	0.0	451066	ORIENT_START	n/a	n/a	n/a	-999	4	[0, 0, 0]	n/a	FR1	1	R1354E
449.336	1.207	451066	COUNTDOWN_END	n/a	n/a	n/a	-999	4	[0, 0, 0]	n/a	FR1	1	R1354E
450.543	0.0	452273	ORIENT_END	n/a	n/a	n/a	-999	4	[0, 0, 0]	n/a	FR1	1	R1354E
450.543	0.757	452273	ENCODING_START	n/a	n/a	n/a	-999	4	[0, 0, 0]	n/a	FR1	1	R1354E
451.3	1.6	453030	WORD	n/a	wordpools/wordpool_EN.txt	BRANCH	1	4	[0, 0, 0]	n/a	FR1	1	R1354E
452.926	0.893	454656	WORD_OFF	n/a	n/a	BRANCH	1	4	[0, 0, 0]	n/a	FR1	1	R1354E
453.819	1.6	455549	WORD	n/a	wordpools/wordpool_EN.txt	FILM	2	4	[0, 0, 0]	n/a	FR1	1	R1354E
455.427	1.144	457157	WORD_OFF	n/a	n/a	FILM	2	4	[0, 0, 0]	n/a	FR1	1	R1354E
456.571	1.6	458301	WORD	n/a	wordpools/wordpool_EN.txt	COW	3	4	[0, 0, 0]	n/a	FR1	1	R1354E
458.193	0.798	459923	WORD_OFF	n/a	n/a	COW	3	4	[0, 0, 0]	n/a	FR1	1	R1354E
458.991	1.6	460721	WORD	n/a	wordpools/wordpool_EN.txt	CAKE	4	4	[0, 0, 0]	n/a	FR1	1	R1354E
460.628	0.828	462358	WORD_OFF	n/a	n/a	CAKE	4	4	[0, 0, 0]	n/a	FR1	1	R1354E
461.456	1.6	463186	WORD	n/a	wordpools/wordpool_EN.txt	SLEEVE	5	4	[0, 0, 0]	n/a	FR1	1	R1354E
463.077	1.126	464806	WORD_OFF	n/a	n/a	SLEEVE	5	4	[0, 0, 0]	n/a	FR1	1	R1354E
464.203	1.6	465932	WORD	n/a	wordpools/wordpool_EN.txt	HAT	6	4	[0, 0, 0]	n/a	FR1	1	R1354E
465.828	0.821	467557	WORD_OFF	n/a	n/a	HAT	6	4	[0, 0, 0]	n/a	FR1	1	R1354E
466.649	1.6	468378	WORD	n/a	wordpools/wordpool_EN.txt	LIP	7	4	[0, 0, 0]	n/a	FR1	1	R1354E
468.278	1.003	470007	WORD_OFF	n/a	n/a	LIP	7	4	[0, 0, 0]	n/a	FR1	1	R1354E
469.281	1.6	471010	WORD	n/a	wordpools/wordpool_EN.txt	COIN	8	4	[0, 0, 0]	n/a	FR1	1	R1354E
470.912	0.854	472641	WORD_OFF	n/a	n/a	COIN	8	4	[0, 0, 0]	n/a	FR1	1	R1354E
471.766	1.6	473495	WORD	n/a	wordpools/wordpool_EN.txt	PANTS	9	4	[0, 0, 0]	n/a	FR1	1	R1354E
473.397	1.12	475126	WORD_OFF	n/a	n/a	PANTS	9	4	[0, 0, 0]	n/a	FR1	1	R1354E
474.517	1.6	476246	WORD	n/a	wordpools/wordpool_EN.txt	ROOF	10	4	[0, 0, 0]	n/a	FR1	1	R1354E
476.146	0.963	477875	WORD_OFF	n/a	n/a	ROOF	10	4	[0, 0, 0]	n/a	FR1	1	R1354E
477.109	1.6	478838	WORD	n/a	wordpools/wordpool_EN.txt	TIE	11	4	[0, 0, 0]	n/a	FR1	1	R1354E
478.731	0.844	480460	WORD_OFF	n/a	n/a	TIE	11	4	[0, 0, 0]	n/a	FR1	1	R1354E
479.575	1.6	481304	WORD	n/a	wordpools/wordpool_EN.txt	STORM	12	4	[0, 0, 0]	n/a	FR1	1	R1354E
481.197	0.0	482926	WORD_OFF	n/a	n/a	STORM	12	4	[0, 0, 0]	n/a	FR1	1	R1354E
481.197	0.001	482926	ENCODING_END	n/a	n/a	n/a	-999	4	[0, 0, 0]	n/a	FR1	1	R1354E
481.198	0.0	482927	DISTRACT_START	n/a	n/a	n/a	-999	4	[0, 0, 0]	n/a	FR1	1	R1354E
481.198	0.016	482927	START	n/a	n/a	n/a	-999	4	[-999, -999, -999]	n/a	FR1	1	R1354E
481.214	2.284	482943	PROB	2.253	n/a	n/a	-999	4	[3, 9, 3]	115.0	FR1	1	R1354E
483.498	1.951	485227	PROB	1.913	n/a	n/a	-999	4	[7, 3, 1]	11.0	FR1	1	R1354E
485.449	1.499	487178	PROB	1.466	n/a	n/a	-999	4	[8, 4, 3]	15.0	FR1	1	R1354E
486.948	1.684	488677	PROB	1.647	n/a	n/a	-999	4	[7, 6, 9]	22.0	FR1	1	R1354E
488.632	1.266	490361	PROB	1.234	n/a	n/a	-999	4	[2, 2, 6]	10.0	FR1	1	R1354E
489.898	2.384	491627	PROB	2.352	n/a	n/a	-999	4	[6, 3, 7]	16.0	FR1	1	R1354E
492.282	1.667	494010	PROB	1.64	n/a	n/a	-999	4	[6, 9, 4]	19.0	FR1	1	R1354E
493.949	1.485	495677	PROB	1.447	n/a	n/a	-999	4	[1, 9, 4]	14.0	FR1	1	R1354E
495.434	1.849	497162	PROB	1.816	n/a	n/a	-999	4	[9, 5, 6]	20.0	FR1	1	R1354E
497.283	1.335	499011	PROB	1.312	n/a	n/a	-999	4	[5, 4, 5]	14.0	FR1	1	R1354E
498.618	1.883	500346	PROB	1.857	n/a	n/a	-999	4	[4, 5, 7]	16.0	FR1	1	R1354E
500.501	1.717	502229	PROB	1.717	n/a	n/a	-999	4	[9, 5, 2]	16.0	FR1	1	R1354E
502.218	0.016	503946	STOP	n/a	n/a	n/a	-999	4	[-999, -999, -999]	n/a	FR1	1	R1354E
502.234	0.701	503962	DISTRACT_END	n/a	n/a	n/a	-999	4	[0, 0, 0]	n/a	FR1	1	R1354E
502.935	1.6	504663	RETRIEVAL_ORIENT_START	n/a	n/a	n/a	-999	4	[0, 0, 0]	n/a	FR1	1	R1354E
504.602	0.001	506330	RETRIEVAL_ORIENT_END	n/a	n/a	n/a	-999	4	[0, 0, 0]	n/a	FR1	1	R1354E
504.603	2.254	506331	REC_START	n/a	n/a	n/a	-999	4	[0, 0, 0]	n/a	FR1	1	R1354E
506.857	3.505	508585	REC_WORD	2.254	n/a	LIP	7	4	[0, 0, 0]	n/a	FR1	1	R1354E
510.362	24.253	512090	REC_WORD	5.759	n/a	HOUSE	-999	4	[0, 0, 0]	n/a	FR1	1	R1354E
534.615	0.0	536342	REC_END	n/a	n/a	n/a	-999	4	[0, 0, 0]	n/a	FR1	1	R1354E
534.615	0.017	536342	TRIAL_END	n/a	n/a	n/a	-999	4	[0, 0, 0]	n/a	FR1	1	R1354E
534.632	0.001	536359	TRIAL_START	n/a	n/a	n/a	-999	5	[0, 0, 0]	n/a	FR1	1	R1354E
534.633	0.0	536360	WAITING_START	n/a	n/a	n/a	-999	5	[0, 0, 0]	n/a	FR1	1	R1354E
534.633	6.508	536360	TRIAL	n/a	n/a	n/a	-999	5	[0, 0, 0]	n/a	FR1	1	R1354E
541.141	0.0	542868	WAITING_END	n/a	n/a	n/a	-999	5	[0, 0, 0]	n/a	FR1	1	R1354E
541.141	10.0	542868	COUNTDOWN_START	n/a	n/a	n/a	-999	5	[0, 0, 0]	n/a	FR1	1	R1354E
551.571	0.0	553297	COUNTDOWN_END	n/a	n/a	n/a	-999	5	[0, 0, 0]	n/a	FR1	1	R1354E
551.571	1.222	553297	ORIENT_START	n/a	n/a	n/a	-999	5	[0, 0, 0]	n/a	FR1	1	R1354E
552.793	0.0	554519	ORIENT_END	n/a	n/a	n/a	-999	5	[0, 0, 0]	n/a	FR1	1	R1354E
552.793	0.968	554519	ENCODING_START	n/a	n/a	n/a	-999	5	[0, 0, 0]	n/a	FR1	1	R1354E
553.761	1.6	555487	WORD	n/a	wordpools/wordpool_EN.txt	LEAF	1	5	[0, 0, 0]	n/a	FR1	1	R1354E
555.377	0.809	557103	WORD_OFF	n/a	n/a	LEAF	1	5	[0, 0, 0]	n/a	FR1	1	R1354E
556.186	1.6	557912	WORD	n/a	wordpools/wordpool_EN.txt	SOAP	2	5	[0, 0, 0]	n/a	FR1	1	R1354E
557.81	0.892	559536	WORD_OFF	n/a	n/a	SOAP	2	5	[0, 0, 0]	n/a	FR1	1	R1354E
558.702	1.6	560428	WORD	n/a	wordpools/wordpool_EN.txt	WOOD	3	5	[0, 0, 0]	n/a	FR1	1	R1354E
560.328	0.794	562054	WORD_OFF	n/a	n/a	WOOD	3	5	[0, 0, 0]	n/a	FR1	1	R1354E
561.122	1.6	562848	WORD	n/a	wordpools/wordpool_EN.txt	SEA	4	5	[0, 0, 0]	n/a	FR1	1	R1354E
562.746	1.0	564472	WORD_OFF	n/a	n/a	SEA	4	5	[0, 0, 0]	n/a	FR1	1	R1354E
563.746	1.6	565472	WORD	n/a	wordpools/wordpool_EN.txt	BOARD	5	5	[0, 0, 0]	n/a	FR1	1	R1354E
565.38	1.091	567106	WORD_OFF	n/a	n/a	BOARD	5	5	[0, 0, 0]	n/a	FR1	1	R1354E
566.471	1.6	568197	WORD	n/a	wordpools/wordpool_EN.txt	CROW	6	5	[0, 0, 0]	n/a	FR1	1	R1354E
568.096	1.022	569822	WORD_OFF	n/a	n/a	CROW	6	5	[0, 0, 0]	n/a	FR1	1	R1354E
569.118	1.6	570844	WORD	n/a	wordpools/wordpool_EN.txt	TOY	7	5	[0, 0, 0]	n/a	FR1	1	R1354E
570.747	1.004	572473	WORD_OFF	n/a	n/a	TOY	7	5	[0, 0, 0]	n/a	FR1	1	R1354E
571.751	1.6	573477	WORD	n/a	wordpools/wordpool_EN.txt	LEG	8	5	[0, 0, 0]	n/a	FR1	1	R1354E
573.381	0.999	575107	WORD_OFF	n/a	n/a	LEG	8	5	[0, 0, 0]	n/a	FR1	1	R1354E
574.38	1.6	576106	WORD	n/a	wordpools/wordpool_EN.txt	SPRING	9	5	[0, 0, 0]	n/a	FR1	1	R1354E
576.014	1.013	577739	WORD_OFF	n/a	n/a	SPRING	9	5	[0, 0, 0]	n/a	FR1	1	R1354E
577.027	1.6	578752	WORD	n/a	wordpools/wordpool_EN.txt	SHRIMP	10	5	[0, 0, 0]	n/a	FR1	1	R1354E
578.665	1.048	580390	WORD_OFF	n/a	n/a	SHRIMP	10	5	[0, 0, 0]	n/a	FR1	1	R1354E
579.713	1.6	581438	WORD	n/a	wordpools/wordpool_EN.txt	SLUSH	11	5	[0, 0, 0]	n/a	FR1	1	R1354E
581.348	0.792	583073	WORD_OFF	n/a	n/a	SLUSH	11	5	[0, 0, 0]	n/a	FR1	1	R1354E
582.14	1.6	583865	WORD	n/a	wordpools/wordpool_EN.txt	HAWK	12	5	[0, 0, 0]	n/a	FR1	1	R1354E
583.749	0.001	585474	WORD_OFF	n/a	n/a	HAWK	12	5	[0, 0, 0]	n/a	FR1	1	R1354E
583.75	0.0	585475	ENCODING_END	n/a	n/a	n/a	-999	5	[0, 0, 0]	n/a	FR1	1	R1354E
583.75	0.0	585475	DISTRACT_START	n/a	n/a	n/a	-999	5	[0, 0, 0]	n/a	FR1	1	R1354E
583.75	0.015	585475	START	n/a	n/a	n/a	-999	5	[-999, -999, -999]	n/a	FR1	1	R1354E
583.765	2.017	585490	PROB	1.993	n/a	n/a	-999	5	[8, 1, 5]	14.0	FR1	1	R1354E
585.782	1.751	587507	PROB	1.729	n/a	n/a	-999	5	[5, 1, 6]	12.0	FR1	1	R1354E
587.533	1.366	589258	PROB	1.343	n/a	n/a	-999	5	[2, 4, 3]	9.0	FR1	1	R1354E
588.899	1.184	590624	PROB	1.147	n/a	n/a	-999	5	[6, 6, 2]	14.0	FR1	1	R1354E
590.083	1.983	591808	PROB	1.954	n/a	n/a	-999	5	[7, 8, 1]	16.0	FR1	1	R1354E
592.066	2.051	593791	PROB	2.019	n/a	n/a	-999	5	[7, 3, 9]	19.0	FR1	1	R1354E
594.117	1.368	595842	PROB	1.345	n/a	n/a	-999	5	[1, 2, 4]	7.0	FR1	1	R1354E
595.485	3.267	597210	PROB	3.233	n/a	n/a	-999	5	[2, 5, 4]	11.0	FR1	1	R1354E
598.752	1.733	600477	PROB	1.702	n/a	n/a	-999	5	[8, 3, 9]	20.0	FR1	1	R1354E
600.485	1.251	602210	PROB	1.217	n/a	n/a	-999	5	[5, 1, 7]	13.0	FR1	1	R1354E
601.736	1.667	603461	PROB	1.63	n/a	n/a	-999	5	[4, 3, 8]	15.0	FR1	1	R1354E
603.403	2.027	605127	PROB	2.027	n/a	n/a	-999	5	[8, 1, 2]	11.0	FR1	1	R1354E
605.43	0.006	607154	STOP	n/a	n/a	n/a	-999	5	[-999, -999, -999]	n/a	FR1	1	R1354E
605.436	0.668	607160	DISTRACT_END	n/a	n/a	n/a	-999	5	[0, 0, 0]	n/a	FR1	1	R1354E
606.104	1.6	607828	RETRIEVAL_ORIENT_START	n/a	n/a	n/a	-999	5	[0, 0, 0]	n/a	FR1	1	R1354E
607.803	0.0	609527	REC_WORD	0.0	n/a	LEAF	1	5	[0, 0, 0]	n/a	FR1	1	R1354E
607.803	0.0	609527	RETRIEVAL_ORIENT_END	n/a	n/a	n/a	-999	5	[0, 0, 0]	n/a	FR1	1	R1354E
607.803	0.845	609527	REC_START	n/a	n/a	n/a	-999	5	[0, 0, 0]	n/a	FR1	1	R1354E
608.648	1.126	610372	REC_WORD	0.845	n/a	SOAP	2	5	[0, 0, 0]	n/a	FR1	1	R1354E
609.774	1.374	611498	REC_WORD	1.971	n/a	WOOD	3	5	[0, 0, 0]	n/a	FR1	1	R1354E
611.148	0.859	612872	REC_WORD	3.345	n/a	BOARD	5	5	[0, 0, 0]	n/a	FR1	1	R1354E
612.007	1.701	613731	REC_WORD	4.204	n/a	SPRING	9	5	[0, 0, 0]	n/a	FR1	1	R1354E
613.708	1.117	615432	REC_WORD	5.905	n/a	LEG	8	5	[0, 0, 0]	n/a	FR1	1	R1354E
614.825	6.149	616549	REC_WORD	7.022	n/a	SLUSH	11	5	[0, 0, 0]	n/a	FR1	1	R1354E
620.974	16.838	622698	REC_WORD	13.171	n/a	TOY	7	5	[0, 0, 0]	n/a	FR1	1	R1354E
637.812	0.001	639535	REC_END	n/a	n/a	n/a	-999	5	[0, 0, 0]	n/a	FR1	1	R1354E
637.813	0.016	639536	TRIAL_END	n/a	n/a	n/a	-999	5	[0, 0, 0]	n/a	FR1	1	R1354E
637.829	0.001	639552	TRIAL_START	n/a	n/a	n/a	-999	6	[0, 0, 0]	n/a	FR1	1	R1354E
637.83	0.0	639553	TRIAL	n/a	n/a	n/a	-999	6	[0, 0, 0]	n/a	FR1	1	R1354E
637.83	7.63	639553	WAITING_START	n/a	n/a	n/a	-999	6	[0, 0, 0]	n/a	FR1	1	R1354E
645.46	0.001	647183	WAITING_END	n/a	n/a	n/a	-999	6	[0, 0, 0]	n/a	FR1	1	R1354E
645.461	10.0	647184	COUNTDOWN_START	n/a	n/a	n/a	-999	6	[0, 0, 0]	n/a	FR1	1	R1354E
655.89	0.0	657613	ORIENT_START	n/a	n/a	n/a	-999	6	[0, 0, 0]	n/a	FR1	1	R1354E
655.89	1.038	657613	COUNTDOWN_END	n/a	n/a	n/a	-999	6	[0, 0, 0]	n/a	FR1	1	R1354E
656.928	0.0	658651	ORIENT_END	n/a	n/a	n/a	-999	6	[0, 0, 0]	n/a	FR1	1	R1354E
656.928	0.807	658651	ENCODING_START	n/a	n/a	n/a	-999	6	[0, 0, 0]	n/a	FR1	1	R1354E
657.735	1.6	659458	WORD	n/a	wordpools/wordpool_EN.txt	BATH	1	6	[0, 0, 0]	n/a	FR1	1	R1354E
659.363	0.832	661085	WORD_OFF	n/a	n/a	BATH	1	6	[0, 0, 0]	n/a	FR1	1	R1354E
660.195	1.6	661917	WORD	n/a	wordpools/wordpool_EN.txt	KITE	2	6	[0, 0, 0]	n/a	FR1	1	R1354E
661.829	0.946	663551	WORD_OFF	n/a	n/a	KITE	2	6	[0, 0, 0]	n/a	FR1	1	R1354E
662.775	1.6	664497	WORD	n/a	wordpools/wordpool_EN.txt	FOG	3	6	[0, 0, 0]	n/a	FR1	1	R1354E
664.397	0.764	666119	WORD_OFF	n/a	n/a	FOG	3	6	[0, 0, 0]	n/a	FR1	1	R1354E
665.161	1.6	666883	WORD	n/a	wordpools/wordpool_EN.txt	CROWN	4	6	[0, 0, 0]	n/a	FR1	1	R1354E
666.796	1.15	668518	WORD_OFF	n/a	n/a	CROWN	4	6	[0, 0, 0]	n/a	FR1	1	R1354E
667.946	1.6	669668	WORD	n/a	wordpools/wordpool_EN.txt	SKY	5	6	[0, 0, 0]	n/a	FR1	1	R1354E
669.581	1.013	671303	WORD_OFF	n/a	n/a	SKY	5	6	[0, 0, 0]	n/a	FR1	1	R1354E
670.594	1.6	672316	WORD	n/a	wordpools/wordpool_EN.txt	HOLE	6	6	[0, 0, 0]	n/a	FR1	1	R1354E
672.214	0.935	673936	WORD_OFF	n/a	n/a	HOLE	6	6	[0, 0, 0]	n/a	FR1	1	R1354E
673.149	1.6	674871	WORD	n/a	wordpools/wordpool_EN.txt	GATE	7	6	[0, 0, 0]	n/a	FR1	1	R1354E
674.781	0.879	676503	WORD_OFF	n/a	n/a	GATE	7	6	[0, 0, 0]	n/a	FR1	1	R1354E
675.66	1.6	677382	WORD	n/a	wordpools/wordpool_EN.txt	FUDGE	8	6	[0, 0, 0]	n/a	FR1	1	R1354E
677.281	0.873	679003	WORD_OFF	n/a	n/a	FUDGE	8	6	[0, 0, 0]	n/a	FR1	1	R1354E
678.154	1.6	679876	WORD	n/a	wordpools/wordpool_EN.txt	FOOD	9	6	[0, 0, 0]	n/a	FR1	1	R1354E
679.782	0.943	681504	WORD_OFF	n/a	n/a	FOOD	9	6	[0, 0, 0]	n/a	FR1	1	R1354E
680.725	1.6	682447	WORD	n/a	wordpools/wordpool_EN.txt	FLEA	10	6	[0, 0, 0]	n/a	FR1	1	R1354E
682.349	0.978	684071	WORD_OFF	n/a	n/a	FLEA	10	6	[0, 0, 0]	n/a	FR1	1	R1354E
683.327	1.6	685049	WORD	n/a	wordpools/wordpool_EN.txt	SALT	11	6	[0, 0, 0]	n/a	FR1	1	R1354E
684.949	1.068	686671	WORD_OFF	n/a	n/a	SALT	11	6	[0, 0, 0]	n/a	FR1	1	R1354E
686.017	1.6	687739	WORD	n/a	wordpools/wordpool_EN.txt	SNOW	12	6	[0, 0, 0]	n/a	FR1	1	R1354E
687.651	0.0	689372	WORD_OFF	n/a	n/a	SNOW	12	6	[0, 0, 0]	n/a	FR1	1	R1354E
687.651	0.001	689372	ENCODING_END	n/a	n/a	n/a	-999	6	[0, 0, 0]	n/a	FR1	1	R1354E
687.652	0.0	689373	DISTRACT_START	n/a	n/a	n/a	-999	6	[0, 0, 0]	n/a	FR1	1	R1354E
687.652	0.015	689373	START	n/a	n/a	n/a	-999	6	[-999, -999, -999]	n/a	FR1	1	R1354E
687.667	2.433	689388	PROB	2.399	n/a	n/a	-999	6	[4, 2, 7]	13.0	FR1	1	R1354E
690.1	1.601	691821	PROB	1.567	n/a	n/a	-999	6	[3, 7, 4]	14.0	FR1	1	R1354E
691.701	2.3	693422	PROB	2.27	n/a	n/a	-999	6	[8, 7, 2]	17.0	FR1	1	R1354E
694.001	1.9	695722	PROB	1.873	n/a	n/a	-999	6	[9, 4, 3]	16.0	FR1	1	R1354E
695.901	2.417	697622	PROB	2.39	n/a	n/a	-999	6	[1, 2, 6]	9.0	FR1	1	R1354E
698.318	2.235	700039	PROB	2.205	n/a	n/a	-999	6	[4, 6, 6]	16.0	FR1	1	R1354E
700.553	2.433	702274	PROB	2.409	n/a	n/a	-999	6	[9, 5, 8]	22.0	FR1	1	R1354E
702.986	1.867	704707	PROB	1.841	n/a	n/a	-999	6	[4, 1, 7]	12.0	FR1	1	R1354E
704.853	1.217	706574	PROB	1.19	n/a	n/a	-999	6	[1, 7, 7]	15.0	FR1	1	R1354E
706.07	1.733	707791	PROB	1.733	n/a	n/a	-999	6	[9, 7, 3]	19.0	FR1	1	R1354E
707.803	0.017	709524	STOP	n/a	n/a	n/a	-999	6	[-999, -999, -999]	n/a	FR1	1	R1354E
707.82	0.629	709541	DISTRACT_END	n/a	n/a	n/a	-999	6	[0, 0, 0]	n/a	FR1	1	R1354E
708.449	1.6	710170	RETRIEVAL_ORIENT_START	n/a	n/a	n/a	-999	6	[0, 0, 0]	n/a	FR1	1	R1354E
710.171	0.0	711892	RETRIEVAL_ORIENT_END	n/a	n/a	n/a	-999	6	[0, 0, 0]	n/a	FR1	1	R1354E
710.171	0.207	711892	REC_START	n/a	n/a	n/a	-999	6	[0, 0, 0]	n/a	FR1	1	R1354E
710.378	1.063	712099	REC_WORD	0.207	n/a	FUDGE	8	6	[0, 0, 0]	n/a	FR1	1	R1354E
711.441	1.168	713162	REC_WORD	1.27	n/a	FLEA	10	6	[0, 0, 0]	n/a	FR1	1	R1354E
712.609	1.383	714330	REC_WORD	2.438	n/a	FOOD	9	6	[0, 0, 0]	n/a	FR1	1	R1354E
713.992	26.188	715713	REC_WORD	3.821	n/a	SALT	11	6	[0, 0, 0]	n/a	FR1	1	R1354E
740.18	0.001	741900	REC_END	n/a	n/a	n/a	-999	6	[0, 0, 0]	n/a	FR1	1	R1354E
740.181	0.016	741901	TRIAL_END	n/a	n/a	n/a	-999	6	[0, 0, 0]	n/a	FR1	1	R1354E
740.197	0.0	741917	WAITING_START	n/a	n/a	n/a	-999	7	[0, 0, 0]	n/a	FR1	1	R1354E
740.197	0.0	741917	TRIAL_START	n/a	n/a	n/a	-999	7	[0, 0, 0]	n/a	FR1	1	R1354E
740.197	14.516	741917	TRIAL	n/a	n/a	n/a	-999	7	[0, 0, 0]	n/a	FR1	1	R1354E
754.713	0.0	756432	WAITING_END	n/a	n/a	n/a	-999	7	[0, 0, 0]	n/a	FR1	1	R1354E
754.713	10.0	756432	COUNTDOWN_START	n/a	n/a	n/a	-999	7	[0, 0, 0]	n/a	FR1	1	R1354E
765.142	0.0	766861	COUNTDOWN_END	n/a	n/a	n/a	-999	7	[0, 0, 0]	n/a	FR1	1	R1354E
765.142	1.172	766861	ORIENT_START	n/a	n/a	n/a	-999	7	[0, 0, 0]	n/a	FR1	1	R1354E
766.314	0.0	768033	ORIENT_END	n/a	n/a	n/a	-999	7	[0, 0, 0]	n/a	FR1	1	R1354E
766.314	0.81	768033	ENCODING_START	n/a	n/a	n/a	-999	7	[0, 0, 0]	n/a	FR1	1	R1354E
767.124	1.6	768843	WORD	n/a	wordpools/wordpool_EN.txt	PIT	1	7	[0, 0, 0]	n/a	FR1	1	R1354E
768.732	0.879	770451	WORD_OFF	n/a	n/a	PIT	1	7	[0, 0, 0]	n/a	FR1	1	R1354E
769.611	1.6	771330	WORD	n/a	wordpools/wordpool_EN.txt	CORD	2	7	[0, 0, 0]	n/a	FR1	1	R1354E
771.231	0.951	772950	WORD_OFF	n/a	n/a	CORD	2	7	[0, 0, 0]	n/a	FR1	1	R1354E
772.182	1.6	773900	WORD	n/a	wordpools/wordpool_EN.txt	THUMB	3	7	[0, 0, 0]	n/a	FR1	1	R1354E
773.815	1.049	775533	WORD_OFF	n/a	n/a	THUMB	3	7	[0, 0, 0]	n/a	FR1	1	R1354E
774.864	1.6	776582	WORD	n/a	wordpools/wordpool_EN.txt	SHELL	4	7	[0, 0, 0]	n/a	FR1	1	R1354E
776.5	0.969	778218	WORD_OFF	n/a	n/a	SHELL	4	7	[0, 0, 0]	n/a	FR1	1	R1354E
777.469	1.6	779187	WORD	n/a	wordpools/wordpool_EN.txt	MOOSE	5	7	[0, 0, 0]	n/a	FR1	1	R1354E
779.099	0.875	780817	WORD_OFF	n/a	n/a	MOOSE	5	7	[0, 0, 0]	n/a	FR1	1	R1354E
779.974	1.6	781692	WORD	n/a	wordpools/wordpool_EN.txt	SNAIL	6	7	[0, 0, 0]	n/a	FR1	1	R1354E
781.601	0.794	783319	WORD_OFF	n/a	n/a	SNAIL	6	7	[0, 0, 0]	n/a	FR1	1	R1354E
782.395	1.6	784113	WORD	n/a	wordpools/wordpool_EN.txt	RICE	7	7	[0, 0, 0]	n/a	FR1	1	R1354E
784.017	1.15	785735	WORD_OFF	n/a	n/a	RICE	7	7	[0, 0, 0]	n/a	FR1	1	R1354E
785.167	1.6	786885	WORD	n/a	wordpools/wordpool_EN.txt	MOUTH	8	7	[0, 0, 0]	n/a	FR1	1	R1354E
786.801	1.039	788519	WORD_OFF	n/a	n/a	MOUTH	8	7	[0, 0, 0]	n/a	FR1	1	R1354E
787.84	1.6	789558	WORD	n/a	wordpools/wordpool_EN.txt	DOOR	9	7	[0, 0, 0]	n/a	FR1	1	R1354E
789.469	1.135	791187	WORD_OFF	n/a	n/a	DOOR	9	7	[0, 0, 0]	n/a	FR1	1	R1354E
790.604	1.6	792322	WORD	n/a	wordpools/wordpool_EN.txt	HORN	10	7	[0, 0, 0]	n/a	FR1	1	R1354E
792.235	0.87	793953	WORD_OFF	n/a	n/a	HORN	10	7	[0, 0, 0]	n/a	FR1	1	R1354E
793.105	1.6	794823	WORD	n/a	wordpools/wordpool_EN.txt	JEEP	11	7	[0, 0, 0]	n/a	FR1	1	R1354E
794.72	1.1	796438	WORD_OFF	n/a	n/a	JEEP	11	7	[0, 0, 0]	n/a	FR1	1	R1354E
795.82	1.6	797538	WORD	n/a	wordpools/wordpool_EN.txt	BOY	12	7	[0, 0, 0]	n/a	FR1	1	R1354E
797.453	0.001	799171	WORD_OFF	n/a	n/a	BOY	12	7	[0, 0, 0]	n/a	FR1	1	R1354E
797.454	0.0	799172	ENCODING_END	n/a	n/a	n/a	-999	7	[0, 0, 0]	n/a	FR1	1	R1354E
797.454	0.0	799172	DISTRACT_START	n/a	n/a	n/a	-999	7	[0, 0, 0]	n/a	FR1	1	R1354E
797.454	0.016	799172	START	n/a	n/a	n/a	-999	7	[-999, -999, -999]	n/a	FR1	1	R1354E
797.47	3.533	799188	PROB	3.503	n/a	n/a	-999	7	[5, 1, 9]	15.0	FR1	1	R1354E
801.003	1.233	802720	PROB	1.201	n/a	n/a	-999	7	[2, 3, 7]	12.0	FR1	1	R1354E
802.236	1.402	803953	PROB	1.377	n/a	n/a	-999	7	[7, 7, 5]	19.0	FR1	1	R1354E
803.638	1.716	805355	PROB	1.678	n/a	n/a	-999	7	[8, 3, 9]	21.0	FR1	1	R1354E
805.354	1.85	807071	PROB	1.826	n/a	n/a	-999	7	[5, 8, 7]	20.0	FR1	1	R1354E
807.204	1.518	808921	PROB	1.481	n/a	n/a	-999	7	[8, 4, 8]	20.0	FR1	1	R1354E
808.722	1.65	810439	PROB	1.618	n/a	n/a	-999	7	[9, 7, 3]	19.0	FR1	1	R1354E
810.372	1.533	812089	PROB	1.504	n/a	n/a	-999	7	[9, 1, 5]	15.0	FR1	1	R1354E
811.905	2.685	813622	PROB	2.661	n/a	n/a	-999	7	[3, 4, 3]	10.0	FR1	1	R1354E
814.59	2.599	816307	PROB	2.566	n/a	n/a	-999	7	[6, 9, 7]	22.0	FR1	1	R1354E
817.189	1.4	818906	PROB	1.4	n/a	n/a	-999	7	[9, 9, 4]	22.0	FR1	1	R1354E
818.589	0.018	820306	STOP	n/a	n/a	n/a	-999	7	[-999, -999, -999]	n/a	FR1	1	R1354E
818.607	0.555	820324	DISTRACT_END	n/a	n/a	n/a	-999	7	[0, 0, 0]	n/a	FR1	1	R1354E
819.162	1.6	820879	RETRIEVAL_ORIENT_START	n/a	n/a	n/a	-999	7	[0, 0, 0]	n/a	FR1	1	R1354E
820.691	0.0	822408	RETRIEVAL_ORIENT_END	n/a	n/a	n/a	-999	7	[0, 0, 0]	n/a	FR1	1	R1354E
820.691	1.533	822408	REC_START	n/a	n/a	n/a	-999	7	[0, 0, 0]	n/a	FR1	1	R1354E
822.224	0.738	823941	REC_WORD	1.533	n/a	PIT	1	7	[0, 0, 0]	n/a	FR1	1	R1354E
822.962	0.867	824679	REC_WORD	2.271	n/a	CORN	-999	7	[0, 0, 0]	n/a	FR1	1	R1354E
823.829	0.466	825546	REC_WORD	3.138	n/a	THUMB	3	7	[0, 0, 0]	n/a	FR1	1	R1354E
824.295	26.407	826012	REC_WORD	3.604	n/a	SHELL	4	7	[0, 0, 0]	n/a	FR1	1	R1354E
850.702	0.0	852418	REC_END	n/a	n/a	n/a	-999	7	[0, 0, 0]	n/a	FR1	1	R1354E
850.702	0.017	852418	TRIAL_END	n/a	n/a	n/a	-999	7	[0, 0, 0]	n/a	FR1	1	R1354E
850.719	0.0	852435	TRIAL	n/a	n/a	n/a	-999	8	[0, 0, 0]	n/a	FR1	1	R1354E
850.719	0.0	852435	WAITING_START	n/a	n/a	n/a	-999	8	[0, 0, 0]	n/a	FR1	1	R1354E
850.719	28.415	852435	TRIAL_START	n/a	n/a	n/a	-999	8	[0, 0, 0]	n/a	FR1	1	R1354E
879.134	0.0	880849	WAITING_END	n/a	n/a	n/a	-999	8	[0, 0, 0]	n/a	FR1	1	R1354E
879.134	10.0	880849	COUNTDOWN_START	n/a	n/a	n/a	-999	8	[0, 0, 0]	n/a	FR1	1	R1354E
889.562	0.001	891276	COUNTDOWN_END	n/a	n/a	n/a	-999	8	[0, 0, 0]	n/a	FR1	1	R1354E
889.563	1.239	891277	ORIENT_START	n/a	n/a	n/a	-999	8	[0, 0, 0]	n/a	FR1	1	R1354E
890.802	0.001	892516	ORIENT_END	n/a	n/a	n/a	-999	8	[0, 0, 0]	n/a	FR1	1	R1354E
890.803	1.114	892517	ENCODING_START	n/a	n/a	n/a	-999	8	[0, 0, 0]	n/a	FR1	1	R1354E
891.917	1.6	893631	WORD	n/a	wordpools/wordpool_EN.txt	ROPE	1	8	[0, 0, 0]	n/a	FR1	1	R1354E
893.554	0.877	895268	WORD_OFF	n/a	n/a	ROPE	1	8	[0, 0, 0]	n/a	FR1	1	R1354E
894.431	1.6	896145	WORD	n/a	wordpools/wordpool_EN.txt	VASE	2	8	[0, 0, 0]	n/a	FR1	1	R1354E
896.053	0.953	897767	WORD_OFF	n/a	n/a	VASE	2	8	[0, 0, 0]	n/a	FR1	1	R1354E
897.006	1.6	898720	WORD	n/a	wordpools/wordpool_EN.txt	BOAT	3	8	[0, 0, 0]	n/a	FR1	1	R1354E
898.638	1.112	900352	WORD_OFF	n/a	n/a	BOAT	3	8	[0, 0, 0]	n/a	FR1	1	R1354E
899.75	1.6	901464	WORD	n/a	wordpools/wordpool_EN.txt	JUICE	4	8	[0, 0, 0]	n/a	FR1	1	R1354E
901.372	1.015	903086	WORD_OFF	n/a	n/a	JUICE	4	8	[0, 0, 0]	n/a	FR1	1	R1354E
902.387	1.6	904101	WORD	n/a	wordpools/wordpool_EN.txt	DOCK	5	8	[0, 0, 0]	n/a	FR1	1	R1354E
904.021	1.053	905735	WORD_OFF	n/a	n/a	DOCK	5	8	[0, 0, 0]	n/a	FR1	1	R1354E
905.074	1.6	906788	WORD	n/a	wordpools/wordpool_EN.txt	BRICK	6	8	[0, 0, 0]	n/a	FR1	1	R1354E
906.706	0.797	908420	WORD_OFF	n/a	n/a	BRICK	6	8	[0, 0, 0]	n/a	FR1	1	R1354E
907.503	1.6	909217	WORD	n/a	wordpools/wordpool_EN.txt	OAR	7	8	[0, 0, 0]	n/a	FR1	1	R1354E
909.139	0.963	910853	WORD_OFF	n/a	n/a	OAR	7	8	[0, 0, 0]	n/a	FR1	1	R1354E
910.102	1.6	911816	WORD	n/a	wordpools/wordpool_EN.txt	PLANE	8	8	[0, 0, 0]	n/a	FR1	1	R1354E
911.74	0.838	913454	WORD_OFF	n/a	n/a	PLANE	8	8	[0, 0, 0]	n/a	FR1	1	R1354E
912.578	1.6	914291	WORD	n/a	wordpools/wordpool_EN.txt	SMILE	9	8	[0, 0, 0]	n/a	FR1	1	R1354E
914.206	0.972	915919	WORD_OFF	n/a	n/a	SMILE	9	8	[0, 0, 0]	n/a	FR1	1	R1354E
915.178	1.6	916891	WORD	n/a	wordpools/wordpool_EN.txt	STOVE	10	8	[0, 0, 0]	n/a	FR1	1	R1354E
916.807	0.926	918520	WORD_OFF	n/a	n/a	STOVE	10	8	[0, 0, 0]	n/a	FR1	1	R1354E
917.733	1.6	919446	WORD	n/a	wordpools/wordpool_EN.txt	SHARK	11	8	[0, 0, 0]	n/a	FR1	1	R1354E
919.357	0.768	921070	WORD_OFF	n/a	n/a	SHARK	11	8	[0, 0, 0]	n/a	FR1	1	R1354E
920.125	1.6	921838	WORD	n/a	wordpools/wordpool_EN.txt	BREAD	12	8	[0, 0, 0]	n/a	FR1	1	R1354E
921.759	0.0	923472	WORD_OFF	n/a	n/a	BREAD	12	8	[0, 0, 0]	n/a	FR1	1	R1354E
921.759	0.0	923472	ENCODING_END	n/a	n/a	n/a	-999	8	[0, 0, 0]	n/a	FR1	1	R1354E
921.759	0.0	923472	DISTRACT_START	n/a	n/a	n/a	-999	8	[0, 0, 0]	n/a	FR1	1	R1354E
921.759	0.015	923472	START	n/a	n/a	n/a	-999	8	[-999, -999, -999]	n/a	FR1	1	R1354E
921.774	2.517	923487	PROB	2.489	n/a	n/a	-999	8	[5, 1, 2]	3.0	FR1	1	R1354E
924.291	1.767	926004	PROB	1.74	n/a	n/a	-999	8	[9, 9, 4]	22.0	FR1	1	R1354E
926.058	0.984	927771	PROB	0.957	n/a	n/a	-999	8	[5, 5, 1]	11.0	FR1	1	R1354E
927.042	1.933	928755	PROB	1.909	n/a	n/a	-999	8	[7, 6, 4]	17.0	FR1	1	R1354E
928.975	1.552	930688	PROB	1.529	n/a	n/a	-999	8	[4, 8, 3]	15.0	FR1	1	R1354E
930.527	1.682	932240	PROB	1.655	n/a	n/a	-999	8	[8, 5, 2]	15.0	FR1	1	R1354E
932.209	2.452	933922	PROB	2.414	n/a	n/a	-999	8	[4, 9, 7]	20.0	FR1	1	R1354E
934.661	1.682	936374	PROB	1.658	n/a	n/a	-999	8	[5, 1, 6]	12.0	FR1	1	R1354E
936.343	1.984	938056	PROB	1.951	n/a	n/a	-999	8	[2, 4, 3]	9.0	FR1	1	R1354E
938.327	1.418	940040	PROB	1.392	n/a	n/a	-999	8	[2, 7, 1]	10.0	FR1	1	R1354E
939.745	1.95	941458	PROB	1.919	n/a	n/a	-999	8	[4, 5, 8]	17.0	FR1	1	R1354E
941.695	1.384	943407	PROB	1.384	n/a	n/a	-999	8	[9, 2, 2]	13.0	FR1	1	R1354E
943.079	0.016	944791	STOP	n/a	n/a	n/a	-999	8	[-999, -999, -999]	n/a	FR1	1	R1354E
943.095	0.573	944807	DISTRACT_END	n/a	n/a	n/a	-999	8	[0, 0, 0]	n/a	FR1	1	R1354E
943.668	1.6	945380	RETRIEVAL_ORIENT_START	n/a	n/a	n/a	-999	8	[0, 0, 0]	n/a	FR1	1	R1354E
945.245	0.0	946957	REC_START	n/a	n/a	n/a	-999	8	[0, 0, 0]	n/a	FR1	1	R1354E
945.245	0.898	946957	RETRIEVAL_ORIENT_END	n/a	n/a	n/a	-999	8	[0, 0, 0]	n/a	FR1	1	R1354E
946.143	0.865	947855	REC_WORD	0.898	n/a	OAR	7	8	[0, 0, 0]	n/a	FR1	1	R1354E
947.008	8.067	948720	REC_WORD	1.763	n/a	PLANE	8	8	[0, 0, 0]	n/a	FR1	1	R1354E
955.075	1.0	956787	REC_WORD	9.83	n/a	STOVE	10	8	[0, 0, 0]	n/a	FR1	1	R1354E
956.075	0.984	957787	REC_WORD_VV	10.83	n/a	<>	-999	8	[0, 0, 0]	n/a	FR1	1	R1354E
957.059	10.073	958771	REC_WORD	11.814	n/a	OAR	7	8	[0, 0, 0]	n/a	FR1	1	R1354E
967.132	8.125	968844	REC_WORD	21.887	n/a	SMILE	9	8	[0, 0, 0]	n/a	FR1	1	R1354E
975.257	0.0	976968	REC_END	n/a	n/a	n/a	-999	8	[0, 0, 0]	n/a	FR1	1	R1354E
975.257	0.017	976968	TRIAL_END	n/a	n/a	n/a	-999	8	[0, 0, 0]	n/a	FR1	1	R1354E
975.274	0.001	976985	TRIAL_START	n/a	n/a	n/a	-999	9	[0, 0, 0]	n/a	FR1	1	R1354E
975.275	0.0	976986	TRIAL	n/a	n/a	n/a	-999	9	[0, 0, 0]	n/a	FR1	1	R1354E
975.275	1.709	976986	WAITING_START	n/a	n/a	n/a	-999	9	[0, 0, 0]	n/a	FR1	1	R1354E
976.984	0.0	978695	WAITING_END	n/a	n/a	n/a	-999	9	[0, 0, 0]	n/a	FR1	1	R1354E
976.984	10.0	978695	COUNTDOWN_START	n/a	n/a	n/a	-999	9	[0, 0, 0]	n/a	FR1	1	R1354E
987.413	0.0	989124	COUNTDOWN_END	n/a	n/a	n/a	-999	9	[0, 0, 0]	n/a	FR1	1	R1354E
987.413	1.241	989124	ORIENT_START	n/a	n/a	n/a	-999	9	[0, 0, 0]	n/a	FR1	1	R1354E
988.654	0.0	990365	ORIENT_END	n/a	n/a	n/a	-999	9	[0, 0, 0]	n/a	FR1	1	R1354E
988.654	1.019	990365	ENCODING_START	n/a	n/a	n/a	-999	9	[0, 0, 0]	n/a	FR1	1	R1354E
989.673	1.6	991384	WORD	n/a	wordpools/wordpool_EN.txt	ROOM	1	9	[0, 0, 0]	n/a	FR1	1	R1354E
991.303	0.87	993014	WORD_OFF	n/a	n/a	ROOM	1	9	[0, 0, 0]	n/a	FR1	1	R1354E
992.173	1.6	993884	WORD	n/a	wordpools/wordpool_EN.txt	SINK	2	9	[0, 0, 0]	n/a	FR1	1	R1354E
993.803	0.959	995514	WORD_OFF	n/a	n/a	SINK	2	9	[0, 0, 0]	n/a	FR1	1	R1354E
994.762	1.6	996473	WORD	n/a	wordpools/wordpool_EN.txt	DOLL	3	9	[0, 0, 0]	n/a	FR1	1	R1354E
996.388	0.871	998098	WORD_OFF	n/a	n/a	DOLL	3	9	[0, 0, 0]	n/a	FR1	1	R1354E
997.259	1.6	998969	WORD	n/a	wordpools/wordpool_EN.txt	ROCK	4	9	[0, 0, 0]	n/a	FR1	1	R1354E
998.888	0.824	1000598	WORD_OFF	n/a	n/a	ROCK	4	9	[0, 0, 0]	n/a	FR1	1	R1354E
999.712	1.6	1001422	WORD	n/a	wordpools/wordpool_EN.txt	SIGN	5	9	[0, 0, 0]	n/a	FR1	1	R1354E
1001.338	1.034	1003048	WORD_OFF	n/a	n/a	SIGN	5	9	[0, 0, 0]	n/a	FR1	1	R1354E
1002.372	1.6	1004082	WORD	n/a	wordpools/wordpool_EN.txt	STEM	6	9	[0, 0, 0]	n/a	FR1	1	R1354E
1004.005	0.77	1005715	WORD_OFF	n/a	n/a	STEM	6	9	[0, 0, 0]	n/a	FR1	1	R1354E
1004.775	1.6	1006485	WORD	n/a	wordpools/wordpool_EN.txt	ROSE	7	9	[0, 0, 0]	n/a	FR1	1	R1354E
1006.407	0.782	1008117	WORD_OFF	n/a	n/a	ROSE	7	9	[0, 0, 0]	n/a	FR1	1	R1354E
1007.189	1.6	1008899	WORD	n/a	wordpools/wordpool_EN.txt	BUSH	8	9	[0, 0, 0]	n/a	FR1	1	R1354E
1008.823	1.082	1010533	WORD_OFF	n/a	n/a	BUSH	8	9	[0, 0, 0]	n/a	FR1	1	R1354E
1009.905	1.6	1011615	WORD	n/a	wordpools/wordpool_EN.txt	CRANE	9	9	[0, 0, 0]	n/a	FR1	1	R1354E
1011.524	1.009	1013234	WORD_OFF	n/a	n/a	CRANE	9	9	[0, 0, 0]	n/a	FR1	1	R1354E
1012.533	1.6	1014243	WORD	n/a	wordpools/wordpool_EN.txt	MUD	10	9	[0, 0, 0]	n/a	FR1	1	R1354E
1014.157	0.88	1015867	WORD_OFF	n/a	n/a	MUD	10	9	[0, 0, 0]	n/a	FR1	1	R1354E
1015.037	1.6	1016747	WORD	n/a	wordpools/wordpool_EN.txt	WING	11	9	[0, 0, 0]	n/a	FR1	1	R1354E
1016.659	0.914	1018369	WORD_OFF	n/a	n/a	WING	11	9	[0, 0, 0]	n/a	FR1	1	R1354E
1017.573	1.6	1019283	WORD	n/a	wordpools/wordpool_EN.txt	BADGE	12	9	[0, 0, 0]	n/a	FR1	1	R1354E
1019.208	0.0	1020918	WORD_OFF	n/a	n/a	BADGE	12	9	[0, 0, 0]	n/a	FR1	1	R1354E
1019.208	0.001	1020918	ENCODING_END	n/a	n/a	n/a	-999	9	[0, 0, 0]	n/a	FR1	1	R1354E
1019.209	0.0	1020919	DISTRACT_START	n/a	n/a	n/a	-999	9	[0, 0, 0]	n/a	FR1	1	R1354E
1019.209	0.015	1020919	START	n/a	n/a	n/a	-999	9	[-999, -999, -999]	n/a	FR1	1	R1354E
1019.224	2.684	1020934	PROB	2.656	n/a	n/a	-999	9	[8, 9, 7]	24.0	FR1	1	R1354E
1021.908	1.884	1023618	PROB	1.852	n/a	n/a	-999	9	[9, 4, 4]	17.0	FR1	1	R1354E
1023.792	1.4	1025502	PROB	1.368	n/a	n/a	-999	9	[2, 3, 1]	6.0	FR1	1	R1354E
1025.192	2.0	1026901	PROB	1.967	n/a	n/a	-999	9	[8, 4, 6]	18.0	FR1	1	R1354E
1027.192	1.834	1028901	PROB	1.799	n/a	n/a	-999	9	[5, 9, 4]	18.0	FR1	1	R1354E
1029.026	1.8	1030735	PROB	1.765	n/a	n/a	-999	9	[9, 3, 5]	18.0	FR1	1	R1354E
1030.826	1.735	1032535	PROB	1.702	n/a	n/a	-999	9	[1, 5, 9]	15.0	FR1	1	R1354E
1032.561	1.934	1034270	PROB	1.903	n/a	n/a	-999	9	[8, 9, 4]	21.0	FR1	1	R1354E
1034.495	1.282	1036204	PROB	1.249	n/a	n/a	-999	9	[9, 9, 4]	22.0	FR1	1	R1354E
1035.777	1.652	1037486	PROB	1.615	n/a	n/a	-999	9	[2, 9, 6]	17.0	FR1	1	R1354E
1037.429	2.028	1039138	PROB	2.028	n/a	n/a	-999	9	[3, 9, 8]	20.0	FR1	1	R1354E
1039.457	0.005	1041166	STOP	n/a	n/a	n/a	-999	9	[-999, -999, -999]	n/a	FR1	1	R1354E
1039.462	0.637	1041171	DISTRACT_END	n/a	n/a	n/a	-999	9	[0, 0, 0]	n/a	FR1	1	R1354E
1040.099	1.6	1041808	RETRIEVAL_ORIENT_START	n/a	n/a	n/a	-999	9	[0, 0, 0]	n/a	FR1	1	R1354E
1041.646	0.001	1043355	RETRIEVAL_ORIENT_END	n/a	n/a	n/a	-999	9	[0, 0, 0]	n/a	FR1	1	R1354E
1041.647	0.142	1043356	REC_START	n/a	n/a	n/a	-999	9	[0, 0, 0]	n/a	FR1	1	R1354E
1041.789	1.045	1043498	REC_WORD	0.142	n/a	ROSE	7	9	[0, 0, 0]	n/a	FR1	1	R1354E
1042.834	0.816	1044543	REC_WORD	1.187	n/a	BUSH	8	9	[0, 0, 0]	n/a	FR1	1	R1354E
1043.65	1.319	1045359	REC_WORD	2.003	n/a	CRANE	9	9	[0, 0, 0]	n/a	FR1	1	R1354E
1044.969	26.687	1046678	REC_WORD	3.322	n/a	MUD	10	9	[0, 0, 0]	n/a	FR1	1	R1354E
1071.656	0.001	1073364	REC_END	n/a	n/a	n/a	-999	9	[0, 0, 0]	n/a	FR1	1	R1354E
1071.657	0.017	1073365	TRIAL_END	n/a	n/a	n/a	-999	9	[0, 0, 0]	n/a	FR1	1	R1354E
1071.674	0.0	1073382	TRIAL	n/a	n/a	n/a	-999	10	[0, 0, 0]	n/a	FR1	1	R1354E
1071.674	0.0	1073382	WAITING_START	n/a	n/a	n/a	-999	10	[0, 0, 0]	n/a	FR1	1	R1354E
1071.674	18.914	1073382	TRIAL_START	n/a	n/a	n/a	-999	10	[0, 0, 0]	n/a	FR1	1	R1354E
1090.588	0.0	1092295	WAITING_END	n/a	n/a	n/a	-999	10	[0, 0, 0]	n/a	FR1	1	R1354E
1090.588	10.0	1092295	COUNTDOWN_START	n/a	n/a	n/a	-999	10	[0, 0, 0]	n/a	FR1	1	R1354E
1101.018	0.001	1102725	COUNTDOWN_END	n/a	n/a	n/a	-999	10	[0, 0, 0]	n/a	FR1	1	R1354E
1101.019	1.087	1102726	ORIENT_START	n/a	n/a	n/a	-999	10	[0, 0, 0]	n/a	FR1	1	R1354E
1102.106	0.0	1103813	ORIENT_END	n/a	n/a	n/a	-999	10	[0, 0, 0]	n/a	FR1	1	R1354E
1102.106	0.8	1103813	ENCODING_START	n/a	n/a	n/a	-999	10	[0, 0, 0]	n/a	FR1	1	R1354E
1102.906	1.6	1104613	WORD	n/a	wordpools/wordpool_EN.txt	AXE	1	10	[0, 0, 0]	n/a	FR1	1	R1354E
1104.524	0.974	1106231	WORD_OFF	n/a	n/a	AXE	1	10	[0, 0, 0]	n/a	FR1	1	R1354E
1105.498	1.6	1107205	WORD	n/a	wordpools/wordpool_EN.txt	SOCK	2	10	[0, 0, 0]	n/a	FR1	1	R1354E
1107.123	1.133	1108830	WORD_OFF	n/a	n/a	SOCK	2	10	[0, 0, 0]	n/a	FR1	1	R1354E
1108.256	1.6	1109963	WORD	n/a	wordpools/wordpool_EN.txt	BOWL	3	10	[0, 0, 0]	n/a	FR1	1	R1354E
1109.89	0.921	1111596	WORD_OFF	n/a	n/a	BOWL	3	10	[0, 0, 0]	n/a	FR1	1	R1354E
1110.811	1.6	1112517	WORD	n/a	wordpools/wordpool_EN.txt	PEN	4	10	[0, 0, 0]	n/a	FR1	1	R1354E
1112.442	0.926	1114148	WORD_OFF	n/a	n/a	PEN	4	10	[0, 0, 0]	n/a	FR1	1	R1354E
1113.368	1.6	1115074	WORD	n/a	wordpools/wordpool_EN.txt	MOTH	5	10	[0, 0, 0]	n/a	FR1	1	R1354E
1114.991	0.989	1116697	WORD_OFF	n/a	n/a	MOTH	5	10	[0, 0, 0]	n/a	FR1	1	R1354E
1115.98	1.6	1117686	WORD	n/a	wordpools/wordpool_EN.txt	ELF	6	10	[0, 0, 0]	n/a	FR1	1	R1354E
1117.593	0.982	1119299	WORD_OFF	n/a	n/a	ELF	6	10	[0, 0, 0]	n/a	FR1	1	R1354E
1118.575	1.6	1120281	WORD	n/a	wordpools/wordpool_EN.txt	SEAT	7	10	[0, 0, 0]	n/a	FR1	1	R1354E
1120.209	1.022	1121915	WORD_OFF	n/a	n/a	SEAT	7	10	[0, 0, 0]	n/a	FR1	1	R1354E
1121.231	1.6	1122937	WORD	n/a	wordpools/wordpool_EN.txt	MAT	8	10	[0, 0, 0]	n/a	FR1	1	R1354E
1122.859	0.883	1124565	WORD_OFF	n/a	n/a	MAT	8	10	[0, 0, 0]	n/a	FR1	1	R1354E
1123.742	1.6	1125448	WORD	n/a	wordpools/wordpool_EN.txt	DART	9	10	[0, 0, 0]	n/a	FR1	1	R1354E
1125.378	0.925	1127084	WORD_OFF	n/a	n/a	DART	9	10	[0, 0, 0]	n/a	FR1	1	R1354E
1126.303	1.6	1128009	WORD	n/a	wordpools/wordpool_EN.txt	SKUNK	10	10	[0, 0, 0]	n/a	FR1	1	R1354E
1127.927	1.089	1129633	WORD_OFF	n/a	n/a	SKUNK	10	10	[0, 0, 0]	n/a	FR1	1	R1354E
1129.016	1.6	1130722	WORD	n/a	wordpools/wordpool_EN.txt	NOSE	11	10	[0, 0, 0]	n/a	FR1	1	R1354E
1130.645	0.764	1132351	WORD_OFF	n/a	n/a	NOSE	11	10	[0, 0, 0]	n/a	FR1	1	R1354E
1131.409	1.6	1133115	WORD	n/a	wordpools/wordpool_EN.txt	BOOK	12	10	[0, 0, 0]	n/a	FR1	1	R1354E
1133.045	0.0	1134751	WORD_OFF	n/a	n/a	BOOK	12	10	[0, 0, 0]	n/a	FR1	1	R1354E
1133.045	0.0	1134751	ENCODING_END	n/a	n/a	n/a	-999	10	[0, 0, 0]	n/a	FR1	1	R1354E
1133.045	0.0	1134751	DISTRACT_START	n/a	n/a	n/a	-999	10	[0, 0, 0]	n/a	FR1	1	R1354E
1133.045	0.016	1134751	START	n/a	n/a	n/a	-999	10	[-999, -999, -999]	n/a	FR1	1	R1354E
1133.061	2.385	1134767	PROB	2.357	n/a	n/a	-999	10	[4, 7, 9]	20.0	FR1	1	R1354E
1135.446	3.349	1137152	PROB	3.316	n/a	n/a	-999	10	[6, 8, 4]	18.0	FR1	1	R1354E
1138.795	1.618	1140500	PROB	1.591	n/a	n/a	-999	10	[7, 6, 5]	18.0	FR1	1	R1354E
1140.413	1.101	1142118	PROB	1.062	n/a	n/a	-999	10	[9, 5, 3]	18.0	FR1	1	R1354E
1141.514	3.432	1143219	PROB	3.399	n/a	n/a	-999	10	[4, 5, 9]	18.0	FR1	1	R1354E
1144.946	1.051	1146651	PROB	1.015	n/a	n/a	-999	10	[1, 5, 6]	12.0	FR1	1	R1354E
1145.997	1.883	1147702	PROB	1.86	n/a	n/a	-999	10	[9, 3, 7]	19.0	FR1	1	R1354E
1147.88	1.568	1149585	PROB	1.538	n/a	n/a	-999	10	[9, 4, 4]	17.0	FR1	1	R1354E
1149.448	1.399	1151153	PROB	1.369	n/a	n/a	-999	10	[7, 3, 3]	13.0	FR1	1	R1354E
1150.847	1.234	1152552	PROB	1.211	n/a	n/a	-999	10	[2, 8, 2]	12.0	FR1	1	R1354E
1152.081	1.49	1153786	PROB	1.49	n/a	n/a	-999	10	[3, 7, 3]	13.0	FR1	1	R1354E
1153.571	0.011	1155276	STOP	n/a	n/a	n/a	-999	10	[-999, -999, -999]	n/a	FR1	1	R1354E
1153.582	0.691	1155287	DISTRACT_END	n/a	n/a	n/a	-999	10	[0, 0, 0]	n/a	FR1	1	R1354E
1154.273	1.6	1155978	RETRIEVAL_ORIENT_START	n/a	n/a	n/a	-999	10	[0, 0, 0]	n/a	FR1	1	R1354E
1155.899	0.0	1157604	REC_START	n/a	n/a	n/a	-999	10	[0, 0, 0]	n/a	FR1	1	R1354E
1155.899	0.0	1157604	REC_WORD	0.0	n/a	SKUNK	10	10	[0, 0, 0]	n/a	FR1	1	R1354E
1155.899	1.0	1157604	RETRIEVAL_ORIENT_END	n/a	n/a	n/a	-999	10	[0, 0, 0]	n/a	FR1	1	R1354E
1156.899	4.415	1158604	REC_WORD_VV	1.0	n/a	<>	-999	10	[0, 0, 0]	n/a	FR1	1	R1354E
1161.314	2.604	1163019	REC_WORD	5.415	n/a	LAKE	-999	10	[0, 0, 0]	n/a	FR1	1	R1354E
1163.918	21.99	1165623	REC_WORD	8.019	n/a	BOOK	12	10	[0, 0, 0]	n/a	FR1	1	R1354E
1185.908	0.001	1187612	REC_END	n/a	n/a	n/a	-999	10	[0, 0, 0]	n/a	FR1	1	R1354E
1185.909	0.017	1187613	TRIAL_END	n/a	n/a	n/a	-999	10	[0, 0, 0]	n/a	FR1	1	R1354E
1185.926	0.0	1187630	WAITING_START	n/a	n/a	n/a	-999	11	[0, 0, 0]	n/a	FR1	1	R1354E
1185.926	0.0	1187630	TRIAL_START	n/a	n/a	n/a	-999	11	[0, 0, 0]	n/a	FR1	1	R1354E
1185.926	8.279	1187630	TRIAL	n/a	n/a	n/a	-999	11	[0, 0, 0]	n/a	FR1	1	R1354E
1194.205	0.001	1195908	WAITING_END	n/a	n/a	n/a	-999	11	[0, 0, 0]	n/a	FR1	1	R1354E
1194.206	10.0	1195909	COUNTDOWN_START	n/a	n/a	n/a	-999	11	[0, 0, 0]	n/a	FR1	1	R1354E
1204.635	0.0	1206338	COUNTDOWN_END	n/a	n/a	n/a	-999	11	[0, 0, 0]	n/a	FR1	1	R1354E
1204.635	1.023	1206338	ORIENT_START	n/a	n/a	n/a	-999	11	[0, 0, 0]	n/a	FR1	1	R1354E
1205.658	0.001	1207361	ORIENT_END	n/a	n/a	n/a	-999	11	[0, 0, 0]	n/a	FR1	1	R1354E
1205.659	0.934	1207362	ENCODING_START	n/a	n/a	n/a	-999	11	[0, 0, 0]	n/a	FR1	1	R1354E
1206.593	1.6	1208296	WORD	n/a	wordpools/wordpool_EN.txt	WHEEL	1	11	[0, 0, 0]	n/a	FR1	1	R1354E
1208.224	0.814	1209927	WORD_OFF	n/a	n/a	WHEEL	1	11	[0, 0, 0]	n/a	FR1	1	R1354E
1209.038	1.6	1210741	WORD	n/a	wordpools/wordpool_EN.txt	SCHOOL	2	11	[0, 0, 0]	n/a	FR1	1	R1354E
1210.676	0.972	1212379	WORD_OFF	n/a	n/a	SCHOOL	2	11	[0, 0, 0]	n/a	FR1	1	R1354E
1211.648	1.6	1213351	WORD	n/a	wordpools/wordpool_EN.txt	SQUARE	3	11	[0, 0, 0]	n/a	FR1	1	R1354E
1213.275	0.909	1214978	WORD_OFF	n/a	n/a	SQUARE	3	11	[0, 0, 0]	n/a	FR1	1	R1354E
1214.184	1.6	1215887	WORD	n/a	wordpools/wordpool_EN.txt	MUG	4	11	[0, 0, 0]	n/a	FR1	1	R1354E
1215.809	0.76	1217512	WORD_OFF	n/a	n/a	MUG	4	11	[0, 0, 0]	n/a	FR1	1	R1354E
1216.569	1.6	1218272	WORD	n/a	wordpools/wordpool_EN.txt	CHAIR	5	11	[0, 0, 0]	n/a	FR1	1	R1354E
1218.193	1.007	1219896	WORD_OFF	n/a	n/a	CHAIR	5	11	[0, 0, 0]	n/a	FR1	1	R1354E
1219.2	1.6	1220903	WORD	n/a	wordpools/wordpool_EN.txt	BAND	6	11	[0, 0, 0]	n/a	FR1	1	R1354E
1220.827	0.883	1222529	WORD_OFF	n/a	n/a	BAND	6	11	[0, 0, 0]	n/a	FR1	1	R1354E
1221.71	1.6	1223412	WORD	n/a	wordpools/wordpool_EN.txt	WORM	7	11	[0, 0, 0]	n/a	FR1	1	R1354E
1223.344	0.762	1225046	WORD_OFF	n/a	n/a	WORM	7	11	[0, 0, 0]	n/a	FR1	1	R1354E
1224.106	1.6	1225808	WORD	n/a	wordpools/wordpool_EN.txt	DOG	8	11	[0, 0, 0]	n/a	FR1	1	R1354E
1225.728	0.794	1227430	WORD_OFF	n/a	n/a	DOG	8	11	[0, 0, 0]	n/a	FR1	1	R1354E
1226.522	1.6	1228224	WORD	n/a	wordpools/wordpool_EN.txt	GRAPE	9	11	[0, 0, 0]	n/a	FR1	1	R1354E
1228.145	0.976	1229847	WORD_OFF	n/a	n/a	GRAPE	9	11	[0, 0, 0]	n/a	FR1	1	R1354E
1229.121	1.6	1230823	WORD	n/a	wordpools/wordpool_EN.txt	DUCK	10	11	[0, 0, 0]	n/a	FR1	1	R1354E
1230.746	0.913	1232448	WORD_OFF	n/a	n/a	DUCK	10	11	[0, 0, 0]	n/a	FR1	1	R1354E
1231.659	1.6	1233361	WORD	n/a	wordpools/wordpool_EN.txt	CAT	11	11	[0, 0, 0]	n/a	FR1	1	R1354E
1233.279	0.847	1234981	WORD_OFF	n/a	n/a	CAT	11	11	[0, 0, 0]	n/a	FR1	1	R1354E
1234.126	1.6	1235828	WORD	n/a	wordpools/wordpool_EN.txt	PALM	12	11	[0, 0, 0]	n/a	FR1	1	R1354E
1235.747	0.0	1237449	WORD_OFF	n/a	n/a	PALM	12	11	[0, 0, 0]	n/a	FR1	1	R1354E
1235.747	0.001	1237449	ENCODING_END	n/a	n/a	n/a	-999	11	[0, 0, 0]	n/a	FR1	1	R1354E
1235.748	0.0	1237450	DISTRACT_START	n/a	n/a	n/a	-999	11	[0, 0, 0]	n/a	FR1	1	R1354E
1235.748	0.014	1237450	START	n/a	n/a	n/a	-999	11	[-999, -999, -999]	n/a	FR1	1	R1354E
1235.762	2.735	1237464	PROB	2.71	n/a	n/a	-999	11	[6, 9, 2]	17.0	FR1	1	R1354E
1238.497	2.5	1240199	PROB	2.469	n/a	n/a	-999	11	[8, 6, 8]	22.0	FR1	1	R1354E
1240.997	1.751	1242699	PROB	1.723	n/a	n/a	-999	11	[9, 2, 6]	17.0	FR1	1	R1354E
1242.748	1.416	1244450	PROB	1.379	n/a	n/a	-999	11	[6, 4, 4]	14.0	FR1	1	R1354E
1244.164	1.883	1245866	PROB	1.858	n/a	n/a	-999	11	[8, 3, 5]	16.0	FR1	1	R1354E
1246.047	1.435	1247749	PROB	1.4	n/a	n/a	-999	11	[1, 8, 5]	14.0	FR1	1	R1354E
1247.482	1.967	1249184	PROB	1.942	n/a	n/a	-999	11	[5, 7, 5]	17.0	FR1	1	R1354E
1249.449	2.234	1251150	PROB	2.206	n/a	n/a	-999	11	[3, 3, 9]	15.0	FR1	1	R1354E
1251.683	1.416	1253384	PROB	1.38	n/a	n/a	-999	11	[4, 7, 1]	12.0	FR1	1	R1354E
1253.099	1.418	1254800	PROB	1.389	n/a	n/a	-999	11	[6, 6, 6]	18.0	FR1	1	R1354E
1254.517	1.449	1256218	PROB	1.449	n/a	n/a	-999	11	[4, 6, 2]	12.0	FR1	1	R1354E
1255.966	0.017	1257667	STOP	n/a	n/a	n/a	-999	11	[-999, -999, -999]	n/a	FR1	1	R1354E
1255.983	0.543	1257684	DISTRACT_END	n/a	n/a	n/a	-999	11	[0, 0, 0]	n/a	FR1	1	R1354E
1256.526	1.6	1258227	RETRIEVAL_ORIENT_START	n/a	n/a	n/a	-999	11	[0, 0, 0]	n/a	FR1	1	R1354E
1258.1	0.0	1259801	RETRIEVAL_ORIENT_END	n/a	n/a	n/a	-999	11	[0, 0, 0]	n/a	FR1	1	R1354E
1258.1	0.0	1259801	REC_START	n/a	n/a	n/a	-999	11	[0, 0, 0]	n/a	FR1	1	R1354E
1258.1	2.681	1259801	REC_WORD	0.0	n/a	WHEEL	1	11	[0, 0, 0]	n/a	FR1	1	R1354E
1260.781	2.325	1262482	REC_WORD	2.681	n/a	SQUARE	3	11	[0, 0, 0]	n/a	FR1	1	R1354E
1263.106	1.057	1264807	REC_WORD	5.006	n/a	DOG	8	11	[0, 0, 0]	n/a	FR1	1	R1354E
1264.163	1.401	1265864	REC_WORD	6.063	n/a	CAT	11	11	[0, 0, 0]	n/a	FR1	1	R1354E
1265.564	22.547	1267265	REC_WORD	7.464	n/a	GRAPE	9	11	[0, 0, 0]	n/a	FR1	1	R1354E
1288.111	0.0	1289811	REC_END	n/a	n/a	n/a	-999	11	[0, 0, 0]	n/a	FR1	1	R1354E
1288.111	0.018	1289811	TRIAL_END	n/a	n/a	n/a	-999	11	[0, 0, 0]	n/a	FR1	1	R1354E
1288.129	0.0	1289829	TRIAL_START	n/a	n/a	n/a	-999	12	[0, 0, 0]	n/a	FR1	1	R1354E
1288.129	0.001	1289829	TRIAL	n/a	n/a	n/a	-999	12	[0, 0, 0]	n/a	FR1	1	R1354E
1288.13	29.947	1289830	WAITING_START	n/a	n/a	n/a	-999	12	[0, 0, 0]	n/a	FR1	1	R1354E
1318.077	10.0	1319776	COUNTDOWN_START	n/a	n/a	n/a	-999	12	[0, 0, 0]	n/a	FR1	1	R1354E
1318.077	10.43	1319776	WAITING_END	n/a	n/a	n/a	-999	12	[0, 0, 0]	n/a	FR1	1	R1354E
1328.507	0.0	1330206	COUNTDOWN_END	n/a	n/a	n/a	-999	12	[0, 0, 0]	n/a	FR1	1	R1354E
1328.507	1.223	1330206	ORIENT_START	n/a	n/a	n/a	-999	12	[0, 0, 0]	n/a	FR1	1	R1354E
1329.73	0.001	1331429	ORIENT_END	n/a	n/a	n/a	-999	12	[0, 0, 0]	n/a	FR1	1	R1354E
1329.731	0.935	1331430	ENCODING_START	n/a	n/a	n/a	-999	12	[0, 0, 0]	n/a	FR1	1	R1354E
1330.666	1.6	1332365	WORD	n/a	wordpools/wordpool_EN.txt	PRINCE	1	12	[0, 0, 0]	n/a	FR1	1	R1354E
1332.296	0.939	1333995	WORD_OFF	n/a	n/a	PRINCE	1	12	[0, 0, 0]	n/a	FR1	1	R1354E
1333.235	1.6	1334933	WORD	n/a	wordpools/wordpool_EN.txt	CUP	2	12	[0, 0, 0]	n/a	FR1	1	R1354E
1334.863	1.101	1336561	WORD_OFF	n/a	n/a	CUP	2	12	[0, 0, 0]	n/a	FR1	1	R1354E
1335.964	1.6	1337662	WORD	n/a	wordpools/wordpool_EN.txt	TOAST	3	12	[0, 0, 0]	n/a	FR1	1	R1354E
1337.598	1.066	1339296	WORD_OFF	n/a	n/a	TOAST	3	12	[0, 0, 0]	n/a	FR1	1	R1354E
1338.664	1.6	1340362	WORD	n/a	wordpools/wordpool_EN.txt	SPEAR	4	12	[0, 0, 0]	n/a	FR1	1	R1354E
1340.298	1.071	1341996	WORD_OFF	n/a	n/a	SPEAR	4	12	[0, 0, 0]	n/a	FR1	1	R1354E
1341.369	1.6	1343067	WORD	n/a	wordpools/wordpool_EN.txt	OWL	5	12	[0, 0, 0]	n/a	FR1	1	R1354E
1342.998	0.772	1344696	WORD_OFF	n/a	n/a	OWL	5	12	[0, 0, 0]	n/a	FR1	1	R1354E
1343.77	1.6	1345468	WORD	n/a	wordpools/wordpool_EN.txt	FOOT	6	12	[0, 0, 0]	n/a	FR1	1	R1354E
1345.383	0.766	1347081	WORD_OFF	n/a	n/a	FOOT	6	12	[0, 0, 0]	n/a	FR1	1	R1354E
1346.149	1.6	1347847	WORD	n/a	wordpools/wordpool_EN.txt	POLE	7	12	[0, 0, 0]	n/a	FR1	1	R1354E
1347.782	0.807	1349480	WORD_OFF	n/a	n/a	POLE	7	12	[0, 0, 0]	n/a	FR1	1	R1354E
1348.589	1.6	1350287	WORD	n/a	wordpools/wordpool_EN.txt	STRAW	8	12	[0, 0, 0]	n/a	FR1	1	R1354E
1350.216	0.92	1351914	WORD_OFF	n/a	n/a	STRAW	8	12	[0, 0, 0]	n/a	FR1	1	R1354E
1351.136	1.6	1352834	WORD	n/a	wordpools/wordpool_EN.txt	NAIL	9	12	[0, 0, 0]	n/a	FR1	1	R1354E
1352.766	1.138	1354464	WORD_OFF	n/a	n/a	NAIL	9	12	[0, 0, 0]	n/a	FR1	1	R1354E
1353.904	1.6	1355602	WORD	n/a	wordpools/wordpool_EN.txt	TAIL	10	12	[0, 0, 0]	n/a	FR1	1	R1354E
1355.535	1.062	1357233	WORD_OFF	n/a	n/a	TAIL	10	12	[0, 0, 0]	n/a	FR1	1	R1354E
1356.597	1.6	1358295	WORD	n/a	wordpools/wordpool_EN.txt	RUG	11	12	[0, 0, 0]	n/a	FR1	1	R1354E
1358.217	0.837	1359915	WORD_OFF	n/a	n/a	RUG	11	12	[0, 0, 0]	n/a	FR1	1	R1354E
1359.054	1.6	1360752	WORD	n/a	wordpools/wordpool_EN.txt	OAK	12	12	[0, 0, 0]	n/a	FR1	1	R1354E
1360.669	0.0	1362367	WORD_OFF	n/a	n/a	OAK	12	12	[0, 0, 0]	n/a	FR1	1	R1354E
1360.669	0.0	1362367	ENCODING_END	n/a	n/a	n/a	-999	12	[0, 0, 0]	n/a	FR1	1	R1354E
1360.669	0.0	1362367	DISTRACT_START	n/a	n/a	n/a	-999	12	[0, 0, 0]	n/a	FR1	1	R1354E
1360.669	0.016	1362367	START	n/a	n/a	n/a	-999	12	[-999, -999, -999]	n/a	FR1	1	R1354E
1360.685	3.383	1362383	PROB	3.35	n/a	n/a	-999	12	[5, 9, 6]	20.0	FR1	1	R1354E
1364.068	1.917	1365765	PROB	1.88	n/a	n/a	-999	12	[7, 6, 2]	15.0	FR1	1	R1354E
1365.985	1.984	1367682	PROB	1.946	n/a	n/a	-999	12	[6, 5, 8]	19.0	FR1	1	R1354E
1367.969	1.8	1369666	PROB	1.764	n/a	n/a	-999	12	[9, 7, 5]	21.0	FR1	1	R1354E
1369.769	1.818	1371466	PROB	1.795	n/a	n/a	-999	12	[9, 6, 6]	21.0	FR1	1	R1354E
1371.587	1.633	1373284	PROB	1.6	n/a	n/a	-999	12	[4, 5, 4]	13.0	FR1	1	R1354E
1373.22	1.55	1374917	PROB	1.521	n/a	n/a	-999	12	[8, 6, 4]	18.0	FR1	1	R1354E
1374.77	2.15	1376467	PROB	2.121	n/a	n/a	-999	12	[5, 8, 3]	16.0	FR1	1	R1354E
1376.92	1.652	1378617	PROB	1.629	n/a	n/a	-999	12	[7, 5, 5]	17.0	FR1	1	R1354E
1378.572	1.8	1380269	PROB	1.768	n/a	n/a	-999	12	[6, 9, 4]	19.0	FR1	1	R1354E
1380.372	3.688	1382069	PROB	3.688	n/a	n/a	-999	12	[8, 8, 9]	25.0	FR1	1	R1354E
1384.06	0.012	1385757	STOP	n/a	n/a	n/a	-999	12	[-999, -999, -999]	n/a	FR1	1	R1354E
1384.072	0.524	1385769	DISTRACT_END	n/a	n/a	n/a	-999	12	[0, 0, 0]	n/a	FR1	1	R1354E
1384.596	1.6	1386293	RETRIEVAL_ORIENT_START	n/a	n/a	n/a	-999	12	[0, 0, 0]	n/a	FR1	1	R1354E
1386.272	0.001	1387969	RETRIEVAL_ORIENT_END	n/a	n/a	n/a	-999	12	[0, 0, 0]	n/a	FR1	1	R1354E
1386.273	0.203	1387970	REC_START	n/a	n/a	n/a	-999	12	[0, 0, 0]	n/a	FR1	1	R1354E
1386.476	0.99	1388173	REC_WORD	0.203	n/a	PRINCE	1	12	[0, 0, 0]	n/a	FR1	1	R1354E
1387.466	3.665	1389163	REC_WORD	1.193	n/a	CUP	2	12	[0, 0, 0]	n/a	FR1	1	R1354E
1391.131	1.782	1392827	REC_WORD	4.858	n/a	TAIL	10	12	[0, 0, 0]	n/a	FR1	1	R1354E
1392.913	23.369	1394609	REC_WORD	6.64	n/a	NAIL	9	12	[0, 0, 0]	n/a	FR1	1	R1354E
1416.282	0.001	1417978	REC_END	n/a	n/a	n/a	-999	12	[0, 0, 0]	n/a	FR1	1	R1354E
1416.283	0.017	1417979	TRIAL_END	n/a	n/a	n/a	-999	12	[0, 0, 0]	n/a	FR1	1	R1354E
1416.3	0.0	1417996	TRIAL_START	n/a	n/a	n/a	-999	13	[0, 0, 0]	n/a	FR1	1	R1354E
1416.3	0.001	1417996	TRIAL	n/a	n/a	n/a	-999	13	[0, 0, 0]	n/a	FR1	1	R1354E
1416.301	8.528	1417997	WAITING_START	n/a	n/a	n/a	-999	13	[0, 0, 0]	n/a	FR1	1	R1354E
1424.829	0.0	1426524	WAITING_END	n/a	n/a	n/a	-999	13	[0, 0, 0]	n/a	FR1	1	R1354E
1424.829	10.0	1426524	COUNTDOWN_START	n/a	n/a	n/a	-999	13	[0, 0, 0]	n/a	FR1	1	R1354E
1435.258	0.001	1436953	COUNTDOWN_END	n/a	n/a	n/a	-999	13	[0, 0, 0]	n/a	FR1	1	R1354E
1435.259	1.156	1436954	ORIENT_START	n/a	n/a	n/a	-999	13	[0, 0, 0]	n/a	FR1	1	R1354E
1436.415	0.001	1438110	ORIENT_END	n/a	n/a	n/a	-999	13	[0, 0, 0]	n/a	FR1	1	R1354E
1436.416	1.135	1438111	ENCODING_START	n/a	n/a	n/a	-999	13	[0, 0, 0]	n/a	FR1	1	R1354E
1437.551	1.6	1439246	WORD	n/a	wordpools/wordpool_EN.txt	PIPE	1	13	[0, 0, 0]	n/a	FR1	1	R1354E
1439.182	1.023	1440877	WORD_OFF	n/a	n/a	PIPE	1	13	[0, 0, 0]	n/a	FR1	1	R1354E
1440.205	1.6	1441900	WORD	n/a	wordpools/wordpool_EN.txt	POOL	2	13	[0, 0, 0]	n/a	FR1	1	R1354E
1441.832	0.91	1443527	WORD_OFF	n/a	n/a	POOL	2	13	[0, 0, 0]	n/a	FR1	1	R1354E
1442.742	1.6	1444437	WORD	n/a	wordpools/wordpool_EN.txt	BALL	3	13	[0, 0, 0]	n/a	FR1	1	R1354E
1444.367	0.769	1446062	WORD_OFF	n/a	n/a	BALL	3	13	[0, 0, 0]	n/a	FR1	1	R1354E
1445.136	1.6	1446831	WORD	n/a	wordpools/wordpool_EN.txt	POND	4	13	[0, 0, 0]	n/a	FR1	1	R1354E
1446.766	0.995	1448460	WORD_OFF	n/a	n/a	POND	4	13	[0, 0, 0]	n/a	FR1	1	R1354E
1447.761	1.6	1449455	WORD	n/a	wordpools/wordpool_EN.txt	GLASS	5	13	[0, 0, 0]	n/a	FR1	1	R1354E
1449.384	1.058	1451078	WORD_OFF	n/a	n/a	GLASS	5	13	[0, 0, 0]	n/a	FR1	1	R1354E
1450.442	1.6	1452136	WORD	n/a	wordpools/wordpool_EN.txt	PASTE	6	13	[0, 0, 0]	n/a	FR1	1	R1354E
1452.067	1.142	1453761	WORD_OFF	n/a	n/a	PASTE	6	13	[0, 0, 0]	n/a	FR1	1	R1354E
1453.209	1.6	1454903	WORD	n/a	wordpools/wordpool_EN.txt	BEAN	7	13	[0, 0, 0]	n/a	FR1	1	R1354E
1454.834	0.946	1456528	WORD_OFF	n/a	n/a	BEAN	7	13	[0, 0, 0]	n/a	FR1	1	R1354E
1455.78	1.6	1457474	WORD	n/a	wordpools/wordpool_EN.txt	CASH	8	13	[0, 0, 0]	n/a	FR1	1	R1354E
1457.386	0.778	1459080	WORD_OFF	n/a	n/a	CASH	8	13	[0, 0, 0]	n/a	FR1	1	R1354E
1458.164	1.6	1459858	WORD	n/a	wordpools/wordpool_EN.txt	PURSE	9	13	[0, 0, 0]	n/a	FR1	1	R1354E
1459.785	0.939	1461479	WORD_OFF	n/a	n/a	PURSE	9	13	[0, 0, 0]	n/a	FR1	1	R1354E
1460.724	1.6	1462418	WORD	n/a	wordpools/wordpool_EN.txt	DESK	10	13	[0, 0, 0]	n/a	FR1	1	R1354E
1462.352	1.026	1464046	WORD_OFF	n/a	n/a	DESK	10	13	[0, 0, 0]	n/a	FR1	1	R1354E
1463.378	1.6	1465072	WORD	n/a	wordpools/wordpool_EN.txt	RAIN	11	13	[0, 0, 0]	n/a	FR1	1	R1354E
1465.003	1.083	1466697	WORD_OFF	n/a	n/a	RAIN	11	13	[0, 0, 0]	n/a	FR1	1	R1354E
1466.086	1.6	1467780	WORD	n/a	wordpools/wordpool_EN.txt	ZOO	12	13	[0, 0, 0]	n/a	FR1	1	R1354E
1467.704	0.0	1469398	WORD_OFF	n/a	n/a	ZOO	12	13	[0, 0, 0]	n/a	FR1	1	R1354E
1467.704	0.001	1469398	ENCODING_END	n/a	n/a	n/a	-999	13	[0, 0, 0]	n/a	FR1	1	R1354E
1467.705	0.0	1469399	DISTRACT_START	n/a	n/a	n/a	-999	13	[0, 0, 0]	n/a	FR1	1	R1354E
1467.705	0.016	1469399	START	n/a	n/a	n/a	-999	13	[-999, -999, -999]	n/a	FR1	1	R1354E
1467.721	2.549	1469415	PROB	2.517	n/a	n/a	-999	13	[1, 1, 9]	11.0	FR1	1	R1354E
1470.27	1.667	1471964	PROB	1.631	n/a	n/a	-999	13	[7, 9, 7]	23.0	FR1	1	R1354E
1471.937	2.635	1473631	PROB	2.606	n/a	n/a	-999	13	[6, 6, 4]	16.0	FR1	1	R1354E
1474.572	2.633	1476265	PROB	2.609	n/a	n/a	-999	13	[2, 7, 1]	10.0	FR1	1	R1354E
1477.205	1.534	1478898	PROB	1.506	n/a	n/a	-999	13	[4, 7, 8]	19.0	FR1	1	R1354E
1478.739	2.35	1480432	PROB	2.322	n/a	n/a	-999	13	[7, 7, 6]	20.0	FR1	1	R1354E
1481.089	1.817	1482782	PROB	1.781	n/a	n/a	-999	13	[9, 5, 7]	21.0	FR1	1	R1354E
1482.906	1.45	1484599	PROB	1.411	n/a	n/a	-999	13	[4, 1, 3]	8.0	FR1	1	R1354E
1484.356	2.335	1486049	PROB	2.307	n/a	n/a	-999	13	[3, 5, 9]	17.0	FR1	1	R1354E
1486.691	1.251	1488384	PROB	1.251	n/a	n/a	-999	13	[8, 8, 1]	17.0	FR1	1	R1354E
1487.942	0.015	1489635	STOP	n/a	n/a	n/a	-999	13	[-999, -999, -999]	n/a	FR1	1	R1354E
1487.957	0.623	1489650	DISTRACT_END	n/a	n/a	n/a	-999	13	[0, 0, 0]	n/a	FR1	1	R1354E
1488.58	1.6	1490273	RETRIEVAL_ORIENT_START	n/a	n/a	n/a	-999	13	[0, 0, 0]	n/a	FR1	1	R1354E
1490.224	0.0	1491917	RETRIEVAL_ORIENT_END	n/a	n/a	n/a	-999	13	[0, 0, 0]	n/a	FR1	1	R1354E
1490.224	1.008	1491917	REC_START	n/a	n/a	n/a	-999	13	[0, 0, 0]	n/a	FR1	1	R1354E
1491.232	0.813	1492925	REC_WORD	1.008	n/a	PURSE	9	13	[0, 0, 0]	n/a	FR1	1	R1354E
1492.045	28.189	1493738	REC_WORD	1.821	n/a	PALE	-999	13	[0, 0, 0]	n/a	FR1	1	R1354E
1520.234	0.001	1521926	REC_END	n/a	n/a	n/a	-999	13	[0, 0, 0]	n/a	FR1	1	R1354E
1520.235	0.017	1521927	TRIAL_END	n/a	n/a	n/a	-999	13	[0, 0, 0]	n/a	FR1	1	R1354E
1520.252	0.0	1521944	WAITING_START	n/a	n/a	n/a	-999	14	[0, 0, 0]	n/a	FR1	1	R1354E
1520.252	0.0	1521944	TRIAL_START	n/a	n/a	n/a	-999	14	[0, 0, 0]	n/a	FR1	1	R1354E
1520.252	6.346	1521944	TRIAL	n/a	n/a	n/a	-999	14	[0, 0, 0]	n/a	FR1	1	R1354E
1526.598	0.0	1528290	WAITING_END	n/a	n/a	n/a	-999	14	[0, 0, 0]	n/a	FR1	1	R1354E
1526.598	10.0	1528290	COUNTDOWN_START	n/a	n/a	n/a	-999	14	[0, 0, 0]	n/a	FR1	1	R1354E
1537.028	0.0	1538719	COUNTDOWN_END	n/a	n/a	n/a	-999	14	[0, 0, 0]	n/a	FR1	1	R1354E
1537.028	1.238	1538719	ORIENT_START	n/a	n/a	n/a	-999	14	[0, 0, 0]	n/a	FR1	1	R1354E
1538.266	0.0	1539957	ORIENT_END	n/a	n/a	n/a	-999	14	[0, 0, 0]	n/a	FR1	1	R1354E
1538.266	0.868	1539957	ENCODING_START	n/a	n/a	n/a	-999	14	[0, 0, 0]	n/a	FR1	1	R1354E
1539.134	1.6	1540825	WORD	n/a	wordpools/wordpool_EN.txt	STAIR	1	14	[0, 0, 0]	n/a	FR1	1	R1354E
1540.75	0.887	1542441	WORD_OFF	n/a	n/a	STAIR	1	14	[0, 0, 0]	n/a	FR1	1	R1354E
1541.637	1.6	1543328	WORD	n/a	wordpools/wordpool_EN.txt	COUCH	2	14	[0, 0, 0]	n/a	FR1	1	R1354E
1543.266	0.784	1544957	WORD_OFF	n/a	n/a	COUCH	2	14	[0, 0, 0]	n/a	FR1	1	R1354E
1544.05	1.6	1545741	WORD	n/a	wordpools/wordpool_EN.txt	FLAG	3	14	[0, 0, 0]	n/a	FR1	1	R1354E
1545.685	1.079	1547376	WORD_OFF	n/a	n/a	FLAG	3	14	[0, 0, 0]	n/a	FR1	1	R1354E
1546.764	1.6	1548455	WORD	n/a	wordpools/wordpool_EN.txt	FLUTE	4	14	[0, 0, 0]	n/a	FR1	1	R1354E
1548.402	0.839	1550093	WORD_OFF	n/a	n/a	FLUTE	4	14	[0, 0, 0]	n/a	FR1	1	R1354E
1549.241	1.6	1550932	WORD	n/a	wordpools/wordpool_EN.txt	BANK	5	14	[0, 0, 0]	n/a	FR1	1	R1354E
1550.868	0.799	1552559	WORD_OFF	n/a	n/a	BANK	5	14	[0, 0, 0]	n/a	FR1	1	R1354E
1551.667	1.6	1553358	WORD	n/a	wordpools/wordpool_EN.txt	TOAD	6	14	[0, 0, 0]	n/a	FR1	1	R1354E
1553.302	1.076	1554993	WORD_OFF	n/a	n/a	TOAD	6	14	[0, 0, 0]	n/a	FR1	1	R1354E
1554.378	1.6	1556069	WORD	n/a	wordpools/wordpool_EN.txt	JAIL	7	14	[0, 0, 0]	n/a	FR1	1	R1354E
1556.002	0.847	1557693	WORD_OFF	n/a	n/a	JAIL	7	14	[0, 0, 0]	n/a	FR1	1	R1354E
1556.849	1.6	1558540	WORD	n/a	wordpools/wordpool_EN.txt	PLANT	8	14	[0, 0, 0]	n/a	FR1	1	R1354E
1558.487	1.035	1560177	WORD_OFF	n/a	n/a	PLANT	8	14	[0, 0, 0]	n/a	FR1	1	R1354E
1559.522	1.6	1561212	WORD	n/a	wordpools/wordpool_EN.txt	GRASS	9	14	[0, 0, 0]	n/a	FR1	1	R1354E
1561.153	0.8	1562843	WORD_OFF	n/a	n/a	GRASS	9	14	[0, 0, 0]	n/a	FR1	1	R1354E
1561.953	1.6	1563643	WORD	n/a	wordpools/wordpool_EN.txt	FRUIT	10	14	[0, 0, 0]	n/a	FR1	1	R1354E
1563.588	1.104	1565278	WORD_OFF	n/a	n/a	FRUIT	10	14	[0, 0, 0]	n/a	FR1	1	R1354E
1564.692	1.6	1566382	WORD	n/a	wordpools/wordpool_EN.txt	TEA	11	14	[0, 0, 0]	n/a	FR1	1	R1354E
1566.321	0.891	1568011	WORD_OFF	n/a	n/a	TEA	11	14	[0, 0, 0]	n/a	FR1	1	R1354E
1567.212	1.6	1568902	WORD	n/a	wordpools/wordpool_EN.txt	NEST	12	14	[0, 0, 0]	n/a	FR1	1	R1354E
1568.838	0.0	1570528	WORD_OFF	n/a	n/a	NEST	12	14	[0, 0, 0]	n/a	FR1	1	R1354E
1568.838	0.0	1570528	ENCODING_END	n/a	n/a	n/a	-999	14	[0, 0, 0]	n/a	FR1	1	R1354E
1568.838	0.001	1570528	DISTRACT_START	n/a	n/a	n/a	-999	14	[0, 0, 0]	n/a	FR1	1	R1354E
1568.839	0.015	1570529	START	n/a	n/a	n/a	-999	14	[-999, -999, -999]	n/a	FR1	1	R1354E
1568.854	1.901	1570544	PROB	1.875	n/a	n/a	-999	14	[8, 4, 3]	15.0	FR1	1	R1354E
1570.755	1.834	1572445	PROB	1.797	n/a	n/a	-999	14	[2, 4, 6]	12.0	FR1	1	R1354E
1572.589	1.884	1574279	PROB	1.851	n/a	n/a	-999	14	[7, 2, 4]	13.0	FR1	1	R1354E
1574.473	1.532	1576163	PROB	1.494	n/a	n/a	-999	14	[5, 9, 6]	20.0	FR1	1	R1354E
1576.005	2.201	1577695	PROB	2.162	n/a	n/a	-999	14	[9, 2, 5]	16.0	FR1	1	R1354E
1578.206	2.017	1579896	PROB	1.985	n/a	n/a	-999	14	[8, 8, 4]	20.0	FR1	1	R1354E
1580.223	1.65	1581913	PROB	1.624	n/a	n/a	-999	14	[6, 6, 3]	15.0	FR1	1	R1354E
1581.873	1.618	1583563	PROB	1.591	n/a	n/a	-999	14	[6, 1, 8]	15.0	FR1	1	R1354E
1583.491	1.499	1585181	PROB	1.461	n/a	n/a	-999	14	[9, 6, 4]	19.0	FR1	1	R1354E
1584.99	2.585	1586680	PROB	2.546	n/a	n/a	-999	14	[5, 8, 4]	17.0	FR1	1	R1354E
1587.575	3.312	1589264	PROB	3.312	n/a	n/a	-999	14	[6, 2, 9]	17.0	FR1	1	R1354E
1590.887	0.021	1592576	STOP	n/a	n/a	n/a	-999	14	[-999, -999, -999]	n/a	FR1	1	R1354E
1590.908	0.528	1592597	DISTRACT_END	n/a	n/a	n/a	-999	14	[0, 0, 0]	n/a	FR1	1	R1354E
1591.436	1.6	1593125	RETRIEVAL_ORIENT_START	n/a	n/a	n/a	-999	14	[0, 0, 0]	n/a	FR1	1	R1354E
1592.975	0.0	1594664	REC_WORD	0.0	n/a	STAIR	1	14	[0, 0, 0]	n/a	FR1	1	R1354E
1592.975	0.0	1594664	RETRIEVAL_ORIENT_END	n/a	n/a	n/a	-999	14	[0, 0, 0]	n/a	FR1	1	R1354E
1592.975	1.348	1594664	REC_START	n/a	n/a	n/a	-999	14	[0, 0, 0]	n/a	FR1	1	R1354E
1594.323	8.201	1596012	REC_WORD	1.348	n/a	FLAG	3	14	[0, 0, 0]	n/a	FR1	1	R1354E
1602.524	0.54	1604213	REC_WORD	9.549	n/a	STAIR	1	14	[0, 0, 0]	n/a	FR1	1	R1354E
1603.064	0.87	1604753	REC_WORD	10.089	n/a	FLAG	3	14	[0, 0, 0]	n/a	FR1	1	R1354E
1603.934	1.262	1605623	REC_WORD	10.959	n/a	FAN	-999	14	[0, 0, 0]	n/a	FR1	1	R1354E
1605.196	1.301	1606885	REC_WORD	12.221	n/a	COUCH	2	14	[0, 0, 0]	n/a	FR1	1	R1354E
1606.497	16.488	1608186	REC_WORD	13.522	n/a	FLUTE	4	14	[0, 0, 0]	n/a	FR1	1	R1354E
1622.985	0.0	1624673	TRIAL_END	n/a	n/a	n/a	-999	14	[0, 0, 0]	n/a	FR1	1	R1354E
1622.985	0.017	1624673	REC_END	n/a	n/a	n/a	-999	14	[0, 0, 0]	n/a	FR1	1	R1354E
1623.002	0.0	1624690	TRIAL_START	n/a	n/a	n/a	-999	15	[0, 0, 0]	n/a	FR1	1	R1354E
1623.002	0.0	1624690	TRIAL	n/a	n/a	n/a	-999	15	[0, 0, 0]	n/a	FR1	1	R1354E
1623.002	3.68	1624690	WAITING_START	n/a	n/a	n/a	-999	15	[0, 0, 0]	n/a	FR1	1	R1354E
1626.682	0.001	1628370	WAITING_END	n/a	n/a	n/a	-999	15	[0, 0, 0]	n/a	FR1	1	R1354E
1626.683	10.0	1628371	COUNTDOWN_START	n/a	n/a	n/a	-999	15	[0, 0, 0]	n/a	FR1	1	R1354E
1637.111	0.001	1638799	COUNTDOWN_END	n/a	n/a	n/a	-999	15	[0, 0, 0]	n/a	FR1	1	R1354E
1637.112	1.188	1638800	ORIENT_START	n/a	n/a	n/a	-999	15	[0, 0, 0]	n/a	FR1	1	R1354E
1638.3	0.0	1639988	ENCODING_START	n/a	n/a	n/a	-999	15	[0, 0, 0]	n/a	FR1	1	R1354E
1638.3	1.018	1639988	ORIENT_END	n/a	n/a	n/a	-999	15	[0, 0, 0]	n/a	FR1	1	R1354E
1639.318	1.6	1641006	WORD	n/a	wordpools/wordpool_EN.txt	FARM	1	15	[0, 0, 0]	n/a	FR1	1	R1354E
1640.95	1.049	1642638	WORD_OFF	n/a	n/a	FARM	1	15	[0, 0, 0]	n/a	FR1	1	R1354E
1641.999	1.6	1643686	WORD	n/a	wordpools/wordpool_EN.txt	HAND	2	15	[0, 0, 0]	n/a	FR1	1	R1354E
1643.635	1.02	1645322	WORD_OFF	n/a	n/a	HAND	2	15	[0, 0, 0]	n/a	FR1	1	R1354E
1644.655	1.6	1646342	WORD	n/a	wordpools/wordpool_EN.txt	NET	3	15	[0, 0, 0]	n/a	FR1	1	R1354E
1646.284	1.087	1647971	WORD_OFF	n/a	n/a	NET	3	15	[0, 0, 0]	n/a	FR1	1	R1354E
1647.371	1.6	1649058	WORD	n/a	wordpools/wordpool_EN.txt	CALF	4	15	[0, 0, 0]	n/a	FR1	1	R1354E
1649.002	0.766	1650689	WORD_OFF	n/a	n/a	CALF	4	15	[0, 0, 0]	n/a	FR1	1	R1354E
1649.768	1.6	1651455	WORD	n/a	wordpools/wordpool_EN.txt	FORT	5	15	[0, 0, 0]	n/a	FR1	1	R1354E
1651.403	0.957	1653090	WORD_OFF	n/a	n/a	FORT	5	15	[0, 0, 0]	n/a	FR1	1	R1354E
1652.36	1.6	1654047	WORD	n/a	wordpools/wordpool_EN.txt	YARD	6	15	[0, 0, 0]	n/a	FR1	1	R1354E
1653.986	1.141	1655673	WORD_OFF	n/a	n/a	YARD	6	15	[0, 0, 0]	n/a	FR1	1	R1354E
1655.127	1.6	1656814	WORD	n/a	wordpools/wordpool_EN.txt	MILK	7	15	[0, 0, 0]	n/a	FR1	1	R1354E
1656.754	0.878	1658441	WORD_OFF	n/a	n/a	MILK	7	15	[0, 0, 0]	n/a	FR1	1	R1354E
1657.632	1.6	1659319	WORD	n/a	wordpools/wordpool_EN.txt	BOOT	8	15	[0, 0, 0]	n/a	FR1	1	R1354E
1659.253	1.04	1660940	WORD_OFF	n/a	n/a	BOOT	8	15	[0, 0, 0]	n/a	FR1	1	R1354E
1660.293	1.6	1661980	WORD	n/a	wordpools/wordpool_EN.txt	SMOKE	9	15	[0, 0, 0]	n/a	FR1	1	R1354E
1661.921	1.117	1663608	WORD_OFF	n/a	n/a	SMOKE	9	15	[0, 0, 0]	n/a	FR1	1	R1354E
1663.038	1.6	1664725	WORD	n/a	wordpools/wordpool_EN.txt	STEAM	10	15	[0, 0, 0]	n/a	FR1	1	R1354E
1664.672	0.925	1666359	WORD_OFF	n/a	n/a	STEAM	10	15	[0, 0, 0]	n/a	FR1	1	R1354E
1665.597	1.6	1667284	WORD	n/a	wordpools/wordpool_EN.txt	PEA	11	15	[0, 0, 0]	n/a	FR1	1	R1354E
1667.222	1.005	1668909	WORD_OFF	n/a	n/a	PEA	11	15	[0, 0, 0]	n/a	FR1	1	R1354E
1668.227	1.6	1669914	WORD	n/a	wordpools/wordpool_EN.txt	EAR	12	15	[0, 0, 0]	n/a	FR1	1	R1354E
1669.855	0.001	1671542	WORD_OFF	n/a	n/a	EAR	12	15	[0, 0, 0]	n/a	FR1	1	R1354E
1669.856	0.0	1671543	ENCODING_END	n/a	n/a	n/a	-999	15	[0, 0, 0]	n/a	FR1	1	R1354E
1669.856	0.0	1671543	DISTRACT_START	n/a	n/a	n/a	-999	15	[0, 0, 0]	n/a	FR1	1	R1354E
1669.856	0.016	1671543	START	n/a	n/a	n/a	-999	15	[-999, -999, -999]	n/a	FR1	1	R1354E
1669.872	3.3	1671559	PROB	3.265	n/a	n/a	-999	15	[3, 5, 6]	14.0	FR1	1	R1354E
1673.172	1.867	1674858	PROB	1.844	n/a	n/a	-999	15	[4, 8, 7]	19.0	FR1	1	R1354E
1675.039	1.435	1676725	PROB	1.41	n/a	n/a	-999	15	[2, 6, 2]	10.0	FR1	1	R1354E
1676.474	1.766	1678160	PROB	1.743	n/a	n/a	-999	15	[3, 2, 3]	8.0	FR1	1	R1354E
1678.24	1.867	1679926	PROB	1.833	n/a	n/a	-999	15	[2, 4, 6]	12.0	FR1	1	R1354E
1680.107	1.717	1681793	PROB	1.686	n/a	n/a	-999	15	[6, 4, 5]	15.0	FR1	1	R1354E
1681.824	2.084	1683510	PROB	2.057	n/a	n/a	-999	15	[8, 8, 5]	21.0	FR1	1	R1354E
1683.908	1.568	1685594	PROB	1.534	n/a	n/a	-999	15	[3, 8, 5]	16.0	FR1	1	R1354E
1685.476	2.033	1687162	PROB	2.005	n/a	n/a	-999	15	[8, 2, 2]	12.0	FR1	1	R1354E
1687.509	1.967	1689195	PROB	1.932	n/a	n/a	-999	15	[4, 6, 7]	17.0	FR1	1	R1354E
1689.476	1.637	1691162	PROB	1.637	n/a	n/a	-999	15	[7, 7, 2]	16.0	FR1	1	R1354E
1691.113	0.013	1692799	STOP	n/a	n/a	n/a	-999	15	[-999, -999, -999]	n/a	FR1	1	R1354E
1691.126	0.572	1692812	DISTRACT_END	n/a	n/a	n/a	-999	15	[0, 0, 0]	n/a	FR1	1	R1354E
1691.698	1.6	1693384	RETRIEVAL_ORIENT_START	n/a	n/a	n/a	-999	15	[0, 0, 0]	n/a	FR1	1	R1354E
1693.326	0.0	1695012	RETRIEVAL_ORIENT_END	n/a	n/a	n/a	-999	15	[0, 0, 0]	n/a	FR1	1	R1354E
1693.326	0.81	1695012	REC_START	n/a	n/a	n/a	-999	15	[0, 0, 0]	n/a	FR1	1	R1354E
1694.136	0.948	1695822	REC_WORD	0.81	n/a	CALF	4	15	[0, 0, 0]	n/a	FR1	1	R1354E
1695.084	2.072	1696770	REC_WORD	1.758	n/a	FARM	1	15	[0, 0, 0]	n/a	FR1	1	R1354E
1697.156	26.18	1698842	REC_WORD	3.83	n/a	YARD	6	15	[0, 0, 0]	n/a	FR1	1	R1354E
1723.336	0.0	1725021	REC_END	n/a	n/a	n/a	-999	15	[0, 0, 0]	n/a	FR1	1	R1354E
1723.336	0.017	1725021	TRIAL_END	n/a	n/a	n/a	-999	15	[0, 0, 0]	n/a	FR1	1	R1354E
1723.353	0.0	1725038	WAITING_START	n/a	n/a	n/a	-999	16	[0, 0, 0]	n/a	FR1	1	R1354E
1723.353	0.0	1725038	TRIAL_START	n/a	n/a	n/a	-999	16	[0, 0, 0]	n/a	FR1	1	R1354E
1723.353	26.916	1725038	TRIAL	n/a	n/a	n/a	-999	16	[0, 0, 0]	n/a	FR1	1	R1354E
1750.269	0.001	1751953	WAITING_END	n/a	n/a	n/a	-999	16	[0, 0, 0]	n/a	FR1	1	R1354E
1750.27	10.0	1751954	COUNTDOWN_START	n/a	n/a	n/a	-999	16	[0, 0, 0]	n/a	FR1	1	R1354E
1760.698	0.001	1762381	COUNTDOWN_END	n/a	n/a	n/a	-999	16	[0, 0, 0]	n/a	FR1	1	R1354E
1760.699	1.172	1762382	ORIENT_START	n/a	n/a	n/a	-999	16	[0, 0, 0]	n/a	FR1	1	R1354E
1761.871	0.001	1763554	ORIENT_END	n/a	n/a	n/a	-999	16	[0, 0, 0]	n/a	FR1	1	R1354E
1761.872	0.919	1763555	ENCODING_START	n/a	n/a	n/a	-999	16	[0, 0, 0]	n/a	FR1	1	R1354E
1762.791	1.6	1764474	WORD	n/a	wordpools/wordpool_EN.txt	GUARD	1	16	[0, 0, 0]	n/a	FR1	1	R1354E
1764.423	0.892	1766106	WORD_OFF	n/a	n/a	GUARD	1	16	[0, 0, 0]	n/a	FR1	1	R1354E
1765.315	1.6	1766998	WORD	n/a	wordpools/wordpool_EN.txt	SPONGE	2	16	[0, 0, 0]	n/a	FR1	1	R1354E
1766.939	1.09	1768622	WORD_OFF	n/a	n/a	SPONGE	2	16	[0, 0, 0]	n/a	FR1	1	R1354E
1768.029	1.6	1769712	WORD	n/a	wordpools/wordpool_EN.txt	MAP	3	16	[0, 0, 0]	n/a	FR1	1	R1354E
1769.64	1.145	1771323	WORD_OFF	n/a	n/a	MAP	3	16	[0, 0, 0]	n/a	FR1	1	R1354E
1770.785	1.6	1772468	WORD	n/a	wordpools/wordpool_EN.txt	BRIDGE	4	16	[0, 0, 0]	n/a	FR1	1	R1354E
1772.391	0.804	1774074	WORD_OFF	n/a	n/a	BRIDGE	4	16	[0, 0, 0]	n/a	FR1	1	R1354E
1773.195	1.6	1774878	WORD	n/a	wordpools/wordpool_EN.txt	VAN	5	16	[0, 0, 0]	n/a	FR1	1	R1354E
1774.824	0.848	1776507	WORD_OFF	n/a	n/a	VAN	5	16	[0, 0, 0]	n/a	FR1	1	R1354E
1775.672	1.6	1777355	WORD	n/a	wordpools/wordpool_EN.txt	CUBE	6	16	[0, 0, 0]	n/a	FR1	1	R1354E
1777.308	0.977	1778991	WORD_OFF	n/a	n/a	CUBE	6	16	[0, 0, 0]	n/a	FR1	1	R1354E
1778.285	1.6	1779968	WORD	n/a	wordpools/wordpool_EN.txt	STRING	7	16	[0, 0, 0]	n/a	FR1	1	R1354E
1779.908	0.862	1781591	WORD_OFF	n/a	n/a	STRING	7	16	[0, 0, 0]	n/a	FR1	1	R1354E
1780.77	1.6	1782453	WORD	n/a	wordpools/wordpool_EN.txt	WAND	8	16	[0, 0, 0]	n/a	FR1	1	R1354E
1782.393	0.913	1784075	WORD_OFF	n/a	n/a	WAND	8	16	[0, 0, 0]	n/a	FR1	1	R1354E
1783.306	1.6	1784988	WORD	n/a	wordpools/wordpool_EN.txt	CLOUD	9	16	[0, 0, 0]	n/a	FR1	1	R1354E
1784.942	1.131	1786624	WORD_OFF	n/a	n/a	CLOUD	9	16	[0, 0, 0]	n/a	FR1	1	R1354E
1786.073	1.6	1787755	WORD	n/a	wordpools/wordpool_EN.txt	STREET	10	16	[0, 0, 0]	n/a	FR1	1	R1354E
1787.71	0.957	1789392	WORD_OFF	n/a	n/a	STREET	10	16	[0, 0, 0]	n/a	FR1	1	R1354E
1788.667	1.6	1790349	WORD	n/a	wordpools/wordpool_EN.txt	VEST	11	16	[0, 0, 0]	n/a	FR1	1	R1354E
1790.293	0.979	1791975	WORD_OFF	n/a	n/a	VEST	11	16	[0, 0, 0]	n/a	FR1	1	R1354E
1791.272	1.6	1792954	WORD	n/a	wordpools/wordpool_EN.txt	WORLD	12	16	[0, 0, 0]	n/a	FR1	1	R1354E
1792.894	0.0	1794576	WORD_OFF	n/a	n/a	WORLD	12	16	[0, 0, 0]	n/a	FR1	1	R1354E
1792.894	0.0	1794576	ENCODING_END	n/a	n/a	n/a	-999	16	[0, 0, 0]	n/a	FR1	1	R1354E
1792.894	0.0	1794576	DISTRACT_START	n/a	n/a	n/a	-999	16	[0, 0, 0]	n/a	FR1	1	R1354E
1792.894	0.016	1794576	START	n/a	n/a	n/a	-999	16	[-999, -999, -999]	n/a	FR1	1	R1354E
1792.91	1.635	1794592	PROB	1.597	n/a	n/a	-999	16	[6, 1, 1]	8.0	FR1	1	R1354E
1794.545	1.833	1796227	PROB	1.809	n/a	n/a	-999	16	[5, 9, 6]	20.0	FR1	1	R1354E
1796.378	2.101	1798060	PROB	2.072	n/a	n/a	-999	16	[9, 6, 4]	19.0	FR1	1	R1354E
1798.479	1.349	1800161	PROB	1.315	n/a	n/a	-999	16	[1, 4, 7]	12.0	FR1	1	R1354E
1799.828	1.217	1801510	PROB	1.191	n/a	n/a	-999	16	[5, 7, 1]	13.0	FR1	1	R1354E
1801.045	1.451	1802727	PROB	1.414	n/a	n/a	-999	16	[5, 2, 4]	13.0	FR1	1	R1354E
1802.496	1.967	1804178	PROB	1.931	n/a	n/a	-999	16	[2, 8, 1]	11.0	FR1	1	R1354E
1804.463	1.0	1806145	PROB	0.964	n/a	n/a	-999	16	[1, 5, 5]	11.0	FR1	1	R1354E
1805.463	1.416	1807145	PROB	1.379	n/a	n/a	-999	16	[1, 9, 8]	18.0	FR1	1	R1354E
1806.879	2.067	1808561	PROB	2.043	n/a	n/a	-999	16	[7, 9, 8]	24.0	FR1	1	R1354E
1808.946	1.2	1810628	PROB	1.176	n/a	n/a	-999	16	[8, 5, 5]	18.0	FR1	1	R1354E
1810.146	1.201	1811828	PROB	1.176	n/a	n/a	-999	16	[8, 2, 1]	11.0	FR1	1	R1354E
1811.347	1.822	1813028	PROB	1.822	n/a	n/a	-999	16	[8, 3, 5]	16.0	FR1	1	R1354E
1813.169	0.011	1814850	STOP	n/a	n/a	n/a	-999	16	[-999, -999, -999]	n/a	FR1	1	R1354E
1813.18	0.615	1814861	DISTRACT_END	n/a	n/a	n/a	-999	16	[0, 0, 0]	n/a	FR1	1	R1354E
1813.795	1.6	1815476	RETRIEVAL_ORIENT_START	n/a	n/a	n/a	-999	16	[0, 0, 0]	n/a	FR1	1	R1354E
1815.365	0.0	1817046	REC_WORD	0.0	n/a	VAN	5	16	[0, 0, 0]	n/a	FR1	1	R1354E
1815.365	0.0	1817046	REC_START	n/a	n/a	n/a	-999	16	[0, 0, 0]	n/a	FR1	1	R1354E
1815.365	0.494	1817046	RETRIEVAL_ORIENT_END	n/a	n/a	n/a	-999	16	[0, 0, 0]	n/a	FR1	1	R1354E
1815.859	3.207	1817540	REC_WORD	0.494	n/a	STREET	10	16	[0, 0, 0]	n/a	FR1	1	R1354E
1819.066	26.309	1820747	REC_WORD	3.701	n/a	WORLD	12	16	[0, 0, 0]	n/a	FR1	1	R1354E
1845.375	0.0	1847055	REC_END	n/a	n/a	n/a	-999	16	[0, 0, 0]	n/a	FR1	1	R1354E
1845.375	0.018	1847055	TRIAL_END	n/a	n/a	n/a	-999	16	[0, 0, 0]	n/a	FR1	1	R1354E
1845.393	0.0	1847073	TRIAL_START	n/a	n/a	n/a	-999	17	[0, 0, 0]	n/a	FR1	1	R1354E
1845.393	0.0	1847073	TRIAL	n/a	n/a	n/a	-999	17	[0, 0, 0]	n/a	FR1	1	R1354E
1845.393	3.245	1847073	WAITING_START	n/a	n/a	n/a	-999	17	[0, 0, 0]	n/a	FR1	1	R1354E
1848.638	10.0	1850318	COUNTDOWN_START	n/a	n/a	n/a	-999	17	[0, 0, 0]	n/a	FR1	1	R1354E
1848.638	10.428	1850318	WAITING_END	n/a	n/a	n/a	-999	17	[0, 0, 0]	n/a	FR1	1	R1354E
1859.066	0.001	1860746	COUNTDOWN_END	n/a	n/a	n/a	-999	17	[0, 0, 0]	n/a	FR1	1	R1354E
1859.067	1.172	1860747	ORIENT_START	n/a	n/a	n/a	-999	17	[0, 0, 0]	n/a	FR1	1	R1354E
1860.239	0.0	1861919	ORIENT_END	n/a	n/a	n/a	-999	17	[0, 0, 0]	n/a	FR1	1	R1354E
1860.239	0.779	1861919	ENCODING_START	n/a	n/a	n/a	-999	17	[0, 0, 0]	n/a	FR1	1	R1354E
1861.018	1.6	1862698	WORD	n/a	wordpools/wordpool_EN.txt	SUIT	1	17	[0, 0, 0]	n/a	FR1	1	R1354E
1862.64	1.052	1864320	WORD_OFF	n/a	n/a	SUIT	1	17	[0, 0, 0]	n/a	FR1	1	R1354E
1863.692	1.6	1865372	WORD	n/a	wordpools/wordpool_EN.txt	FLAME	2	17	[0, 0, 0]	n/a	FR1	1	R1354E
1865.323	0.762	1867003	WORD_OFF	n/a	n/a	FLAME	2	17	[0, 0, 0]	n/a	FR1	1	R1354E
1866.085	1.6	1867765	WORD	n/a	wordpools/wordpool_EN.txt	FAN	3	17	[0, 0, 0]	n/a	FR1	1	R1354E
1867.708	0.824	1869387	WORD_OFF	n/a	n/a	FAN	3	17	[0, 0, 0]	n/a	FR1	1	R1354E
1868.532	1.6	1870211	WORD	n/a	wordpools/wordpool_EN.txt	MAIL	4	17	[0, 0, 0]	n/a	FR1	1	R1354E
1870.157	0.825	1871836	WORD_OFF	n/a	n/a	MAIL	4	17	[0, 0, 0]	n/a	FR1	1	R1354E
1870.982	1.6	1872661	WORD	n/a	wordpools/wordpool_EN.txt	ROAD	5	17	[0, 0, 0]	n/a	FR1	1	R1354E
1872.592	1.136	1874271	WORD_OFF	n/a	n/a	ROAD	5	17	[0, 0, 0]	n/a	FR1	1	R1354E
1873.728	1.6	1875407	WORD	n/a	wordpools/wordpool_EN.txt	WOLF	6	17	[0, 0, 0]	n/a	FR1	1	R1354E
1875.358	0.838	1877037	WORD_OFF	n/a	n/a	WOLF	6	17	[0, 0, 0]	n/a	FR1	1	R1354E
1876.196	1.6	1877875	WORD	n/a	wordpools/wordpool_EN.txt	INK	7	17	[0, 0, 0]	n/a	FR1	1	R1354E
1877.825	0.895	1879504	WORD_OFF	n/a	n/a	INK	7	17	[0, 0, 0]	n/a	FR1	1	R1354E
1878.72	1.6	1880399	WORD	n/a	wordpools/wordpool_EN.txt	DRUM	8	17	[0, 0, 0]	n/a	FR1	1	R1354E
1880.342	0.906	1882021	WORD_OFF	n/a	n/a	DRUM	8	17	[0, 0, 0]	n/a	FR1	1	R1354E
1881.248	1.6	1882927	WORD	n/a	wordpools/wordpool_EN.txt	BAT	9	17	[0, 0, 0]	n/a	FR1	1	R1354E
1882.876	0.793	1884555	WORD_OFF	n/a	n/a	BAT	9	17	[0, 0, 0]	n/a	FR1	1	R1354E
1883.669	1.6	1885348	WORD	n/a	wordpools/wordpool_EN.txt	FUR	10	17	[0, 0, 0]	n/a	FR1	1	R1354E
1885.293	0.996	1886972	WORD_OFF	n/a	n/a	FUR	10	17	[0, 0, 0]	n/a	FR1	1	R1354E
1886.289	1.6	1887968	WORD	n/a	wordpools/wordpool_EN.txt	BARN	11	17	[0, 0, 0]	n/a	FR1	1	R1354E
1887.91	0.97	1889589	WORD_OFF	n/a	n/a	BARN	11	17	[0, 0, 0]	n/a	FR1	1	R1354E
1888.88	1.6	1890559	WORD	n/a	wordpools/wordpool_EN.txt	STAR	12	17	[0, 0, 0]	n/a	FR1	1	R1354E
1890.512	0.0	1892191	WORD_OFF	n/a	n/a	STAR	12	17	[0, 0, 0]	n/a	FR1	1	R1354E
1890.512	0.001	1892191	ENCODING_END	n/a	n/a	n/a	-999	17	[0, 0, 0]	n/a	FR1	1	R1354E
1890.513	0.0	1892192	DISTRACT_START	n/a	n/a	n/a	-999	17	[0, 0, 0]	n/a	FR1	1	R1354E
1890.513	0.015	1892192	START	n/a	n/a	n/a	-999	17	[-999, -999, -999]	n/a	FR1	1	R1354E
1890.528	2.851	1892207	PROB	2.817	n/a	n/a	-999	17	[1, 9, 3]	13.0	FR1	1	R1354E
1893.379	1.283	1895058	PROB	1.256	n/a	n/a	-999	17	[2, 3, 1]	6.0	FR1	1	R1354E
1894.662	1.734	1896340	PROB	1.699	n/a	n/a	-999	17	[2, 9, 5]	16.0	FR1	1	R1354E
1896.396	2.516	1898074	PROB	2.477	n/a	n/a	-999	17	[7, 5, 4]	16.0	FR1	1	R1354E
1898.912	2.067	1900590	PROB	2.041	n/a	n/a	-999	17	[6, 7, 6]	19.0	FR1	1	R1354E
1900.979	1.033	1902657	PROB	1.007	n/a	n/a	-999	17	[3, 3, 3]	9.0	FR1	1	R1354E
1902.012	2.652	1903690	PROB	2.622	n/a	n/a	-999	17	[3, 6, 9]	18.0	FR1	1	R1354E
1904.664	1.067	1906342	PROB	1.041	n/a	n/a	-999	17	[3, 1, 1]	5.0	FR1	1	R1354E
1905.731	1.466	1907409	PROB	1.438	n/a	n/a	-999	17	[1, 4, 7]	12.0	FR1	1	R1354E
1907.197	1.484	1908875	PROB	1.453	n/a	n/a	-999	17	[5, 4, 9]	18.0	FR1	1	R1354E
1908.681	1.483	1910359	PROB	1.456	n/a	n/a	-999	17	[3, 7, 4]	14.0	FR1	1	R1354E
1910.164	1.117	1911842	PROB	1.117	n/a	n/a	-999	17	[1, 1, 7]	9.0	FR1	1	R1354E
1911.281	0.017	1912959	STOP	n/a	n/a	n/a	-999	17	[-999, -999, -999]	n/a	FR1	1	R1354E
1911.298	0.665	1912976	DISTRACT_END	n/a	n/a	n/a	-999	17	[0, 0, 0]	n/a	FR1	1	R1354E
1911.963	1.6	1913641	RETRIEVAL_ORIENT_START	n/a	n/a	n/a	-999	17	[0, 0, 0]	n/a	FR1	1	R1354E
1913.566	0.0	1915244	RETRIEVAL_ORIENT_END	n/a	n/a	n/a	-999	17	[0, 0, 0]	n/a	FR1	1	R1354E
1913.566	0.323	1915244	REC_START	n/a	n/a	n/a	-999	17	[0, 0, 0]	n/a	FR1	1	R1354E
1913.889	1.217	1915567	REC_WORD	0.323	n/a	BARN	11	17	[0, 0, 0]	n/a	FR1	1	R1354E
1915.106	28.47	1916784	REC_WORD	1.54	n/a	STAR	12	17	[0, 0, 0]	n/a	FR1	1	R1354E
1943.576	0.0	1945253	REC_END	n/a	n/a	n/a	-999	17	[0, 0, 0]	n/a	FR1	1	R1354E
1943.576	0.017	1945253	TRIAL_END	n/a	n/a	n/a	-999	17	[0, 0, 0]	n/a	FR1	1	R1354E
1943.593	0.0	1945270	TRIAL_START	n/a	n/a	n/a	-999	18	[0, 0, 0]	n/a	FR1	1	R1354E
1943.593	0.0	1945270	TRIAL	n/a	n/a	n/a	-999	18	[0, 0, 0]	n/a	FR1	1	R1354E
1943.593	25.282	1945270	WAITING_START	n/a	n/a	n/a	-999	18	[0, 0, 0]	n/a	FR1	1	R1354E
1968.875	0.0	1970551	WAITING_END	n/a	n/a	n/a	-999	18	[0, 0, 0]	n/a	FR1	1	R1354E
1968.875	10.0	1970551	COUNTDOWN_START	n/a	n/a	n/a	-999	18	[0, 0, 0]	n/a	FR1	1	R1354E
1979.303	0.0	1980978	ORIENT_START	n/a	n/a	n/a	-999	18	[0, 0, 0]	n/a	FR1	1	R1354E
1979.303	1.258	1980978	COUNTDOWN_END	n/a	n/a	n/a	-999	18	[0, 0, 0]	n/a	FR1	1	R1354E
1980.561	0.0	1982236	ORIENT_END	n/a	n/a	n/a	-999	18	[0, 0, 0]	n/a	FR1	1	R1354E
1980.561	0.854	1982236	ENCODING_START	n/a	n/a	n/a	-999	18	[0, 0, 0]	n/a	FR1	1	R1354E
1981.415	1.6	1983090	WORD	n/a	wordpools/wordpool_EN.txt	TANK	1	18	[0, 0, 0]	n/a	FR1	1	R1354E
1983.044	0.785	1984719	WORD_OFF	n/a	n/a	TANK	1	18	[0, 0, 0]	n/a	FR1	1	R1354E
1983.829	1.6	1985504	WORD	n/a	wordpools/wordpool_EN.txt	CAVE	2	18	[0, 0, 0]	n/a	FR1	1	R1354E
1985.462	1.117	1987137	WORD_OFF	n/a	n/a	CAVE	2	18	[0, 0, 0]	n/a	FR1	1	R1354E
1986.579	1.6	1988254	WORD	n/a	wordpools/wordpool_EN.txt	CLIFF	3	18	[0, 0, 0]	n/a	FR1	1	R1354E
1988.211	0.858	1989886	WORD_OFF	n/a	n/a	CLIFF	3	18	[0, 0, 0]	n/a	FR1	1	R1354E
1989.069	1.6	1990744	WORD	n/a	wordpools/wordpool_EN.txt	CHALK	4	18	[0, 0, 0]	n/a	FR1	1	R1354E
1990.696	1.109	1992371	WORD_OFF	n/a	n/a	CHALK	4	18	[0, 0, 0]	n/a	FR1	1	R1354E
1991.805	1.6	1993480	WORD	n/a	wordpools/wordpool_EN.txt	JUDGE	5	18	[0, 0, 0]	n/a	FR1	1	R1354E
1993.43	0.751	1995105	WORD_OFF	n/a	n/a	JUDGE	5	18	[0, 0, 0]	n/a	FR1	1	R1354E
1994.181	1.6	1995856	WORD	n/a	wordpools/wordpool_EN.txt	BIRD	6	18	[0, 0, 0]	n/a	FR1	1	R1354E
1995.813	0.835	1997488	WORD_OFF	n/a	n/a	BIRD	6	18	[0, 0, 0]	n/a	FR1	1	R1354E
1996.648	1.6	1998323	WORD	n/a	wordpools/wordpool_EN.txt	CHIEF	7	18	[0, 0, 0]	n/a	FR1	1	R1354E
1998.279	0.95	1999954	WORD_OFF	n/a	n/a	CHIEF	7	18	[0, 0, 0]	n/a	FR1	1	R1354E
1999.229	1.6	2000904	WORD	n/a	wordpools/wordpool_EN.txt	GLOVE	8	18	[0, 0, 0]	n/a	FR1	1	R1354E
2000.863	1.022	2002538	WORD_OFF	n/a	n/a	GLOVE	8	18	[0, 0, 0]	n/a	FR1	1	R1354E
2001.885	1.6	2003560	WORD	n/a	wordpools/wordpool_EN.txt	BROOM	9	18	[0, 0, 0]	n/a	FR1	1	R1354E
2003.515	0.847	2005190	WORD_OFF	n/a	n/a	BROOM	9	18	[0, 0, 0]	n/a	FR1	1	R1354E
2004.362	1.6	2006037	WORD	n/a	wordpools/wordpool_EN.txt	HOOK	10	18	[0, 0, 0]	n/a	FR1	1	R1354E
2005.998	0.804	2007673	WORD_OFF	n/a	n/a	HOOK	10	18	[0, 0, 0]	n/a	FR1	1	R1354E
2006.802	1.6	2008476	WORD	n/a	wordpools/wordpool_EN.txt	SLIME	11	18	[0, 0, 0]	n/a	FR1	1	R1354E
2008.432	0.803	2010106	WORD_OFF	n/a	n/a	SLIME	11	18	[0, 0, 0]	n/a	FR1	1	R1354E
2009.235	1.6	2010909	WORD	n/a	wordpools/wordpool_EN.txt	CART	12	18	[0, 0, 0]	n/a	FR1	1	R1354E
2010.865	0.001	2012539	WORD_OFF	n/a	n/a	CART	12	18	[0, 0, 0]	n/a	FR1	1	R1354E
2010.866	0.0	2012540	DISTRACT_START	n/a	n/a	n/a	-999	18	[0, 0, 0]	n/a	FR1	1	R1354E
2010.866	0.0	2012540	ENCODING_END	n/a	n/a	n/a	-999	18	[0, 0, 0]	n/a	FR1	1	R1354E
2010.866	0.016	2012540	START	n/a	n/a	n/a	-999	18	[-999, -999, -999]	n/a	FR1	1	R1354E
2010.882	3.217	2012556	PROB	3.194	n/a	n/a	-999	18	[8, 6, 3]	17.0	FR1	1	R1354E
2014.099	1.85	2015773	PROB	1.825	n/a	n/a	-999	18	[2, 4, 1]	7.0	FR1	1	R1354E
2015.949	1.568	2017623	PROB	1.536	n/a	n/a	-999	18	[8, 3, 2]	13.0	FR1	1	R1354E
2017.517	2.234	2019191	PROB	2.208	n/a	n/a	-999	18	[8, 2, 7]	17.0	FR1	1	R1354E
2019.751	2.083	2021425	PROB	2.045	n/a	n/a	-999	18	[9, 9, 7]	25.0	FR1	1	R1354E
2021.834	1.967	2023508	PROB	1.93	n/a	n/a	-999	18	[9, 9, 5]	23.0	FR1	1	R1354E
2023.801	1.483	2025475	PROB	1.459	n/a	n/a	-999	18	[2, 6, 7]	15.0	FR1	1	R1354E
2025.284	1.75	2026958	PROB	1.72	n/a	n/a	-999	18	[1, 9, 6]	16.0	FR1	1	R1354E
2027.034	1.335	2028708	PROB	1.306	n/a	n/a	-999	18	[8, 1, 4]	13.0	FR1	1	R1354E
2028.369	1.399	2030043	PROB	1.373	n/a	n/a	-999	18	[9, 7, 6]	22.0	FR1	1	R1354E
2029.768	1.845	2031442	PROB	1.845	n/a	n/a	-999	18	[7, 5, 8]	20.0	FR1	1	R1354E
2031.613	0.007	2033287	STOP	n/a	n/a	n/a	-999	18	[-999, -999, -999]	n/a	FR1	1	R1354E
2031.62	0.621	2033294	DISTRACT_END	n/a	n/a	n/a	-999	18	[0, 0, 0]	n/a	FR1	1	R1354E
2032.241	1.6	2033915	RETRIEVAL_ORIENT_START	n/a	n/a	n/a	-999	18	[0, 0, 0]	n/a	FR1	1	R1354E
2033.953	0.0	2035627	RETRIEVAL_ORIENT_END	n/a	n/a	n/a	-999	18	[0, 0, 0]	n/a	FR1	1	R1354E
2033.953	0.0	2035627	REC_START	n/a	n/a	n/a	-999	18	[0, 0, 0]	n/a	FR1	1	R1354E
2033.953	0.807	2035627	REC_WORD	0.0	n/a	TANK	1	18	[0, 0, 0]	n/a	FR1	1	R1354E
2034.76	0.981	2036434	REC_WORD	0.807	n/a	CAVE	2	18	[0, 0, 0]	n/a	FR1	1	R1354E
2035.741	0.994	2037414	REC_WORD	1.788	n/a	CLIFF	3	18	[0, 0, 0]	n/a	FR1	1	R1354E
2036.735	1.424	2038408	REC_WORD	2.782	n/a	TRUCK	-999	18	[0, 0, 0]	n/a	FR1	1	R1354E
2038.159	25.804	2039832	REC_WORD	4.206	n/a	HOOK	10	18	[0, 0, 0]	n/a	FR1	1	R1354E
2063.963	0.0	2065635	REC_END	n/a	n/a	n/a	-999	18	[0, 0, 0]	n/a	FR1	1	R1354E
2063.963	0.017	2065635	TRIAL_END	n/a	n/a	n/a	-999	18	[0, 0, 0]	n/a	FR1	1	R1354E
2063.98	0.001	2065652	TRIAL_START	n/a	n/a	n/a	-999	19	[0, 0, 0]	n/a	FR1	1	R1354E
2063.981	0.0	2065653	TRIAL	n/a	n/a	n/a	-999	19	[0, 0, 0]	n/a	FR1	1	R1354E
2063.981	24.532	2065653	WAITING_START	n/a	n/a	n/a	-999	19	[0, 0, 0]	n/a	FR1	1	R1354E
2088.513	0.001	2090185	WAITING_END	n/a	n/a	n/a	-999	19	[0, 0, 0]	n/a	FR1	1	R1354E
2088.514	10.0	2090186	COUNTDOWN_START	n/a	n/a	n/a	-999	19	[0, 0, 0]	n/a	FR1	1	R1354E
2098.943	0.0	2100614	ORIENT_START	n/a	n/a	n/a	-999	19	[0, 0, 0]	n/a	FR1	1	R1354E
2098.943	1.121	2100614	COUNTDOWN_END	n/a	n/a	n/a	-999	19	[0, 0, 0]	n/a	FR1	1	R1354E
2100.064	0.001	2101735	ORIENT_END	n/a	n/a	n/a	-999	19	[0, 0, 0]	n/a	FR1	1	R1354E
2100.065	0.75	2101736	ENCODING_START	n/a	n/a	n/a	-999	19	[0, 0, 0]	n/a	FR1	1	R1354E
2100.815	1.6	2102486	WORD	n/a	wordpools/wordpool_EN.txt	RAT	1	19	[0, 0, 0]	n/a	FR1	1	R1354E
2102.449	0.945	2104120	WORD_OFF	n/a	n/a	RAT	1	19	[0, 0, 0]	n/a	FR1	1	R1354E
2103.394	1.6	2105065	WORD	n/a	wordpools/wordpool_EN.txt	ROOT	2	19	[0, 0, 0]	n/a	FR1	1	R1354E
2105.015	1.084	2106686	WORD_OFF	n/a	n/a	ROOT	2	19	[0, 0, 0]	n/a	FR1	1	R1354E
2106.099	1.6	2107770	WORD	n/a	wordpools/wordpool_EN.txt	BOMB	3	19	[0, 0, 0]	n/a	FR1	1	R1354E
2107.733	0.961	2109404	WORD_OFF	n/a	n/a	BOMB	3	19	[0, 0, 0]	n/a	FR1	1	R1354E
2108.694	1.6	2110365	WORD	n/a	wordpools/wordpool_EN.txt	SOUP	4	19	[0, 0, 0]	n/a	FR1	1	R1354E
2110.316	1.128	2111987	WORD_OFF	n/a	n/a	SOUP	4	19	[0, 0, 0]	n/a	FR1	1	R1354E
2111.444	1.6	2113115	WORD	n/a	wordpools/wordpool_EN.txt	TREE	5	19	[0, 0, 0]	n/a	FR1	1	R1354E
2113.066	0.95	2114737	WORD_OFF	n/a	n/a	TREE	5	19	[0, 0, 0]	n/a	FR1	1	R1354E
2114.016	1.6	2115687	WORD	n/a	wordpools/wordpool_EN.txt	WAVE	6	19	[0, 0, 0]	n/a	FR1	1	R1354E
2115.651	0.884	2117322	WORD_OFF	n/a	n/a	WAVE	6	19	[0, 0, 0]	n/a	FR1	1	R1354E
2116.535	1.6	2118206	WORD	n/a	wordpools/wordpool_EN.txt	SWORD	7	19	[0, 0, 0]	n/a	FR1	1	R1354E
2118.167	1.06	2119838	WORD_OFF	n/a	n/a	SWORD	7	19	[0, 0, 0]	n/a	FR1	1	R1354E
2119.227	1.6	2120897	WORD	n/a	wordpools/wordpool_EN.txt	PARK	8	19	[0, 0, 0]	n/a	FR1	1	R1354E
2120.851	0.888	2122521	WORD_OFF	n/a	n/a	PARK	8	19	[0, 0, 0]	n/a	FR1	1	R1354E
2121.739	1.6	2123409	WORD	n/a	wordpools/wordpool_EN.txt	BENCH	9	19	[0, 0, 0]	n/a	FR1	1	R1354E
2123.369	1.104	2125039	WORD_OFF	n/a	n/a	BENCH	9	19	[0, 0, 0]	n/a	FR1	1	R1354E
2124.473	1.6	2126143	WORD	n/a	wordpools/wordpool_EN.txt	TENT	10	19	[0, 0, 0]	n/a	FR1	1	R1354E
2126.102	0.779	2127772	WORD_OFF	n/a	n/a	TENT	10	19	[0, 0, 0]	n/a	FR1	1	R1354E
2126.881	1.6	2128551	WORD	n/a	wordpools/wordpool_EN.txt	PIE	11	19	[0, 0, 0]	n/a	FR1	1	R1354E
2128.504	0.756	2130174	WORD_OFF	n/a	n/a	PIE	11	19	[0, 0, 0]	n/a	FR1	1	R1354E
2129.26	1.6	2130930	WORD	n/a	wordpools/wordpool_EN.txt	STORE	12	19	[0, 0, 0]	n/a	FR1	1	R1354E
2130.886	0.001	2132556	WORD_OFF	n/a	n/a	STORE	12	19	[0, 0, 0]	n/a	FR1	1	R1354E
2130.887	0.0	2132557	ENCODING_END	n/a	n/a	n/a	-999	19	[0, 0, 0]	n/a	FR1	1	R1354E
2130.887	0.0	2132557	DISTRACT_START	n/a	n/a	n/a	-999	19	[0, 0, 0]	n/a	FR1	1	R1354E
2130.887	0.016	2132557	START	n/a	n/a	n/a	-999	19	[-999, -999, -999]	n/a	FR1	1	R1354E
2130.903	2.367	2132573	PROB	2.341	n/a	n/a	-999	19	[3, 4, 2]	9.0	FR1	1	R1354E
2133.27	1.351	2134940	PROB	1.328	n/a	n/a	-999	19	[1, 2, 3]	6.0	FR1	1	R1354E
2134.621	1.917	2136291	PROB	1.88	n/a	n/a	-999	19	[3, 3, 7]	13.0	FR1	1	R1354E
2136.538	1.316	2138208	PROB	1.291	n/a	n/a	-999	19	[3, 1, 2]	6.0	FR1	1	R1354E
2137.854	1.15	2139524	PROB	1.127	n/a	n/a	-999	19	[5, 1, 5]	11.0	FR1	1	R1354E
2139.004	1.385	2140674	PROB	1.353	n/a	n/a	-999	19	[9, 9, 9]	27.0	FR1	1	R1354E
2140.389	2.167	2142059	PROB	2.136	n/a	n/a	-999	19	[9, 2, 6]	17.0	FR1	1	R1354E
2142.556	1.266	2144226	PROB	1.24	n/a	n/a	-999	19	[2, 5, 2]	9.0	FR1	1	R1354E
2143.822	1.634	2145492	PROB	1.599	n/a	n/a	-999	19	[8, 1, 9]	18.0	FR1	1	R1354E
2145.456	1.549	2147126	PROB	1.518	n/a	n/a	-999	19	[7, 6, 8]	21.0	FR1	1	R1354E
2147.005	1.702	2148675	PROB	1.672	n/a	n/a	-999	19	[5, 7, 6]	18.0	FR1	1	R1354E
2148.707	1.549	2150376	PROB	1.514	n/a	n/a	-999	19	[1, 9, 5]	15.0	FR1	1	R1354E
2150.256	1.294	2151925	PROB	1.294	n/a	n/a	-999	19	[1, 6, 1]	8.0	FR1	1	R1354E
2151.55	0.008	2153219	STOP	n/a	n/a	n/a	-999	19	[-999, -999, -999]	n/a	FR1	1	R1354E
2151.558	0.637	2153227	DISTRACT_END	n/a	n/a	n/a	-999	19	[0, 0, 0]	n/a	FR1	1	R1354E
2152.195	1.6	2153864	RETRIEVAL_ORIENT_START	n/a	n/a	n/a	-999	19	[0, 0, 0]	n/a	FR1	1	R1354E
2153.824	0.0	2155493	RETRIEVAL_ORIENT_END	n/a	n/a	n/a	-999	19	[0, 0, 0]	n/a	FR1	1	R1354E
2153.824	0.064	2155493	REC_START	n/a	n/a	n/a	-999	19	[0, 0, 0]	n/a	FR1	1	R1354E
2153.888	1.11	2155557	REC_WORD	0.064	n/a	RAT	1	19	[0, 0, 0]	n/a	FR1	1	R1354E
2154.998	4.083	2156667	REC_WORD	1.174	n/a	ROOM	-999	19	[0, 0, 0]	n/a	FR1	1	R1354E
2159.081	5.426	2160750	REC_WORD	5.257	n/a	SOUP	4	19	[0, 0, 0]	n/a	FR1	1	R1354E
2164.507	19.328	2166176	REC_WORD	10.683	n/a	ROOM	-999	19	[0, 0, 0]	n/a	FR1	1	R1354E
2183.835	0.0	2185503	TRIAL_END	n/a	n/a	n/a	-999	19	[0, 0, 0]	n/a	FR1	1	R1354E
2183.835	0.017	2185503	REC_END	n/a	n/a	n/a	-999	19	[0, 0, 0]	n/a	FR1	1	R1354E
2183.852	0.0	2185520	TRIAL_START	n/a	n/a	n/a	-999	20	[0, 0, 0]	n/a	FR1	1	R1354E
2183.852	0.001	2185520	TRIAL	n/a	n/a	n/a	-999	20	[0, 0, 0]	n/a	FR1	1	R1354E
2183.853	9.895	2185521	WAITING_START	n/a	n/a	n/a	-999	20	[0, 0, 0]	n/a	FR1	1	R1354E
2193.748	0.001	2195416	WAITING_END	n/a	n/a	n/a	-999	20	[0, 0, 0]	n/a	FR1	1	R1354E
2193.749	10.0	2195417	COUNTDOWN_START	n/a	n/a	n/a	-999	20	[0, 0, 0]	n/a	FR1	1	R1354E
2204.177	0.001	2205844	COUNTDOWN_END	n/a	n/a	n/a	-999	20	[0, 0, 0]	n/a	FR1	1	R1354E
2204.178	1.222	2205845	ORIENT_START	n/a	n/a	n/a	-999	20	[0, 0, 0]	n/a	FR1	1	R1354E
2205.4	0.001	2207067	ORIENT_END	n/a	n/a	n/a	-999	20	[0, 0, 0]	n/a	FR1	1	R1354E
2205.401	0.875	2207068	ENCODING_START	n/a	n/a	n/a	-999	20	[0, 0, 0]	n/a	FR1	1	R1354E
2206.276	1.6	2207943	WORD	n/a	wordpools/wordpool_EN.txt	CAR	1	20	[0, 0, 0]	n/a	FR1	1	R1354E
2207.9	1.007	2209567	WORD_OFF	n/a	n/a	CAR	1	20	[0, 0, 0]	n/a	FR1	1	R1354E
2208.907	1.6	2210574	WORD	n/a	wordpools/wordpool_EN.txt	FACE	2	20	[0, 0, 0]	n/a	FR1	1	R1354E
2210.535	0.833	2212202	WORD_OFF	n/a	n/a	FACE	2	20	[0, 0, 0]	n/a	FR1	1	R1354E
2211.368	1.6	2213035	WORD	n/a	wordpools/wordpool_EN.txt	ARM	3	20	[0, 0, 0]	n/a	FR1	1	R1354E
2213.001	1.017	2214668	WORD_OFF	n/a	n/a	ARM	3	20	[0, 0, 0]	n/a	FR1	1	R1354E
2214.018	1.6	2215685	WORD	n/a	wordpools/wordpool_EN.txt	SKI	4	20	[0, 0, 0]	n/a	FR1	1	R1354E
2215.652	1.149	2217319	WORD_OFF	n/a	n/a	SKI	4	20	[0, 0, 0]	n/a	FR1	1	R1354E
2216.801	1.6	2218468	WORD	n/a	wordpools/wordpool_EN.txt	SWAMP	5	20	[0, 0, 0]	n/a	FR1	1	R1354E
2218.436	1.074	2220103	WORD_OFF	n/a	n/a	SWAMP	5	20	[0, 0, 0]	n/a	FR1	1	R1354E
2219.51	1.6	2221177	WORD	n/a	wordpools/wordpool_EN.txt	FOAM	6	20	[0, 0, 0]	n/a	FR1	1	R1354E
2221.135	0.894	2222802	WORD_OFF	n/a	n/a	FOAM	6	20	[0, 0, 0]	n/a	FR1	1	R1354E
2222.029	1.6	2223696	WORD	n/a	wordpools/wordpool_EN.txt	TOE	7	20	[0, 0, 0]	n/a	FR1	1	R1354E
2223.654	1.145	2225321	WORD_OFF	n/a	n/a	TOE	7	20	[0, 0, 0]	n/a	FR1	1	R1354E
2224.799	1.6	2226466	WORD	n/a	wordpools/wordpool_EN.txt	ICE	8	20	[0, 0, 0]	n/a	FR1	1	R1354E
2226.404	1.017	2228071	WORD_OFF	n/a	n/a	ICE	8	20	[0, 0, 0]	n/a	FR1	1	R1354E
2227.421	1.6	2229088	WORD	n/a	wordpools/wordpool_EN.txt	SHEEP	9	20	[0, 0, 0]	n/a	FR1	1	R1354E
2229.053	0.888	2230720	WORD_OFF	n/a	n/a	SHEEP	9	20	[0, 0, 0]	n/a	FR1	1	R1354E
2229.941	1.6	2231608	WORD	n/a	wordpools/wordpool_EN.txt	BOX	10	20	[0, 0, 0]	n/a	FR1	1	R1354E
2231.555	0.946	2233221	WORD_OFF	n/a	n/a	BOX	10	20	[0, 0, 0]	n/a	FR1	1	R1354E
2232.501	1.6	2234167	WORD	n/a	wordpools/wordpool_EN.txt	BEAK	11	20	[0, 0, 0]	n/a	FR1	1	R1354E
2234.121	1.014	2235787	WORD_OFF	n/a	n/a	BEAK	11	20	[0, 0, 0]	n/a	FR1	1	R1354E
2235.135	1.6	2236801	WORD	n/a	wordpools/wordpool_EN.txt	PEAR	12	20	[0, 0, 0]	n/a	FR1	1	R1354E
2236.756	0.0	2238422	WORD_OFF	n/a	n/a	PEAR	12	20	[0, 0, 0]	n/a	FR1	1	R1354E
2236.756	0.0	2238422	ENCODING_END	n/a	n/a	n/a	-999	20	[0, 0, 0]	n/a	FR1	1	R1354E
2236.756	0.001	2238422	DISTRACT_START	n/a	n/a	n/a	-999	20	[0, 0, 0]	n/a	FR1	1	R1354E
2236.757	0.014	2238423	START	n/a	n/a	n/a	-999	20	[-999, -999, -999]	n/a	FR1	1	R1354E
2236.771	2.618	2238437	PROB	2.592	n/a	n/a	-999	20	[9, 1, 6]	16.0	FR1	1	R1354E
2239.389	2.217	2241055	PROB	2.189	n/a	n/a	-999	20	[3, 9, 1]	13.0	FR1	1	R1354E
2241.606	1.433	2243272	PROB	1.395	n/a	n/a	-999	20	[7, 9, 5]	21.0	FR1	1	R1354E
2243.039	1.535	2244705	PROB	1.5	n/a	n/a	-999	20	[2, 6, 1]	9.0	FR1	1	R1354E
2244.574	1.133	2246240	PROB	1.108	n/a	n/a	-999	20	[1, 6, 3]	10.0	FR1	1	R1354E
2245.707	1.917	2247373	PROB	1.88	n/a	n/a	-999	20	[3, 7, 6]	16.0	FR1	1	R1354E
2247.624	1.117	2249290	PROB	1.082	n/a	n/a	-999	20	[8, 3, 1]	12.0	FR1	1	R1354E
2248.741	1.633	2250407	PROB	1.604	n/a	n/a	-999	20	[4, 7, 9]	20.0	FR1	1	R1354E
2250.374	1.134	2252040	PROB	1.108	n/a	n/a	-999	20	[1, 6, 4]	11.0	FR1	1	R1354E
2251.508	1.2	2253174	PROB	1.167	n/a	n/a	-999	20	[1, 1, 6]	8.0	FR1	1	R1354E
2252.708	1.416	2254374	PROB	1.382	n/a	n/a	-999	20	[8, 5, 5]	18.0	FR1	1	R1354E
2254.124	1.518	2255790	PROB	1.494	n/a	n/a	-999	20	[6, 9, 4]	19.0	FR1	1	R1354E
2255.642	1.52	2257308	PROB	1.52	n/a	n/a	-999	20	[6, 9, 6]	21.0	FR1	1	R1354E
2257.162	0.013	2258828	STOP	n/a	n/a	n/a	-999	20	[-999, -999, -999]	n/a	FR1	1	R1354E
2257.175	0.665	2258841	DISTRACT_END	n/a	n/a	n/a	-999	20	[0, 0, 0]	n/a	FR1	1	R1354E
2257.84	1.6	2259506	RETRIEVAL_ORIENT_START	n/a	n/a	n/a	-999	20	[0, 0, 0]	n/a	FR1	1	R1354E
2259.51	0.0	2261175	RETRIEVAL_ORIENT_END	n/a	n/a	n/a	-999	20	[0, 0, 0]	n/a	FR1	1	R1354E
2259.51	0.144	2261175	REC_START	n/a	n/a	n/a	-999	20	[0, 0, 0]	n/a	FR1	1	R1354E
2259.654	0.592	2261319	REC_WORD	0.144	n/a	CAR	1	20	[0, 0, 0]	n/a	FR1	1	R1354E
