onset	duration	sample	trial_type	response_time	stim_file	item_name	serialpos	list	test	answer	experiment	session	subject
0.0	38.658	106343	SESS_START	n/a	n/a	n/a	-999	-999	[0, 0, 0]	n/a	FR1	2	R1111M
38.658	10.0	125671	COUNTDOWN_START	n/a	n/a	n/a	-999	-999	[0, 0, 0]	n/a	FR1	2	R1111M
49.086	3.891	130885	COUNTDOWN_END	n/a	n/a	n/a	-999	-999	[0, 0, 0]	n/a	FR1	2	R1111M
52.977	1.6	132830	PRACTICE_WORD	n/a	n/a	FLOOD	1	-1	[0, 0, 0]	n/a	FR1	2	R1111M
55.428	1.6	134056	PRACTICE_WORD	n/a	n/a	WAGON	2	-1	[0, 0, 0]	n/a	FR1	2	R1111M
57.878	1.6	135281	PRACTICE_WORD	n/a	n/a	BEAM	3	-1	[0, 0, 0]	n/a	FR1	2	R1111M
60.279	1.6	136481	PRACTICE_WORD	n/a	n/a	WATCH	4	-1	[0, 0, 0]	n/a	FR1	2	R1111M
62.746	1.6	137714	PRACTICE_WORD	n/a	n/a	IRON	5	-1	[0, 0, 0]	n/a	FR1	2	R1111M
65.28	1.6	138981	PRACTICE_WORD	n/a	n/a	RHINO	6	-1	[0, 0, 0]	n/a	FR1	2	R1111M
67.78	1.6	140231	PRACTICE_WORD	n/a	n/a	RING	7	-1	[0, 0, 0]	n/a	FR1	2	R1111M
70.181	1.6	141432	PRACTICE_WORD	n/a	n/a	ATTIC	8	-1	[0, 0, 0]	n/a	FR1	2	R1111M
72.665	1.6	142674	PRACTICE_WORD	n/a	n/a	CAMEL	9	-1	[0, 0, 0]	n/a	FR1	2	R1111M
75.265	1.6	143974	PRACTICE_WORD	n/a	n/a	COTTON	10	-1	[0, 0, 0]	n/a	FR1	2	R1111M
77.699	1.6	145190	PRACTICE_WORD	n/a	n/a	CHEST	11	-1	[0, 0, 0]	n/a	FR1	2	R1111M
80.199	1.6	146440	PRACTICE_WORD	n/a	n/a	TONGUE	12	-1	[0, 0, 0]	n/a	FR1	2	R1111M
81.816	0.001	147249	PRACTICE_DISTRACT_START	n/a	n/a	n/a	-999	-1	[0, 0, 0]	n/a	FR1	2	R1111M
81.817	0.016	147249	START	n/a	n/a	n/a	-999	-1	[-999, -999, -999]	n/a	FR1	2	R1111M
81.833	8.285	147257	PROB	8.257	n/a	n/a	-999	-1	[2, 6, 2]	10.0	FR1	2	R1111M
90.118	2.434	151400	PROB	2.411	n/a	n/a	-999	-1	[2, 5, 5]	12.0	FR1	2	R1111M
92.552	3.751	152617	PROB	3.722	n/a	n/a	-999	-1	[2, 2, 8]	14.0	FR1	2	R1111M
96.303	8.451	154492	PROB	8.451	n/a	n/a	-999	-1	[8, 5, 3]	16.0	FR1	2	R1111M
104.754	0.017	158717	STOP	n/a	n/a	n/a	-999	-1	[-999, -999, -999]	n/a	FR1	2	R1111M
104.771	0.602	158726	PRACTICE_DISTRACT_END	n/a	n/a	n/a	-999	-1	[0, 0, 0]	n/a	FR1	2	R1111M
105.373	30.515	159027	PRACTICE_REC_START	n/a	n/a	n/a	-999	-1	[0, 0, 0]	n/a	FR1	2	R1111M
135.888	5.307	174283	PRACTICE_REC_END	n/a	n/a	n/a	-999	-1	[0, 0, 0]	n/a	FR1	2	R1111M
141.195	0.0	176937	TRIAL	n/a	n/a	n/a	-999	1	[0, 0, 0]	n/a	FR1	2	R1111M
141.195	10.0	176937	COUNTDOWN_START	n/a	n/a	n/a	-999	1	[0, 0, 0]	n/a	FR1	2	R1111M
151.623	0.007	182150	COUNTDOWN_END	n/a	n/a	n/a	-999	1	[0, 0, 0]	n/a	FR1	2	R1111M
151.63	1.6	182154	ORIENT	n/a	n/a	n/a	-999	1	[0, 0, 0]	n/a	FR1	2	R1111M
154.047	1.6	183362	WORD	n/a	wordpools/wordpool_EN.txt	JUICE	1	1	[0, 0, 0]	n/a	FR1	2	R1111M
156.647	1.6	184662	WORD	n/a	wordpools/wordpool_EN.txt	DIME	2	1	[0, 0, 0]	n/a	FR1	2	R1111M
159.081	1.6	185879	WORD	n/a	wordpools/wordpool_EN.txt	BLUSH	3	1	[0, 0, 0]	n/a	FR1	2	R1111M
161.599	1.6	187138	WORD	n/a	wordpools/wordpool_EN.txt	DITCH	4	1	[0, 0, 0]	n/a	FR1	2	R1111M
164.032	1.6	188355	WORD	n/a	wordpools/wordpool_EN.txt	HOLE	5	1	[0, 0, 0]	n/a	FR1	2	R1111M
166.649	1.6	189663	WORD	n/a	wordpools/wordpool_EN.txt	STOVE	6	1	[0, 0, 0]	n/a	FR1	2	R1111M
169.133	1.6	190905	WORD	n/a	wordpools/wordpool_EN.txt	CAKE	7	1	[0, 0, 0]	n/a	FR1	2	R1111M
171.734	1.6	192205	WORD	n/a	wordpools/wordpool_EN.txt	BATH	8	1	[0, 0, 0]	n/a	FR1	2	R1111M
174.201	1.6	193439	WORD	n/a	wordpools/wordpool_EN.txt	GLOVE	9	1	[0, 0, 0]	n/a	FR1	2	R1111M
176.685	1.6	194681	WORD	n/a	wordpools/wordpool_EN.txt	SOAP	10	1	[0, 0, 0]	n/a	FR1	2	R1111M
179.202	1.6	195939	WORD	n/a	wordpools/wordpool_EN.txt	SOCK	11	1	[0, 0, 0]	n/a	FR1	2	R1111M
181.802	1.6	197239	WORD	n/a	wordpools/wordpool_EN.txt	CHALK	12	1	[0, 0, 0]	n/a	FR1	2	R1111M
183.419	0.001	198047	DISTRACT_START	n/a	n/a	n/a	-999	1	[0, 0, 0]	n/a	FR1	2	R1111M
183.42	0.016	198048	START	n/a	n/a	n/a	-999	1	[-999, -999, -999]	n/a	FR1	2	R1111M
183.436	5.218	198056	PROB	5.198	n/a	n/a	-999	1	[3, 8, 4]	15.0	FR1	2	R1111M
188.654	5.801	200665	PROB	5.772	n/a	n/a	-999	1	[9, 9, 6]	24.0	FR1	2	R1111M
194.455	4.701	203565	PROB	4.674	n/a	n/a	-999	1	[7, 4, 3]	14.0	FR1	2	R1111M
199.156	7.206	205916	PROB	7.206	n/a	n/a	-999	1	[4, 6, 8]	18.0	FR1	2	R1111M
206.362	0.012	209518	STOP	n/a	n/a	n/a	-999	1	[-999, -999, -999]	n/a	FR1	2	R1111M
206.374	1.117	209524	DISTRACT_END	n/a	n/a	n/a	-999	1	[0, 0, 0]	n/a	FR1	2	R1111M
207.491	1.75	210083	REC_START	n/a	n/a	n/a	-999	1	[0, 0, 0]	n/a	FR1	2	R1111M
209.241	1.11	210958	REC_WORD	1.75	n/a	HOLE	-999	1	[0, 0, 0]	n/a	FR1	2	R1111M
210.351	0.626	211513	REC_WORD	2.86	n/a	DITCH	-999	1	[0, 0, 0]	n/a	FR1	2	R1111M
210.977	1.156	211826	REC_WORD	3.486	n/a	STOVE	-999	1	[0, 0, 0]	n/a	FR1	2	R1111M
212.133	2.479	212404	REC_WORD	4.642	n/a	CAKE	-999	1	[0, 0, 0]	n/a	FR1	2	R1111M
214.612	2.967	213643	REC_WORD	7.121	n/a	GLOVE	-999	1	[0, 0, 0]	n/a	FR1	2	R1111M
217.579	2.325	215127	REC_WORD	10.088	n/a	SOCK	-999	1	[0, 0, 0]	n/a	FR1	2	R1111M
219.904	13.511	216289	REC_WORD	12.413	n/a	BATH	-999	1	[0, 0, 0]	n/a	FR1	2	R1111M
233.415	4.086	223044	REC_WORD_VV	25.924	n/a	<>	-999	1	[0, 0, 0]	n/a	FR1	2	R1111M
237.501	3.629	225087	REC_END	n/a	n/a	n/a	-999	1	[0, 0, 0]	n/a	FR1	2	R1111M
241.13	10.0	226901	COUNTDOWN_START	n/a	n/a	n/a	-999	2	[0, 0, 0]	n/a	FR1	2	R1111M
241.131	10.427	226902	TRIAL	n/a	n/a	n/a	-999	2	[0, 0, 0]	n/a	FR1	2	R1111M
251.558	0.008	232115	COUNTDOWN_END	n/a	n/a	n/a	-999	2	[0, 0, 0]	n/a	FR1	2	R1111M
251.566	1.6	232119	ORIENT	n/a	n/a	n/a	-999	2	[0, 0, 0]	n/a	FR1	2	R1111M
254.0	1.6	233336	WORD	n/a	wordpools/wordpool_EN.txt	PIT	1	2	[0, 0, 0]	n/a	FR1	2	R1111M
256.45	1.6	234561	WORD	n/a	wordpools/wordpool_EN.txt	PEACH	2	2	[0, 0, 0]	n/a	FR1	2	R1111M
258.917	1.6	235794	WORD	n/a	wordpools/wordpool_EN.txt	FLUTE	3	2	[0, 0, 0]	n/a	FR1	2	R1111M
261.518	1.6	237095	WORD	n/a	wordpools/wordpool_EN.txt	CORN	4	2	[0, 0, 0]	n/a	FR1	2	R1111M
264.118	1.6	238395	WORD	n/a	wordpools/wordpool_EN.txt	JUDGE	5	2	[0, 0, 0]	n/a	FR1	2	R1111M
266.552	1.6	239612	WORD	n/a	wordpools/wordpool_EN.txt	CART	6	2	[0, 0, 0]	n/a	FR1	2	R1111M
268.936	1.6	240804	WORD	n/a	wordpools/wordpool_EN.txt	TREE	7	2	[0, 0, 0]	n/a	FR1	2	R1111M
271.369	1.6	242020	WORD	n/a	wordpools/wordpool_EN.txt	ROOM	8	2	[0, 0, 0]	n/a	FR1	2	R1111M
273.903	1.6	243287	WORD	n/a	wordpools/wordpool_EN.txt	STREET	9	2	[0, 0, 0]	n/a	FR1	2	R1111M
276.304	1.6	244487	WORD	n/a	wordpools/wordpool_EN.txt	BENCH	10	2	[0, 0, 0]	n/a	FR1	2	R1111M
278.888	1.6	245779	WORD	n/a	wordpools/wordpool_EN.txt	BOWL	11	2	[0, 0, 0]	n/a	FR1	2	R1111M
281.305	1.6	246988	WORD	n/a	wordpools/wordpool_EN.txt	FRUIT	12	2	[0, 0, 0]	n/a	FR1	2	R1111M
282.922	0.001	247796	DISTRACT_START	n/a	n/a	n/a	-999	2	[0, 0, 0]	n/a	FR1	2	R1111M
282.923	0.016	247797	START	n/a	n/a	n/a	-999	2	[-999, -999, -999]	n/a	FR1	2	R1111M
282.939	9.401	247805	PROB	9.375	n/a	n/a	-999	2	[2, 5, 4]	11.0	FR1	2	R1111M
292.34	7.468	252505	PROB	7.438	n/a	n/a	-999	2	[9, 3, 5]	17.0	FR1	2	R1111M
299.808	4.21	256239	PROB	4.21	n/a	n/a	-999	2	[7, 2, 1]	10.0	FR1	2	R1111M
304.018	0.008	258344	STOP	n/a	n/a	n/a	-999	2	[-999, -999, -999]	n/a	FR1	2	R1111M
304.026	1.134	258348	DISTRACT_END	n/a	n/a	n/a	-999	2	[0, 0, 0]	n/a	FR1	2	R1111M
305.16	2.403	258915	REC_START	n/a	n/a	n/a	-999	2	[0, 0, 0]	n/a	FR1	2	R1111M
307.563	1.42	260116	REC_WORD	2.403	n/a	FLUTE	-999	2	[0, 0, 0]	n/a	FR1	2	R1111M
308.983	6.656	260826	REC_WORD	3.823	n/a	CORN	-999	2	[0, 0, 0]	n/a	FR1	2	R1111M
315.639	2.823	264154	REC_WORD	10.479	n/a	BOWL	-999	2	[0, 0, 0]	n/a	FR1	2	R1111M
318.462	1.006	265565	REC_WORD	13.302	n/a	TREE	-999	2	[0, 0, 0]	n/a	FR1	2	R1111M
319.468	0.861	266068	REC_WORD	14.308	n/a	PEACH	-999	2	[0, 0, 0]	n/a	FR1	2	R1111M
320.329	14.844	266499	REC_WORD	15.169	n/a	PIT	-999	2	[0, 0, 0]	n/a	FR1	2	R1111M
335.173	7.944	273920	REC_END	n/a	n/a	n/a	-999	2	[0, 0, 0]	n/a	FR1	2	R1111M
343.117	0.0	277892	TRIAL	n/a	n/a	n/a	-999	3	[0, 0, 0]	n/a	FR1	2	R1111M
343.117	10.0	277892	COUNTDOWN_START	n/a	n/a	n/a	-999	3	[0, 0, 0]	n/a	FR1	2	R1111M
353.545	0.007	283106	COUNTDOWN_END	n/a	n/a	n/a	-999	3	[0, 0, 0]	n/a	FR1	2	R1111M
353.552	1.6	283109	ORIENT	n/a	n/a	n/a	-999	3	[0, 0, 0]	n/a	FR1	2	R1111M
356.103	1.6	284385	WORD	n/a	wordpools/wordpool_EN.txt	CROW	1	3	[0, 0, 0]	n/a	FR1	2	R1111M
358.72	1.6	285693	WORD	n/a	wordpools/wordpool_EN.txt	ROOT	2	3	[0, 0, 0]	n/a	FR1	2	R1111M
361.237	1.6	286951	WORD	n/a	wordpools/wordpool_EN.txt	PLANT	3	3	[0, 0, 0]	n/a	FR1	2	R1111M
363.704	1.6	288185	WORD	n/a	wordpools/wordpool_EN.txt	CHIEF	4	3	[0, 0, 0]	n/a	FR1	2	R1111M
366.254	1.6	289460	WORD	n/a	wordpools/wordpool_EN.txt	TEETH	5	3	[0, 0, 0]	n/a	FR1	2	R1111M
368.688	1.6	290677	WORD	n/a	wordpools/wordpool_EN.txt	SHIELD	6	3	[0, 0, 0]	n/a	FR1	2	R1111M
371.289	1.6	291977	WORD	n/a	wordpools/wordpool_EN.txt	CAVE	7	3	[0, 0, 0]	n/a	FR1	2	R1111M
373.889	1.6	293277	WORD	n/a	wordpools/wordpool_EN.txt	WEED	8	3	[0, 0, 0]	n/a	FR1	2	R1111M
376.273	1.6	294469	WORD	n/a	wordpools/wordpool_EN.txt	BRUSH	9	3	[0, 0, 0]	n/a	FR1	2	R1111M
378.757	1.6	295711	WORD	n/a	wordpools/wordpool_EN.txt	PASTE	10	3	[0, 0, 0]	n/a	FR1	2	R1111M
381.308	1.6	296986	WORD	n/a	wordpools/wordpool_EN.txt	SEAL	11	3	[0, 0, 0]	n/a	FR1	2	R1111M
383.925	1.6	298295	WORD	n/a	wordpools/wordpool_EN.txt	FOAM	12	3	[0, 0, 0]	n/a	FR1	2	R1111M
385.542	0.0	299103	DISTRACT_START	n/a	n/a	n/a	-999	3	[0, 0, 0]	n/a	FR1	2	R1111M
385.542	0.016	299103	START	n/a	n/a	n/a	-999	3	[-999, -999, -999]	n/a	FR1	2	R1111M
385.558	5.418	299111	PROB	5.395	n/a	n/a	-999	3	[4, 6, 1]	11.0	FR1	2	R1111M
390.976	8.302	301820	PROB	8.273	n/a	n/a	-999	3	[4, 9, 2]	15.0	FR1	2	R1111M
399.278	12.236	305971	PROB	12.236	n/a	n/a	-999	3	[6, 8, 8]	22.0	FR1	2	R1111M
411.514	0.016	312089	STOP	n/a	n/a	n/a	-999	3	[-999, -999, -999]	n/a	FR1	2	R1111M
411.53	1.168	312097	DISTRACT_END	n/a	n/a	n/a	-999	3	[0, 0, 0]	n/a	FR1	2	R1111M
412.698	1.921	312681	REC_START	n/a	n/a	n/a	-999	3	[0, 0, 0]	n/a	FR1	2	R1111M
414.619	1.521	313641	REC_WORD	1.921	n/a	CROW	-999	3	[0, 0, 0]	n/a	FR1	2	R1111M
416.14	1.642	314401	REC_WORD	3.442	n/a	ROOT	-999	3	[0, 0, 0]	n/a	FR1	2	R1111M
417.782	2.705	315222	REC_WORD	5.084	n/a	PLANT	-999	3	[0, 0, 0]	n/a	FR1	2	R1111M
420.487	2.395	316575	REC_WORD	7.789	n/a	CHIEF	-999	3	[0, 0, 0]	n/a	FR1	2	R1111M
422.882	1.706	317772	REC_WORD	10.184	n/a	TEETH	-999	3	[0, 0, 0]	n/a	FR1	2	R1111M
424.588	2.487	318625	REC_WORD	11.89	n/a	SHIELD	-999	3	[0, 0, 0]	n/a	FR1	2	R1111M
427.075	4.528	319869	REC_WORD	14.377	n/a	SEAL	-999	3	[0, 0, 0]	n/a	FR1	2	R1111M
431.603	2.683	322132	REC_WORD	18.905	n/a	PAINT	-999	3	[0, 0, 0]	n/a	FR1	2	R1111M
434.286	1.386	323474	REC_WORD	21.588	n/a	WEED	-999	3	[0, 0, 0]	n/a	FR1	2	R1111M
435.672	2.385	324167	REC_WORD	22.974	n/a	BRUSH	-999	3	[0, 0, 0]	n/a	FR1	2	R1111M
438.057	4.651	325359	REC_WORD	25.359	n/a	FOAM	-999	3	[0, 0, 0]	n/a	FR1	2	R1111M
442.708	29.017	327685	REC_END	n/a	n/a	n/a	-999	3	[0, 0, 0]	n/a	FR1	2	R1111M
471.725	0.0	342192	TRIAL	n/a	n/a	n/a	-999	4	[0, 0, 0]	n/a	FR1	2	R1111M
471.725	10.0	342192	COUNTDOWN_START	n/a	n/a	n/a	-999	4	[0, 0, 0]	n/a	FR1	2	R1111M
482.153	0.007	347406	COUNTDOWN_END	n/a	n/a	n/a	-999	4	[0, 0, 0]	n/a	FR1	2	R1111M
482.16	1.6	347410	ORIENT	n/a	n/a	n/a	-999	4	[0, 0, 0]	n/a	FR1	2	R1111M
484.678	1.6	348668	WORD	n/a	wordpools/wordpool_EN.txt	HOSE	1	4	[0, 0, 0]	n/a	FR1	2	R1111M
487.061	1.6	349860	WORD	n/a	wordpools/wordpool_EN.txt	TRASH	2	4	[0, 0, 0]	n/a	FR1	2	R1111M
489.495	1.6	351077	WORD	n/a	wordpools/wordpool_EN.txt	TRUCK	3	4	[0, 0, 0]	n/a	FR1	2	R1111M
492.012	1.6	352335	WORD	n/a	wordpools/wordpool_EN.txt	SOUP	4	4	[0, 0, 0]	n/a	FR1	2	R1111M
494.396	1.6	353527	WORD	n/a	wordpools/wordpool_EN.txt	DRUM	5	4	[0, 0, 0]	n/a	FR1	2	R1111M
496.98	1.6	354819	WORD	n/a	wordpools/wordpool_EN.txt	SUN	6	4	[0, 0, 0]	n/a	FR1	2	R1111M
499.447	1.6	356053	WORD	n/a	wordpools/wordpool_EN.txt	PLATE	7	4	[0, 0, 0]	n/a	FR1	2	R1111M
501.914	1.6	357286	WORD	n/a	wordpools/wordpool_EN.txt	PIG	8	4	[0, 0, 0]	n/a	FR1	2	R1111M
504.398	1.6	358528	WORD	n/a	wordpools/wordpool_EN.txt	SALT	9	4	[0, 0, 0]	n/a	FR1	2	R1111M
506.932	1.6	359795	WORD	n/a	wordpools/wordpool_EN.txt	STONE	10	4	[0, 0, 0]	n/a	FR1	2	R1111M
509.382	1.6	361020	WORD	n/a	wordpools/wordpool_EN.txt	GRAPE	11	4	[0, 0, 0]	n/a	FR1	2	R1111M
511.899	1.6	362278	WORD	n/a	wordpools/wordpool_EN.txt	ELF	12	4	[0, 0, 0]	n/a	FR1	2	R1111M
513.516	0.001	363087	DISTRACT_START	n/a	n/a	n/a	-999	4	[0, 0, 0]	n/a	FR1	2	R1111M
513.517	0.016	363087	START	n/a	n/a	n/a	-999	4	[-999, -999, -999]	n/a	FR1	2	R1111M
513.533	13.653	363095	PROB	13.62	n/a	n/a	-999	4	[7, 8, 9]	26.0	FR1	2	R1111M
527.186	3.434	369921	PROB	3.409	n/a	n/a	-999	4	[2, 2, 5]	9.0	FR1	2	R1111M
530.62	7.03	371638	PROB	7.03	n/a	n/a	-999	4	[3, 8, 7]	18.0	FR1	2	R1111M
537.65	0.004	375153	STOP	n/a	n/a	n/a	-999	4	[-999, -999, -999]	n/a	FR1	2	R1111M
537.654	1.201	375155	DISTRACT_END	n/a	n/a	n/a	-999	4	[0, 0, 0]	n/a	FR1	2	R1111M
538.855	1.511	375755	REC_START	n/a	n/a	n/a	-999	4	[0, 0, 0]	n/a	FR1	2	R1111M
540.366	1.732	376511	REC_WORD	1.511	n/a	HOSE	-999	4	[0, 0, 0]	n/a	FR1	2	R1111M
542.098	2.221	377377	REC_WORD	3.243	n/a	TRASH	-999	4	[0, 0, 0]	n/a	FR1	2	R1111M
544.319	1.555	378487	REC_WORD	5.464	n/a	TRUCK	-999	4	[0, 0, 0]	n/a	FR1	2	R1111M
545.874	5.597	379265	REC_WORD	7.019	n/a	SOUP	-999	4	[0, 0, 0]	n/a	FR1	2	R1111M
551.471	0.79	382063	REC_WORD	12.616	n/a	PIG	-999	4	[0, 0, 0]	n/a	FR1	2	R1111M
552.261	1.32	382458	REC_WORD	13.406	n/a	PLATE	-999	4	[0, 0, 0]	n/a	FR1	2	R1111M
553.581	0.685	383118	REC_WORD	14.726	n/a	SALT	-999	4	[0, 0, 0]	n/a	FR1	2	R1111M
554.266	1.02	383460	REC_WORD	15.411	n/a	STONE	-999	4	[0, 0, 0]	n/a	FR1	2	R1111M
555.286	0.882	383970	REC_WORD	16.431	n/a	ELF	-999	4	[0, 0, 0]	n/a	FR1	2	R1111M
556.168	12.696	384411	REC_WORD	17.313	n/a	GRAPE	-999	4	[0, 0, 0]	n/a	FR1	2	R1111M
568.864	50.156	390759	REC_END	n/a	n/a	n/a	-999	4	[0, 0, 0]	n/a	FR1	2	R1111M
619.02	10.0	415836	COUNTDOWN_START	n/a	n/a	n/a	-999	5	[0, 0, 0]	n/a	FR1	2	R1111M
619.021	10.427	415836	TRIAL	n/a	n/a	n/a	-999	5	[0, 0, 0]	n/a	FR1	2	R1111M
629.448	0.007	421049	COUNTDOWN_END	n/a	n/a	n/a	-999	5	[0, 0, 0]	n/a	FR1	2	R1111M
629.455	1.6	421053	ORIENT	n/a	n/a	n/a	-999	5	[0, 0, 0]	n/a	FR1	2	R1111M
632.006	1.6	422328	WORD	n/a	wordpools/wordpool_EN.txt	THREAD	1	5	[0, 0, 0]	n/a	FR1	2	R1111M
634.556	1.6	423603	WORD	n/a	wordpools/wordpool_EN.txt	PIE	2	5	[0, 0, 0]	n/a	FR1	2	R1111M
637.09	1.6	424870	WORD	n/a	wordpools/wordpool_EN.txt	WALL	3	5	[0, 0, 0]	n/a	FR1	2	R1111M
639.507	1.6	426079	WORD	n/a	wordpools/wordpool_EN.txt	SUIT	4	5	[0, 0, 0]	n/a	FR1	2	R1111M
642.108	1.6	427379	WORD	n/a	wordpools/wordpool_EN.txt	STEAK	5	5	[0, 0, 0]	n/a	FR1	2	R1111M
644.658	1.6	428654	WORD	n/a	wordpools/wordpool_EN.txt	VASE	6	5	[0, 0, 0]	n/a	FR1	2	R1111M
647.059	1.6	429854	WORD	n/a	wordpools/wordpool_EN.txt	SLUSH	7	5	[0, 0, 0]	n/a	FR1	2	R1111M
649.526	1.6	431088	WORD	n/a	wordpools/wordpool_EN.txt	TOAST	8	5	[0, 0, 0]	n/a	FR1	2	R1111M
652.143	1.6	432396	WORD	n/a	wordpools/wordpool_EN.txt	PHONE	9	5	[0, 0, 0]	n/a	FR1	2	R1111M
654.644	1.6	433647	WORD	n/a	wordpools/wordpool_EN.txt	BAND	10	5	[0, 0, 0]	n/a	FR1	2	R1111M
657.211	1.6	434930	WORD	n/a	wordpools/wordpool_EN.txt	MAIL	11	5	[0, 0, 0]	n/a	FR1	2	R1111M
659.778	1.6	436214	WORD	n/a	wordpools/wordpool_EN.txt	SHRIMP	12	5	[0, 0, 0]	n/a	FR1	2	R1111M
661.395	0.001	437022	DISTRACT_START	n/a	n/a	n/a	-999	5	[0, 0, 0]	n/a	FR1	2	R1111M
661.396	0.016	437022	START	n/a	n/a	n/a	-999	5	[-999, -999, -999]	n/a	FR1	2	R1111M
661.412	7.034	437030	PROB	7.014	n/a	n/a	-999	5	[3, 6, 6]	15.0	FR1	2	R1111M
668.446	11.853	440547	PROB	11.82	n/a	n/a	-999	5	[9, 7, 8]	24.0	FR1	2	R1111M
680.299	3.023	446473	PROB	3.023	n/a	n/a	-999	5	[6, 1, 1]	8.0	FR1	2	R1111M
683.322	0.011	447985	STOP	n/a	n/a	n/a	-999	5	[-999, -999, -999]	n/a	FR1	2	R1111M
683.333	1.134	447990	DISTRACT_END	n/a	n/a	n/a	-999	5	[0, 0, 0]	n/a	FR1	2	R1111M
684.467	2.564	448557	REC_START	n/a	n/a	n/a	-999	5	[0, 0, 0]	n/a	FR1	2	R1111M
687.031	2.369	449839	REC_WORD	2.564	n/a	THREAD	-999	5	[0, 0, 0]	n/a	FR1	2	R1111M
689.4	1.243	451024	REC_WORD	4.933	n/a	SUIT	-999	5	[0, 0, 0]	n/a	FR1	2	R1111M
690.643	1.187	451645	REC_WORD	6.176	n/a	WALL	-999	5	[0, 0, 0]	n/a	FR1	2	R1111M
691.83	1.896	452239	REC_WORD	7.363	n/a	PIE	-999	5	[0, 0, 0]	n/a	FR1	2	R1111M
693.726	1.334	453187	REC_WORD	9.259	n/a	SLUSH	-999	5	[0, 0, 0]	n/a	FR1	2	R1111M
695.06	2.065	453854	REC_WORD	10.593	n/a	STEAK	-999	5	[0, 0, 0]	n/a	FR1	2	R1111M
697.125	1.618	454886	REC_WORD	12.658	n/a	TOAST	-999	5	[0, 0, 0]	n/a	FR1	2	R1111M
698.743	1.301	455695	REC_WORD	14.276	n/a	PHONE	-999	5	[0, 0, 0]	n/a	FR1	2	R1111M
700.044	14.433	456345	REC_WORD	15.577	n/a	SHRIMP	-999	5	[0, 0, 0]	n/a	FR1	2	R1111M
714.477	11.747	463561	REC_END	n/a	n/a	n/a	-999	5	[0, 0, 0]	n/a	FR1	2	R1111M
726.224	0.0	469435	TRIAL	n/a	n/a	n/a	-999	6	[0, 0, 0]	n/a	FR1	2	R1111M
726.224	10.0	469435	COUNTDOWN_START	n/a	n/a	n/a	-999	6	[0, 0, 0]	n/a	FR1	2	R1111M
736.652	0.008	474648	COUNTDOWN_END	n/a	n/a	n/a	-999	6	[0, 0, 0]	n/a	FR1	2	R1111M
736.66	1.6	474652	ORIENT	n/a	n/a	n/a	-999	6	[0, 0, 0]	n/a	FR1	2	R1111M
739.143	1.6	475894	WORD	n/a	wordpools/wordpool_EN.txt	BEE	1	6	[0, 0, 0]	n/a	FR1	2	R1111M
741.644	1.6	477144	WORD	n/a	wordpools/wordpool_EN.txt	STORE	2	6	[0, 0, 0]	n/a	FR1	2	R1111M
744.228	1.6	478436	WORD	n/a	wordpools/wordpool_EN.txt	MOLE	3	6	[0, 0, 0]	n/a	FR1	2	R1111M
746.711	1.6	479678	WORD	n/a	wordpools/wordpool_EN.txt	ROCK	4	6	[0, 0, 0]	n/a	FR1	2	R1111M
749.162	1.6	480903	WORD	n/a	wordpools/wordpool_EN.txt	BIRD	5	6	[0, 0, 0]	n/a	FR1	2	R1111M
751.579	1.6	482111	WORD	n/a	wordpools/wordpool_EN.txt	BEAR	6	6	[0, 0, 0]	n/a	FR1	2	R1111M
753.98	1.6	483312	WORD	n/a	wordpools/wordpool_EN.txt	RAIN	7	6	[0, 0, 0]	n/a	FR1	2	R1111M
756.363	1.6	484503	WORD	n/a	wordpools/wordpool_EN.txt	APE	8	6	[0, 0, 0]	n/a	FR1	2	R1111M
758.964	1.6	485804	WORD	n/a	wordpools/wordpool_EN.txt	ANT	9	6	[0, 0, 0]	n/a	FR1	2	R1111M
761.514	1.6	487079	WORD	n/a	wordpools/wordpool_EN.txt	NEST	10	6	[0, 0, 0]	n/a	FR1	2	R1111M
764.048	1.6	488346	WORD	n/a	wordpools/wordpool_EN.txt	JAIL	11	6	[0, 0, 0]	n/a	FR1	2	R1111M
766.465	1.6	489554	WORD	n/a	wordpools/wordpool_EN.txt	RAT	12	6	[0, 0, 0]	n/a	FR1	2	R1111M
768.082	0.001	490362	DISTRACT_START	n/a	n/a	n/a	-999	6	[0, 0, 0]	n/a	FR1	2	R1111M
768.083	0.016	490363	START	n/a	n/a	n/a	-999	6	[-999, -999, -999]	n/a	FR1	2	R1111M
768.099	9.752	490371	PROB	9.719	n/a	n/a	-999	6	[6, 6, 9]	21.0	FR1	2	R1111M
777.851	11.126	495247	PROB	11.126	n/a	n/a	-999	6	[1, 4, 9]	14.0	FR1	2	R1111M
788.977	0.009	500809	STOP	n/a	n/a	n/a	-999	6	[-999, -999, -999]	n/a	FR1	2	R1111M
788.986	1.151	500814	DISTRACT_END	n/a	n/a	n/a	-999	6	[0, 0, 0]	n/a	FR1	2	R1111M
790.137	2.179	501389	REC_START	n/a	n/a	n/a	-999	6	[0, 0, 0]	n/a	FR1	2	R1111M
792.316	0.437	502479	REC_WORD	2.179	n/a	BIRD	-999	6	[0, 0, 0]	n/a	FR1	2	R1111M
792.753	1.531	502697	REC_WORD	2.616	n/a	STORE	-999	6	[0, 0, 0]	n/a	FR1	2	R1111M
794.284	0.499	503463	REC_WORD	4.147	n/a	BEE	-999	6	[0, 0, 0]	n/a	FR1	2	R1111M
794.783	2.035	503712	REC_WORD	4.646	n/a	STORE	-999	6	[0, 0, 0]	n/a	FR1	2	R1111M
796.818	0.735	504730	REC_WORD	6.681	n/a	BIRD	-999	6	[0, 0, 0]	n/a	FR1	2	R1111M
797.553	1.489	505097	REC_WORD	7.416	n/a	MOLE	-999	6	[0, 0, 0]	n/a	FR1	2	R1111M
799.042	2.459	505842	REC_WORD	8.905	n/a	ROCK	-999	6	[0, 0, 0]	n/a	FR1	2	R1111M
801.501	5.923	507071	REC_WORD	11.364	n/a	BEAR	-999	6	[0, 0, 0]	n/a	FR1	2	R1111M
807.424	1.916	510032	REC_WORD	17.287	n/a	BIRD	-999	6	[0, 0, 0]	n/a	FR1	2	R1111M
809.34	0.72	510990	REC_WORD	19.203	n/a	JAIL	-999	6	[0, 0, 0]	n/a	FR1	2	R1111M
810.06	1.324	511350	REC_WORD	19.923	n/a	RAT	-999	6	[0, 0, 0]	n/a	FR1	2	R1111M
811.384	1.051	512012	REC_WORD	21.247	n/a	GORILLA	-999	6	[0, 0, 0]	n/a	FR1	2	R1111M
812.435	1.031	512538	REC_WORD	22.298	n/a	APE	-999	6	[0, 0, 0]	n/a	FR1	2	R1111M
813.466	6.679	513053	REC_WORD	23.329	n/a	ANT	-999	6	[0, 0, 0]	n/a	FR1	2	R1111M
820.145	26.019	516392	REC_END	n/a	n/a	n/a	-999	6	[0, 0, 0]	n/a	FR1	2	R1111M
846.164	0.0	529401	TRIAL	n/a	n/a	n/a	-999	7	[0, 0, 0]	n/a	FR1	2	R1111M
846.164	10.0	529401	COUNTDOWN_START	n/a	n/a	n/a	-999	7	[0, 0, 0]	n/a	FR1	2	R1111M
856.592	0.008	534615	COUNTDOWN_END	n/a	n/a	n/a	-999	7	[0, 0, 0]	n/a	FR1	2	R1111M
856.6	1.6	534619	ORIENT	n/a	n/a	n/a	-999	7	[0, 0, 0]	n/a	FR1	2	R1111M
859.0	1.6	535819	WORD	n/a	wordpools/wordpool_EN.txt	SAIL	1	7	[0, 0, 0]	n/a	FR1	2	R1111M
861.484	1.6	537061	WORD	n/a	wordpools/wordpool_EN.txt	SHIP	2	7	[0, 0, 0]	n/a	FR1	2	R1111M
863.867	1.6	538252	WORD	n/a	wordpools/wordpool_EN.txt	WORM	3	7	[0, 0, 0]	n/a	FR1	2	R1111M
866.418	1.6	539528	WORD	n/a	wordpools/wordpool_EN.txt	SLIME	4	7	[0, 0, 0]	n/a	FR1	2	R1111M
868.885	1.6	540761	WORD	n/a	wordpools/wordpool_EN.txt	STEAM	5	7	[0, 0, 0]	n/a	FR1	2	R1111M
871.302	1.6	541970	WORD	n/a	wordpools/wordpool_EN.txt	BOAT	6	7	[0, 0, 0]	n/a	FR1	2	R1111M
873.87	1.6	543253	WORD	n/a	wordpools/wordpool_EN.txt	HOOK	7	7	[0, 0, 0]	n/a	FR1	2	R1111M
876.337	1.6	544487	WORD	n/a	wordpools/wordpool_EN.txt	DESK	8	7	[0, 0, 0]	n/a	FR1	2	R1111M
878.904	1.6	545770	WORD	n/a	wordpools/wordpool_EN.txt	PEARL	9	7	[0, 0, 0]	n/a	FR1	2	R1111M
881.438	1.6	547037	WORD	n/a	wordpools/wordpool_EN.txt	WHEEL	10	7	[0, 0, 0]	n/a	FR1	2	R1111M
883.971	1.6	548304	WORD	n/a	wordpools/wordpool_EN.txt	FISH	11	7	[0, 0, 0]	n/a	FR1	2	R1111M
886.572	1.6	549604	WORD	n/a	wordpools/wordpool_EN.txt	DRESS	12	7	[0, 0, 0]	n/a	FR1	2	R1111M
888.189	0.001	550413	DISTRACT_START	n/a	n/a	n/a	-999	7	[0, 0, 0]	n/a	FR1	2	R1111M
888.19	0.016	550413	START	n/a	n/a	n/a	-999	7	[-999, -999, -999]	n/a	FR1	2	R1111M
888.206	16.969	550421	PROB	16.94	n/a	n/a	-999	7	[7, 9, 8]	24.0	FR1	2	R1111M
905.175	9.115	558905	PROB	9.115	n/a	n/a	-999	7	[3, 5, 9]	15.0	FR1	2	R1111M
914.29	0.004	563462	STOP	n/a	n/a	n/a	-999	7	[-999, -999, -999]	n/a	FR1	2	R1111M
914.294	1.151	563464	DISTRACT_END	n/a	n/a	n/a	-999	7	[0, 0, 0]	n/a	FR1	2	R1111M
915.445	3.52	564040	REC_START	n/a	n/a	n/a	-999	7	[0, 0, 0]	n/a	FR1	2	R1111M
918.965	1.973	565800	REC_WORD	3.52	n/a	SAIL	-999	7	[0, 0, 0]	n/a	FR1	2	R1111M
920.938	1.777	566786	REC_WORD	5.493	n/a	BOAT	-999	7	[0, 0, 0]	n/a	FR1	2	R1111M
922.715	0.993	567675	REC_WORD	7.27	n/a	STEAM	-999	7	[0, 0, 0]	n/a	FR1	2	R1111M
923.708	5.047	568171	REC_WORD	8.263	n/a	SHIP	-999	7	[0, 0, 0]	n/a	FR1	2	R1111M
928.755	3.278	570694	REC_WORD	13.31	n/a	FISH	-999	7	[0, 0, 0]	n/a	FR1	2	R1111M
932.033	1.307	572333	REC_WORD	16.588	n/a	SLIME	-999	7	[0, 0, 0]	n/a	FR1	2	R1111M
933.34	5.49	572987	REC_WORD	17.895	n/a	WORM	-999	7	[0, 0, 0]	n/a	FR1	2	R1111M
938.83	2.177	575732	REC_WORD	23.385	n/a	PEARL	-999	7	[0, 0, 0]	n/a	FR1	2	R1111M
941.007	2.747	576820	REC_WORD	25.562	n/a	WHEEL	-999	7	[0, 0, 0]	n/a	FR1	2	R1111M
943.754	1.7	578193	REC_WORD	28.309	n/a	DRESS	-999	7	[0, 0, 0]	n/a	FR1	2	R1111M
945.454	11.615	579043	REC_END	n/a	n/a	n/a	-999	7	[0, 0, 0]	n/a	FR1	2	R1111M
957.069	0.0	584851	TRIAL	n/a	n/a	n/a	-999	8	[0, 0, 0]	n/a	FR1	2	R1111M
957.069	10.0	584851	COUNTDOWN_START	n/a	n/a	n/a	-999	8	[0, 0, 0]	n/a	FR1	2	R1111M
967.497	0.007	590064	COUNTDOWN_END	n/a	n/a	n/a	-999	8	[0, 0, 0]	n/a	FR1	2	R1111M
967.504	1.6	590068	ORIENT	n/a	n/a	n/a	-999	8	[0, 0, 0]	n/a	FR1	2	R1111M
970.121	1.6	591376	WORD	n/a	wordpools/wordpool_EN.txt	SEAT	1	8	[0, 0, 0]	n/a	FR1	2	R1111M
972.539	1.6	592585	WORD	n/a	wordpools/wordpool_EN.txt	DOOR	2	8	[0, 0, 0]	n/a	FR1	2	R1111M
975.089	1.6	593860	WORD	n/a	wordpools/wordpool_EN.txt	THUMB	3	8	[0, 0, 0]	n/a	FR1	2	R1111M
977.639	1.6	595135	WORD	n/a	wordpools/wordpool_EN.txt	BROOM	4	8	[0, 0, 0]	n/a	FR1	2	R1111M
980.19	1.6	596410	WORD	n/a	wordpools/wordpool_EN.txt	HAND	5	8	[0, 0, 0]	n/a	FR1	2	R1111M
982.774	1.6	597702	WORD	n/a	wordpools/wordpool_EN.txt	CRANE	6	8	[0, 0, 0]	n/a	FR1	2	R1111M
985.158	1.6	598894	WORD	n/a	wordpools/wordpool_EN.txt	TOOL	7	8	[0, 0, 0]	n/a	FR1	2	R1111M
987.675	1.6	600153	WORD	n/a	wordpools/wordpool_EN.txt	HOUSE	8	8	[0, 0, 0]	n/a	FR1	2	R1111M
990.225	1.6	601428	WORD	n/a	wordpools/wordpool_EN.txt	SHOE	9	8	[0, 0, 0]	n/a	FR1	2	R1111M
992.659	1.6	602645	WORD	n/a	wordpools/wordpool_EN.txt	HORN	10	8	[0, 0, 0]	n/a	FR1	2	R1111M
995.193	1.6	603911	WORD	n/a	wordpools/wordpool_EN.txt	LOCK	11	8	[0, 0, 0]	n/a	FR1	2	R1111M
997.627	1.6	605128	WORD	n/a	wordpools/wordpool_EN.txt	FROG	12	8	[0, 0, 0]	n/a	FR1	2	R1111M
999.244	0.0	605937	DISTRACT_START	n/a	n/a	n/a	-999	8	[0, 0, 0]	n/a	FR1	2	R1111M
999.244	0.016	605937	START	n/a	n/a	n/a	-999	8	[-999, -999, -999]	n/a	FR1	2	R1111M
999.26	11.269	605945	PROB	11.238	n/a	n/a	-999	8	[7, 8, 5]	20.0	FR1	2	R1111M
1010.529	7.052	611579	PROB	7.017	n/a	n/a	-999	8	[3, 4, 2]	10.0	FR1	2	R1111M
1017.581	4.388	615105	PROB	4.388	n/a	n/a	-999	8	[1, 7, 9]	15.0	FR1	2	R1111M
1021.969	0.012	617299	STOP	n/a	n/a	n/a	-999	8	[-999, -999, -999]	n/a	FR1	2	R1111M
1021.981	1.051	617305	DISTRACT_END	n/a	n/a	n/a	-999	8	[0, 0, 0]	n/a	FR1	2	R1111M
1023.032	5.956	617830	REC_START	n/a	n/a	n/a	-999	8	[0, 0, 0]	n/a	FR1	2	R1111M
1028.988	1.462	620808	REC_WORD	5.956	n/a	SEAT	-999	8	[0, 0, 0]	n/a	FR1	2	R1111M
1030.45	1.881	621539	REC_WORD	7.418	n/a	DOOR	-999	8	[0, 0, 0]	n/a	FR1	2	R1111M
1032.331	1.762	622479	REC_WORD	9.299	n/a	THUMB	-999	8	[0, 0, 0]	n/a	FR1	2	R1111M
1034.093	3.611	623360	REC_WORD	11.061	n/a	BROOM	-999	8	[0, 0, 0]	n/a	FR1	2	R1111M
1037.704	1.462	625166	REC_WORD	14.672	n/a	HAND	-999	8	[0, 0, 0]	n/a	FR1	2	R1111M
1039.166	0.868	625897	REC_WORD	16.134	n/a	CRANE	-999	8	[0, 0, 0]	n/a	FR1	2	R1111M
1040.034	2.722	626331	REC_WORD	17.002	n/a	HOUSE	-999	8	[0, 0, 0]	n/a	FR1	2	R1111M
1042.756	0.951	627692	REC_WORD	19.724	n/a	LOCK	-999	8	[0, 0, 0]	n/a	FR1	2	R1111M
1043.707	2.365	628167	REC_WORD	20.675	n/a	FROG	-999	8	[0, 0, 0]	n/a	FR1	2	R1111M
1046.072	1.235	629350	REC_WORD	23.04	n/a	SHOE	-999	8	[0, 0, 0]	n/a	FR1	2	R1111M
1047.307	5.735	629967	REC_WORD	24.275	n/a	HORN	-999	8	[0, 0, 0]	n/a	FR1	2	R1111M
1053.042	8.414	632834	REC_END	n/a	n/a	n/a	-999	8	[0, 0, 0]	n/a	FR1	2	R1111M
1061.456	0.0	637041	TRIAL	n/a	n/a	n/a	-999	9	[0, 0, 0]	n/a	FR1	2	R1111M
1061.456	10.0	637041	COUNTDOWN_START	n/a	n/a	n/a	-999	9	[0, 0, 0]	n/a	FR1	2	R1111M
1071.884	0.007	642255	COUNTDOWN_END	n/a	n/a	n/a	-999	9	[0, 0, 0]	n/a	FR1	2	R1111M
1071.891	1.6	642258	ORIENT	n/a	n/a	n/a	-999	9	[0, 0, 0]	n/a	FR1	2	R1111M
1074.358	1.6	643492	WORD	n/a	wordpools/wordpool_EN.txt	SHIRT	1	9	[0, 0, 0]	n/a	FR1	2	R1111M
1076.892	1.6	644759	WORD	n/a	wordpools/wordpool_EN.txt	FUR	2	9	[0, 0, 0]	n/a	FR1	2	R1111M
1079.409	1.6	646017	WORD	n/a	wordpools/wordpool_EN.txt	RIB	3	9	[0, 0, 0]	n/a	FR1	2	R1111M
1081.876	1.6	647251	WORD	n/a	wordpools/wordpool_EN.txt	POOL	4	9	[0, 0, 0]	n/a	FR1	2	R1111M
1084.26	1.6	648442	WORD	n/a	wordpools/wordpool_EN.txt	SWORD	5	9	[0, 0, 0]	n/a	FR1	2	R1111M
1086.677	1.6	649651	WORD	n/a	wordpools/wordpool_EN.txt	ARM	6	9	[0, 0, 0]	n/a	FR1	2	R1111M
1089.094	1.6	650859	WORD	n/a	wordpools/wordpool_EN.txt	FAN	7	9	[0, 0, 0]	n/a	FR1	2	R1111M
1091.528	1.6	652076	WORD	n/a	wordpools/wordpool_EN.txt	BOY	8	9	[0, 0, 0]	n/a	FR1	2	R1111M
1093.979	1.6	653302	WORD	n/a	wordpools/wordpool_EN.txt	PURSE	9	9	[0, 0, 0]	n/a	FR1	2	R1111M
1096.379	1.6	654502	WORD	n/a	wordpools/wordpool_EN.txt	ROPE	10	9	[0, 0, 0]	n/a	FR1	2	R1111M
1098.913	1.6	655769	WORD	n/a	wordpools/wordpool_EN.txt	BUSH	11	9	[0, 0, 0]	n/a	FR1	2	R1111M
1101.447	1.6	657035	WORD	n/a	wordpools/wordpool_EN.txt	FOOT	12	9	[0, 0, 0]	n/a	FR1	2	R1111M
1103.064	0.0	657844	DISTRACT_START	n/a	n/a	n/a	-999	9	[0, 0, 0]	n/a	FR1	2	R1111M
1103.064	0.016	657844	START	n/a	n/a	n/a	-999	9	[-999, -999, -999]	n/a	FR1	2	R1111M
1103.08	9.936	657852	PROB	9.905	n/a	n/a	-999	9	[9, 2, 1]	12.0	FR1	2	R1111M
1113.016	9.285	662820	PROB	9.25	n/a	n/a	-999	9	[2, 4, 1]	7.0	FR1	2	R1111M
1122.301	6.557	667462	PROB	6.557	n/a	n/a	-999	9	[3, 5, 6]	14.0	FR1	2	R1111M
1128.858	0.011	670740	STOP	n/a	n/a	n/a	-999	9	[-999, -999, -999]	n/a	FR1	2	R1111M
1128.869	1.184	670746	DISTRACT_END	n/a	n/a	n/a	-999	9	[0, 0, 0]	n/a	FR1	2	R1111M
1130.053	2.061	671338	REC_START	n/a	n/a	n/a	-999	9	[0, 0, 0]	n/a	FR1	2	R1111M
1132.114	1.682	672368	REC_WORD	2.061	n/a	FAN	-999	9	[0, 0, 0]	n/a	FR1	2	R1111M
1133.796	1.577	673209	REC_WORD	3.743	n/a	BOY	-999	9	[0, 0, 0]	n/a	FR1	2	R1111M
1135.373	1.702	673998	REC_WORD	5.32	n/a	BUSH	-999	9	[0, 0, 0]	n/a	FR1	2	R1111M
1137.075	0.947	674848	REC_WORD	7.022	n/a	FOOT	-999	9	[0, 0, 0]	n/a	FR1	2	R1111M
1138.022	0.723	675322	REC_WORD	7.969	n/a	PURSE	-999	9	[0, 0, 0]	n/a	FR1	2	R1111M
1138.745	1.782	675683	REC_WORD	8.692	n/a	ROPE	-999	9	[0, 0, 0]	n/a	FR1	2	R1111M
1140.527	2.012	676574	REC_WORD	10.474	n/a	POOL	-999	9	[0, 0, 0]	n/a	FR1	2	R1111M
1142.539	1.462	677580	REC_WORD	12.486	n/a	RIB	-999	9	[0, 0, 0]	n/a	FR1	2	R1111M
1144.001	1.078	678311	REC_WORD	13.948	n/a	SHIRT	-999	9	[0, 0, 0]	n/a	FR1	2	R1111M
1145.079	1.054	678850	REC_WORD	15.026	n/a	FUR	-999	9	[0, 0, 0]	n/a	FR1	2	R1111M
1146.133	0.792	679377	REC_WORD	16.08	n/a	ARM	-999	9	[0, 0, 0]	n/a	FR1	2	R1111M
1146.925	5.891	679773	REC_WORD	16.872	n/a	SWORD	-999	9	[0, 0, 0]	n/a	FR1	2	R1111M
1152.816	0.365	682719	REC_WORD_VV	22.763	n/a	<>	-999	9	[0, 0, 0]	n/a	FR1	2	R1111M
1153.181	1.075	682901	REC_WORD	23.128	n/a	POOL	-999	9	[0, 0, 0]	n/a	FR1	2	R1111M
1154.256	5.806	683438	REC_WORD_VV	24.203	n/a	<>	-999	9	[0, 0, 0]	n/a	FR1	2	R1111M
1160.062	4.88	686341	REC_END	n/a	n/a	n/a	-999	9	[0, 0, 0]	n/a	FR1	2	R1111M
1164.942	10.0	688781	COUNTDOWN_START	n/a	n/a	n/a	-999	10	[0, 0, 0]	n/a	FR1	2	R1111M
1164.943	10.427	688782	TRIAL	n/a	n/a	n/a	-999	10	[0, 0, 0]	n/a	FR1	2	R1111M
1175.37	0.008	693995	COUNTDOWN_END	n/a	n/a	n/a	-999	10	[0, 0, 0]	n/a	FR1	2	R1111M
1175.378	1.6	693999	ORIENT	n/a	n/a	n/a	-999	10	[0, 0, 0]	n/a	FR1	2	R1111M
1177.778	1.6	695199	WORD	n/a	wordpools/wordpool_EN.txt	SHELL	1	10	[0, 0, 0]	n/a	FR1	2	R1111M
1180.262	1.6	696441	WORD	n/a	wordpools/wordpool_EN.txt	GLASS	2	10	[0, 0, 0]	n/a	FR1	2	R1111M
1182.862	1.6	697741	WORD	n/a	wordpools/wordpool_EN.txt	HOOF	3	10	[0, 0, 0]	n/a	FR1	2	R1111M
1185.396	1.6	699008	WORD	n/a	wordpools/wordpool_EN.txt	ZOO	4	10	[0, 0, 0]	n/a	FR1	2	R1111M
1187.78	1.6	700200	WORD	n/a	wordpools/wordpool_EN.txt	FLEA	5	10	[0, 0, 0]	n/a	FR1	2	R1111M
1190.397	1.6	701508	WORD	n/a	wordpools/wordpool_EN.txt	SEA	6	10	[0, 0, 0]	n/a	FR1	2	R1111M
1192.914	1.6	702766	WORD	n/a	wordpools/wordpool_EN.txt	CONE	7	10	[0, 0, 0]	n/a	FR1	2	R1111M
1195.415	1.6	704017	WORD	n/a	wordpools/wordpool_EN.txt	BEACH	8	10	[0, 0, 0]	n/a	FR1	2	R1111M
1197.882	1.6	705250	WORD	n/a	wordpools/wordpool_EN.txt	SNAIL	9	10	[0, 0, 0]	n/a	FR1	2	R1111M
1200.383	1.6	706501	WORD	n/a	wordpools/wordpool_EN.txt	CLAY	10	10	[0, 0, 0]	n/a	FR1	2	R1111M
1202.816	1.6	707717	WORD	n/a	wordpools/wordpool_EN.txt	SPONGE	11	10	[0, 0, 0]	n/a	FR1	2	R1111M
1205.2	1.6	708909	WORD	n/a	wordpools/wordpool_EN.txt	WAVE	12	10	[0, 0, 0]	n/a	FR1	2	R1111M
1206.817	0.001	709718	DISTRACT_START	n/a	n/a	n/a	-999	10	[0, 0, 0]	n/a	FR1	2	R1111M
1206.818	0.016	709718	START	n/a	n/a	n/a	-999	10	[-999, -999, -999]	n/a	FR1	2	R1111M
1206.834	9.685	709726	PROB	9.656	n/a	n/a	-999	10	[4, 8, 7]	19.0	FR1	2	R1111M
1216.519	6.185	714568	PROB	6.162	n/a	n/a	-999	10	[5, 7, 4]	16.0	FR1	2	R1111M
1222.704	4.034	717661	PROB	4.002	n/a	n/a	-999	10	[7, 1, 7]	15.0	FR1	2	R1111M
1226.738	6.615	719677	PROB	6.615	n/a	n/a	-999	10	[3, 8, 5]	16.0	FR1	2	R1111M
1233.353	0.019	722985	STOP	n/a	n/a	n/a	-999	10	[-999, -999, -999]	n/a	FR1	2	R1111M
1233.372	1.118	722994	DISTRACT_END	n/a	n/a	n/a	-999	10	[0, 0, 0]	n/a	FR1	2	R1111M
1234.49	2.652	723553	REC_START	n/a	n/a	n/a	-999	10	[0, 0, 0]	n/a	FR1	2	R1111M
1237.142	0.807	724879	REC_WORD	2.652	n/a	GLASS	-999	10	[0, 0, 0]	n/a	FR1	2	R1111M
1237.949	0.982	725283	REC_WORD	3.459	n/a	HOOF	-999	10	[0, 0, 0]	n/a	FR1	2	R1111M
1238.931	0.727	725774	REC_WORD	4.441	n/a	BEACH	-999	10	[0, 0, 0]	n/a	FR1	2	R1111M
1239.658	6.294	726137	REC_WORD	5.168	n/a	CONE	-999	10	[0, 0, 0]	n/a	FR1	2	R1111M
1245.952	15.446	729284	REC_WORD	11.462	n/a	SNAIL	-999	10	[0, 0, 0]	n/a	FR1	2	R1111M
1261.398	3.101	737006	REC_WORD	26.908	n/a	SPONGE	-999	10	[0, 0, 0]	n/a	FR1	2	R1111M
1264.499	15.366	738557	REC_END	n/a	n/a	n/a	-999	10	[0, 0, 0]	n/a	FR1	2	R1111M
1279.865	0.0	746239	TRIAL	n/a	n/a	n/a	-999	11	[0, 0, 0]	n/a	FR1	2	R1111M
1279.865	10.0	746239	COUNTDOWN_START	n/a	n/a	n/a	-999	11	[0, 0, 0]	n/a	FR1	2	R1111M
1290.293	0.007	751453	COUNTDOWN_END	n/a	n/a	n/a	-999	11	[0, 0, 0]	n/a	FR1	2	R1111M
1290.3	1.6	751457	ORIENT	n/a	n/a	n/a	-999	11	[0, 0, 0]	n/a	FR1	2	R1111M
1292.7	1.6	752657	WORD	n/a	wordpools/wordpool_EN.txt	SHEET	1	11	[0, 0, 0]	n/a	FR1	2	R1111M
1295.218	1.6	753915	WORD	n/a	wordpools/wordpool_EN.txt	NET	2	11	[0, 0, 0]	n/a	FR1	2	R1111M
1297.651	1.6	755132	WORD	n/a	wordpools/wordpool_EN.txt	WORLD	3	11	[0, 0, 0]	n/a	FR1	2	R1111M
1300.202	1.6	756407	WORD	n/a	wordpools/wordpool_EN.txt	LIP	4	11	[0, 0, 0]	n/a	FR1	2	R1111M
1302.669	1.6	757641	WORD	n/a	wordpools/wordpool_EN.txt	SCHOOL	5	11	[0, 0, 0]	n/a	FR1	2	R1111M
1305.286	1.6	758949	WORD	n/a	wordpools/wordpool_EN.txt	WING	6	11	[0, 0, 0]	n/a	FR1	2	R1111M
1307.853	1.6	760233	WORD	n/a	wordpools/wordpool_EN.txt	SWAMP	7	11	[0, 0, 0]	n/a	FR1	2	R1111M
1310.354	1.6	761483	WORD	n/a	wordpools/wordpool_EN.txt	BAT	8	11	[0, 0, 0]	n/a	FR1	2	R1111M
1312.954	1.6	762783	WORD	n/a	wordpools/wordpool_EN.txt	MAZE	9	11	[0, 0, 0]	n/a	FR1	2	R1111M
1315.438	1.6	764025	WORD	n/a	wordpools/wordpool_EN.txt	TANK	10	11	[0, 0, 0]	n/a	FR1	2	R1111M
1317.822	1.6	765217	WORD	n/a	wordpools/wordpool_EN.txt	BADGE	11	11	[0, 0, 0]	n/a	FR1	2	R1111M
1320.306	1.6	766459	WORD	n/a	wordpools/wordpool_EN.txt	JET	12	11	[0, 0, 0]	n/a	FR1	2	R1111M
1321.923	0.0	767267	DISTRACT_START	n/a	n/a	n/a	-999	11	[0, 0, 0]	n/a	FR1	2	R1111M
1321.923	0.016	767267	START	n/a	n/a	n/a	-999	11	[-999, -999, -999]	n/a	FR1	2	R1111M
1321.939	6.952	767275	PROB	6.919	n/a	n/a	-999	11	[6, 1, 5]	12.0	FR1	2	R1111M
1328.891	8.468	770751	PROB	8.447	n/a	n/a	-999	11	[9, 3, 5]	17.0	FR1	2	R1111M
1337.359	4.906	774985	PROB	4.906	n/a	n/a	-999	11	[6, 1, 4]	11.0	FR1	2	R1111M
1342.265	0.012	777438	STOP	n/a	n/a	n/a	-999	11	[-999, -999, -999]	n/a	FR1	2	R1111M
1342.277	1.134	777444	DISTRACT_END	n/a	n/a	n/a	-999	11	[0, 0, 0]	n/a	FR1	2	R1111M
1343.411	2.376	778011	REC_START	n/a	n/a	n/a	-999	11	[0, 0, 0]	n/a	FR1	2	R1111M
1345.787	0.733	779199	REC_WORD	2.376	n/a	TANK	-999	11	[0, 0, 0]	n/a	FR1	2	R1111M
1346.52	3.064	779565	REC_WORD	3.109	n/a	BADGE	-999	11	[0, 0, 0]	n/a	FR1	2	R1111M
1349.584	5.228	781097	REC_WORD	6.173	n/a	JET	-999	11	[0, 0, 0]	n/a	FR1	2	R1111M
1354.812	3.777	783711	REC_WORD	11.401	n/a	MAZE	-999	11	[0, 0, 0]	n/a	FR1	2	R1111M
1358.589	2.158	785599	REC_WORD	15.178	n/a	LIP	-999	11	[0, 0, 0]	n/a	FR1	2	R1111M
1360.747	1.434	786678	REC_WORD	17.336	n/a	SCHOOL	-999	11	[0, 0, 0]	n/a	FR1	2	R1111M
1362.181	11.239	787395	REC_WORD	18.77	n/a	WING	-999	11	[0, 0, 0]	n/a	FR1	2	R1111M
1373.42	13.765	793014	REC_END	n/a	n/a	n/a	-999	11	[0, 0, 0]	n/a	FR1	2	R1111M
1387.185	10.0	799896	COUNTDOWN_START	n/a	n/a	n/a	-999	12	[0, 0, 0]	n/a	FR1	2	R1111M
1387.186	10.427	799897	TRIAL	n/a	n/a	n/a	-999	12	[0, 0, 0]	n/a	FR1	2	R1111M
1397.613	0.008	805110	COUNTDOWN_END	n/a	n/a	n/a	-999	12	[0, 0, 0]	n/a	FR1	2	R1111M
1397.621	1.6	805114	ORIENT	n/a	n/a	n/a	-999	12	[0, 0, 0]	n/a	FR1	2	R1111M
1400.238	1.6	806423	WORD	n/a	wordpools/wordpool_EN.txt	KEY	1	12	[0, 0, 0]	n/a	FR1	2	R1111M
1402.838	1.6	807722	WORD	n/a	wordpools/wordpool_EN.txt	GOLD	2	12	[0, 0, 0]	n/a	FR1	2	R1111M
1405.306	1.6	808956	WORD	n/a	wordpools/wordpool_EN.txt	FILM	3	12	[0, 0, 0]	n/a	FR1	2	R1111M
1407.823	1.6	810215	WORD	n/a	wordpools/wordpool_EN.txt	BOMB	4	12	[0, 0, 0]	n/a	FR1	2	R1111M
1410.206	1.6	811406	WORD	n/a	wordpools/wordpool_EN.txt	PRINCE	5	12	[0, 0, 0]	n/a	FR1	2	R1111M
1412.724	1.6	812665	WORD	n/a	wordpools/wordpool_EN.txt	EAR	6	12	[0, 0, 0]	n/a	FR1	2	R1111M
1415.124	1.6	813865	WORD	n/a	wordpools/wordpool_EN.txt	DART	7	12	[0, 0, 0]	n/a	FR1	2	R1111M
1417.558	1.6	815082	WORD	n/a	wordpools/wordpool_EN.txt	BALL	8	12	[0, 0, 0]	n/a	FR1	2	R1111M
1420.075	1.6	816340	WORD	n/a	wordpools/wordpool_EN.txt	PLANE	9	12	[0, 0, 0]	n/a	FR1	2	R1111M
1422.626	1.6	817616	WORD	n/a	wordpools/wordpool_EN.txt	SPARK	10	12	[0, 0, 0]	n/a	FR1	2	R1111M
1425.243	1.6	818924	WORD	n/a	wordpools/wordpool_EN.txt	COIN	11	12	[0, 0, 0]	n/a	FR1	2	R1111M
1427.743	1.6	820174	WORD	n/a	wordpools/wordpool_EN.txt	SPOON	12	12	[0, 0, 0]	n/a	FR1	2	R1111M
1429.36	0.001	820983	DISTRACT_START	n/a	n/a	n/a	-999	12	[0, 0, 0]	n/a	FR1	2	R1111M
1429.361	0.016	820983	START	n/a	n/a	n/a	-999	12	[-999, -999, -999]	n/a	FR1	2	R1111M
1429.377	7.935	820991	PROB	7.913	n/a	n/a	-999	12	[6, 1, 6]	13.0	FR1	2	R1111M
1437.312	6.984	824958	PROB	6.962	n/a	n/a	-999	12	[2, 9, 9]	20.0	FR1	2	R1111M
1444.296	5.818	828450	PROB	5.818	n/a	n/a	-999	12	[4, 7, 9]	20.0	FR1	2	R1111M
1450.114	0.017	831359	STOP	n/a	n/a	n/a	-999	12	[-999, -999, -999]	n/a	FR1	2	R1111M
1450.131	1.101	831368	DISTRACT_END	n/a	n/a	n/a	-999	12	[0, 0, 0]	n/a	FR1	2	R1111M
1451.232	2.226	831918	REC_START	n/a	n/a	n/a	-999	12	[0, 0, 0]	n/a	FR1	2	R1111M
1453.458	2.198	833031	REC_WORD	2.226	n/a	KEY	-999	12	[0, 0, 0]	n/a	FR1	2	R1111M
1455.656	1.38	834130	REC_WORD	4.424	n/a	GOLD	-999	12	[0, 0, 0]	n/a	FR1	2	R1111M
1457.036	1.012	834820	REC_WORD	5.804	n/a	COIN	-999	12	[0, 0, 0]	n/a	FR1	2	R1111M
1458.048	1.707	835326	REC_WORD	6.816	n/a	FILM	-999	12	[0, 0, 0]	n/a	FR1	2	R1111M
1459.755	2.288	836179	REC_WORD	8.523	n/a	BOMB	-999	12	[0, 0, 0]	n/a	FR1	2	R1111M
1462.043	0.844	837323	REC_WORD	10.811	n/a	DART	-999	12	[0, 0, 0]	n/a	FR1	2	R1111M
1462.887	0.887	837745	REC_WORD	11.655	n/a	BALL	-999	12	[0, 0, 0]	n/a	FR1	2	R1111M
1463.774	0.862	838189	REC_WORD	12.542	n/a	PRINCE	-999	12	[0, 0, 0]	n/a	FR1	2	R1111M
1464.636	1.619	838620	REC_WORD	13.404	n/a	EAR	-999	12	[0, 0, 0]	n/a	FR1	2	R1111M
1466.255	0.657	839429	REC_WORD	15.023	n/a	PLANE	-999	12	[0, 0, 0]	n/a	FR1	2	R1111M
1466.912	14.329	839758	REC_WORD	15.68	n/a	SHARK	-999	12	[0, 0, 0]	n/a	FR1	2	R1111M
1481.241	13.649	846922	REC_END	n/a	n/a	n/a	-999	12	[0, 0, 0]	n/a	FR1	2	R1111M
1494.89	0.0	853746	TRIAL	n/a	n/a	n/a	-999	13	[0, 0, 0]	n/a	FR1	2	R1111M
1494.89	10.0	853746	COUNTDOWN_START	n/a	n/a	n/a	-999	13	[0, 0, 0]	n/a	FR1	2	R1111M
1505.318	0.007	858960	COUNTDOWN_END	n/a	n/a	n/a	-999	13	[0, 0, 0]	n/a	FR1	2	R1111M
1505.325	1.6	858963	ORIENT	n/a	n/a	n/a	-999	13	[0, 0, 0]	n/a	FR1	2	R1111M
1507.942	1.6	860271	WORD	n/a	wordpools/wordpool_EN.txt	AXE	1	13	[0, 0, 0]	n/a	FR1	2	R1111M
1510.343	1.6	861472	WORD	n/a	wordpools/wordpool_EN.txt	CLOTH	2	13	[0, 0, 0]	n/a	FR1	2	R1111M
1512.943	1.6	862772	WORD	n/a	wordpools/wordpool_EN.txt	SPRING	3	13	[0, 0, 0]	n/a	FR1	2	R1111M
1515.36	1.6	863980	WORD	n/a	wordpools/wordpool_EN.txt	CROWN	4	13	[0, 0, 0]	n/a	FR1	2	R1111M
1517.794	1.6	865197	WORD	n/a	wordpools/wordpool_EN.txt	BED	5	13	[0, 0, 0]	n/a	FR1	2	R1111M
1520.411	1.6	866506	WORD	n/a	wordpools/wordpool_EN.txt	HEART	6	13	[0, 0, 0]	n/a	FR1	2	R1111M
1522.878	1.6	867739	WORD	n/a	wordpools/wordpool_EN.txt	BOARD	7	13	[0, 0, 0]	n/a	FR1	2	R1111M
1525.312	1.6	868956	WORD	n/a	wordpools/wordpool_EN.txt	TOOTH	8	13	[0, 0, 0]	n/a	FR1	2	R1111M
1527.696	1.6	870148	WORD	n/a	wordpools/wordpool_EN.txt	CUP	9	13	[0, 0, 0]	n/a	FR1	2	R1111M
1530.263	1.6	871431	WORD	n/a	wordpools/wordpool_EN.txt	MUD	10	13	[0, 0, 0]	n/a	FR1	2	R1111M
1532.814	1.6	872707	WORD	n/a	wordpools/wordpool_EN.txt	OAR	11	13	[0, 0, 0]	n/a	FR1	2	R1111M
1535.347	1.6	873973	WORD	n/a	wordpools/wordpool_EN.txt	LAMB	12	13	[0, 0, 0]	n/a	FR1	2	R1111M
1536.964	0.001	874782	DISTRACT_START	n/a	n/a	n/a	-999	13	[0, 0, 0]	n/a	FR1	2	R1111M
1536.965	0.016	874782	START	n/a	n/a	n/a	-999	13	[-999, -999, -999]	n/a	FR1	2	R1111M
1536.981	13.203	874790	PROB	13.181	n/a	n/a	-999	13	[8, 3, 3]	14.0	FR1	2	R1111M
1550.184	5.601	881391	PROB	5.577	n/a	n/a	-999	13	[2, 3, 2]	5.0	FR1	2	R1111M
1555.785	8.809	884192	PROB	8.809	n/a	n/a	-999	13	[1, 7, 3]	11.0	FR1	2	R1111M
1564.594	0.01	888596	STOP	n/a	n/a	n/a	-999	13	[-999, -999, -999]	n/a	FR1	2	R1111M
1564.604	1.1	888601	DISTRACT_END	n/a	n/a	n/a	-999	13	[0, 0, 0]	n/a	FR1	2	R1111M
1565.704	2.112	889151	REC_START	n/a	n/a	n/a	-999	13	[0, 0, 0]	n/a	FR1	2	R1111M
1567.816	1.463	890207	REC_WORD	2.112	n/a	AXE	-999	13	[0, 0, 0]	n/a	FR1	2	R1111M
1569.279	1.672	890938	REC_WORD	3.575	n/a	SPRING	-999	13	[0, 0, 0]	n/a	FR1	2	R1111M
1570.951	11.274	891774	REC_WORD	5.247	n/a	CLOTH	-999	13	[0, 0, 0]	n/a	FR1	2	R1111M
1582.225	1.553	897411	REC_WORD	16.521	n/a	CUP	-999	13	[0, 0, 0]	n/a	FR1	2	R1111M
1583.778	1.482	898187	REC_WORD	18.074	n/a	CROWN	-999	13	[0, 0, 0]	n/a	FR1	2	R1111M
1585.26	1.658	898928	REC_WORD	19.556	n/a	BED	-999	13	[0, 0, 0]	n/a	FR1	2	R1111M
1586.918	1.681	899757	REC_WORD	21.214	n/a	HEART	-999	13	[0, 0, 0]	n/a	FR1	2	R1111M
1588.599	7.114	900598	REC_WORD	22.895	n/a	BOARD	-999	13	[0, 0, 0]	n/a	FR1	2	R1111M
1595.713	3.013	904154	REC_END	n/a	n/a	n/a	-999	13	[0, 0, 0]	n/a	FR1	2	R1111M
1598.726	0.0	905661	TRIAL	n/a	n/a	n/a	-999	14	[0, 0, 0]	n/a	FR1	2	R1111M
1598.726	10.0	905661	COUNTDOWN_START	n/a	n/a	n/a	-999	14	[0, 0, 0]	n/a	FR1	2	R1111M
1609.154	0.008	910875	COUNTDOWN_END	n/a	n/a	n/a	-999	14	[0, 0, 0]	n/a	FR1	2	R1111M
1609.162	1.6	910879	ORIENT	n/a	n/a	n/a	-999	14	[0, 0, 0]	n/a	FR1	2	R1111M
1611.712	1.6	912154	WORD	n/a	wordpools/wordpool_EN.txt	BRIDGE	1	14	[0, 0, 0]	n/a	FR1	2	R1111M
1614.096	1.6	913345	WORD	n/a	wordpools/wordpool_EN.txt	CAGE	2	14	[0, 0, 0]	n/a	FR1	2	R1111M
1616.663	1.6	914629	WORD	n/a	wordpools/wordpool_EN.txt	BOOT	3	14	[0, 0, 0]	n/a	FR1	2	R1111M
1619.18	1.6	915887	WORD	n/a	wordpools/wordpool_EN.txt	GEESE	4	14	[0, 0, 0]	n/a	FR1	2	R1111M
1621.631	1.6	917113	WORD	n/a	wordpools/wordpool_EN.txt	SKUNK	5	14	[0, 0, 0]	n/a	FR1	2	R1111M
1624.165	1.6	918380	WORD	n/a	wordpools/wordpool_EN.txt	CLOCK	6	14	[0, 0, 0]	n/a	FR1	2	R1111M
1626.682	1.6	919638	WORD	n/a	wordpools/wordpool_EN.txt	ICE	7	14	[0, 0, 0]	n/a	FR1	2	R1111M
1629.082	1.6	920838	WORD	n/a	wordpools/wordpool_EN.txt	LAND	8	14	[0, 0, 0]	n/a	FR1	2	R1111M
1631.583	1.6	922088	WORD	n/a	wordpools/wordpool_EN.txt	FARM	9	14	[0, 0, 0]	n/a	FR1	2	R1111M
1634.033	1.6	923313	WORD	n/a	wordpools/wordpool_EN.txt	MAP	10	14	[0, 0, 0]	n/a	FR1	2	R1111M
1636.467	1.6	924530	WORD	n/a	wordpools/wordpool_EN.txt	ARK	11	14	[0, 0, 0]	n/a	FR1	2	R1111M
1639.084	1.6	925839	WORD	n/a	wordpools/wordpool_EN.txt	SKY	12	14	[0, 0, 0]	n/a	FR1	2	R1111M
1640.701	0.001	926647	DISTRACT_START	n/a	n/a	n/a	-999	14	[0, 0, 0]	n/a	FR1	2	R1111M
1640.702	0.016	926648	START	n/a	n/a	n/a	-999	14	[-999, -999, -999]	n/a	FR1	2	R1111M
1640.718	11.135	926656	PROB	11.108	n/a	n/a	-999	14	[9, 6, 9]	24.0	FR1	2	R1111M
1651.853	5.868	932223	PROB	5.845	n/a	n/a	-999	14	[8, 8, 6]	22.0	FR1	2	R1111M
1657.721	6.697	935157	PROB	6.697	n/a	n/a	-999	14	[9, 4, 3]	14.0	FR1	2	R1111M
1664.418	0.004	938505	STOP	n/a	n/a	n/a	-999	14	[-999, -999, -999]	n/a	FR1	2	R1111M
1664.422	1.085	938507	DISTRACT_END	n/a	n/a	n/a	-999	14	[0, 0, 0]	n/a	FR1	2	R1111M
1665.507	5.226	939050	REC_START	n/a	n/a	n/a	-999	14	[0, 0, 0]	n/a	FR1	2	R1111M
1670.733	1.109	941662	REC_WORD	5.226	n/a	ICE	-999	14	[0, 0, 0]	n/a	FR1	2	R1111M
1671.842	3.511	942217	REC_WORD	6.335	n/a	LAND	-999	14	[0, 0, 0]	n/a	FR1	2	R1111M
1675.353	0.661	943972	REC_WORD	9.846	n/a	BRIDGE	-999	14	[0, 0, 0]	n/a	FR1	2	R1111M
1676.014	0.784	944303	REC_WORD	10.507	n/a	CAGE	-999	14	[0, 0, 0]	n/a	FR1	2	R1111M
1676.798	0.715	944695	REC_WORD	11.291	n/a	BOOT	-999	14	[0, 0, 0]	n/a	FR1	2	R1111M
1677.513	0.542	945052	REC_WORD	12.006	n/a	GEESE	-999	14	[0, 0, 0]	n/a	FR1	2	R1111M
1678.055	0.957	945323	REC_WORD	12.548	n/a	SKUNK	-999	14	[0, 0, 0]	n/a	FR1	2	R1111M
1679.012	2.346	945802	REC_WORD	13.505	n/a	CLOCK	-999	14	[0, 0, 0]	n/a	FR1	2	R1111M
1681.358	1.921	946975	REC_WORD	15.851	n/a	FARM	-999	14	[0, 0, 0]	n/a	FR1	2	R1111M
1683.279	12.236	947935	REC_WORD	17.772	n/a	SKY	-999	14	[0, 0, 0]	n/a	FR1	2	R1111M
1695.515	13.099	954053	REC_END	n/a	n/a	n/a	-999	14	[0, 0, 0]	n/a	FR1	2	R1111M
1708.614	0.0	960602	TRIAL	n/a	n/a	n/a	-999	15	[0, 0, 0]	n/a	FR1	2	R1111M
1708.614	10.0	960602	COUNTDOWN_START	n/a	n/a	n/a	-999	15	[0, 0, 0]	n/a	FR1	2	R1111M
1719.042	0.008	965815	COUNTDOWN_END	n/a	n/a	n/a	-999	15	[0, 0, 0]	n/a	FR1	2	R1111M
1719.05	1.6	965819	ORIENT	n/a	n/a	n/a	-999	15	[0, 0, 0]	n/a	FR1	2	R1111M
1721.533	1.6	967061	WORD	n/a	wordpools/wordpool_EN.txt	ROAD	1	15	[0, 0, 0]	n/a	FR1	2	R1111M
1723.967	1.6	968278	WORD	n/a	wordpools/wordpool_EN.txt	ROOF	2	15	[0, 0, 0]	n/a	FR1	2	R1111M
1726.534	1.6	969561	WORD	n/a	wordpools/wordpool_EN.txt	PARK	3	15	[0, 0, 0]	n/a	FR1	2	R1111M
1729.068	1.6	970828	WORD	n/a	wordpools/wordpool_EN.txt	KITE	4	15	[0, 0, 0]	n/a	FR1	2	R1111M
1731.519	1.6	972054	WORD	n/a	wordpools/wordpool_EN.txt	BOX	5	15	[0, 0, 0]	n/a	FR1	2	R1111M
1733.986	1.6	973287	WORD	n/a	wordpools/wordpool_EN.txt	FOG	6	15	[0, 0, 0]	n/a	FR1	2	R1111M
1736.453	1.6	974520	WORD	n/a	wordpools/wordpool_EN.txt	SMILE	7	15	[0, 0, 0]	n/a	FR1	2	R1111M
1738.97	1.6	975779	WORD	n/a	wordpools/wordpool_EN.txt	VAN	8	15	[0, 0, 0]	n/a	FR1	2	R1111M
1741.421	1.6	977004	WORD	n/a	wordpools/wordpool_EN.txt	CAR	9	15	[0, 0, 0]	n/a	FR1	2	R1111M
1743.854	1.6	978221	WORD	n/a	wordpools/wordpool_EN.txt	RUG	10	15	[0, 0, 0]	n/a	FR1	2	R1111M
1746.371	1.6	979479	WORD	n/a	wordpools/wordpool_EN.txt	CLOWN	11	15	[0, 0, 0]	n/a	FR1	2	R1111M
1748.822	1.6	980705	WORD	n/a	wordpools/wordpool_EN.txt	LAMP	12	15	[0, 0, 0]	n/a	FR1	2	R1111M
1750.439	0.001	981513	DISTRACT_START	n/a	n/a	n/a	-999	15	[0, 0, 0]	n/a	FR1	2	R1111M
1750.44	0.016	981514	START	n/a	n/a	n/a	-999	15	[-999, -999, -999]	n/a	FR1	2	R1111M
1750.456	11.919	981522	PROB	11.889	n/a	n/a	-999	15	[5, 5, 4]	14.0	FR1	2	R1111M
1762.375	13.859	987481	PROB	13.859	n/a	n/a	-999	15	[9, 6, 9]	24.0	FR1	2	R1111M
1776.234	0.01	994410	STOP	n/a	n/a	n/a	-999	15	[-999, -999, -999]	n/a	FR1	2	R1111M
1776.244	1.184	994415	DISTRACT_END	n/a	n/a	n/a	-999	15	[0, 0, 0]	n/a	FR1	2	R1111M
1777.428	1.359	995007	REC_START	n/a	n/a	n/a	-999	15	[0, 0, 0]	n/a	FR1	2	R1111M
1778.787	0.825	995686	REC_WORD	1.359	n/a	CLOWN	-999	15	[0, 0, 0]	n/a	FR1	2	R1111M
1779.612	1.998	996099	REC_WORD	2.184	n/a	ROCK	-999	15	[0, 0, 0]	n/a	FR1	2	R1111M
1781.61	0.782	997098	REC_WORD	4.182	n/a	HOUSE	-999	15	[0, 0, 0]	n/a	FR1	2	R1111M
1782.392	3.801	997489	REC_WORD	4.964	n/a	LAMP	-999	15	[0, 0, 0]	n/a	FR1	2	R1111M
1786.193	1.283	999389	REC_WORD	8.765	n/a	PARK	-999	15	[0, 0, 0]	n/a	FR1	2	R1111M
1787.476	1.734	1000031	REC_WORD	10.048	n/a	ROAD	-999	15	[0, 0, 0]	n/a	FR1	2	R1111M
1789.21	1.205	1000897	REC_WORD	11.782	n/a	ROOF	-999	15	[0, 0, 0]	n/a	FR1	2	R1111M
1790.415	8.868	1001500	REC_WORD	12.987	n/a	KITE	-999	15	[0, 0, 0]	n/a	FR1	2	R1111M
1799.283	8.154	1005934	REC_WORD	21.855	n/a	CAR	-999	15	[0, 0, 0]	n/a	FR1	2	R1111M
1807.437	18.95	1010010	REC_END	n/a	n/a	n/a	-999	15	[0, 0, 0]	n/a	FR1	2	R1111M
1826.387	0.0	1019485	TRIAL	n/a	n/a	n/a	-999	16	[0, 0, 0]	n/a	FR1	2	R1111M
1826.387	10.0	1019485	COUNTDOWN_START	n/a	n/a	n/a	-999	16	[0, 0, 0]	n/a	FR1	2	R1111M
1836.815	0.007	1024699	COUNTDOWN_END	n/a	n/a	n/a	-999	16	[0, 0, 0]	n/a	FR1	2	R1111M
1836.822	1.6	1024702	ORIENT	n/a	n/a	n/a	-999	16	[0, 0, 0]	n/a	FR1	2	R1111M
1839.456	1.6	1026019	WORD	n/a	wordpools/wordpool_EN.txt	LEG	1	16	[0, 0, 0]	n/a	FR1	2	R1111M
1841.957	1.6	1027270	WORD	n/a	wordpools/wordpool_EN.txt	SNAKE	2	16	[0, 0, 0]	n/a	FR1	2	R1111M
1844.524	1.6	1028553	WORD	n/a	wordpools/wordpool_EN.txt	NOSE	3	16	[0, 0, 0]	n/a	FR1	2	R1111M
1847.074	1.6	1029828	WORD	n/a	wordpools/wordpool_EN.txt	MOOSE	4	16	[0, 0, 0]	n/a	FR1	2	R1111M
1849.525	1.6	1031053	WORD	n/a	wordpools/wordpool_EN.txt	GOAT	5	16	[0, 0, 0]	n/a	FR1	2	R1111M
1851.959	1.6	1032270	WORD	n/a	wordpools/wordpool_EN.txt	MILK	6	16	[0, 0, 0]	n/a	FR1	2	R1111M
1854.426	1.6	1033504	WORD	n/a	wordpools/wordpool_EN.txt	CLIFF	7	16	[0, 0, 0]	n/a	FR1	2	R1111M
1856.876	1.6	1034729	WORD	n/a	wordpools/wordpool_EN.txt	MOUSE	8	16	[0, 0, 0]	n/a	FR1	2	R1111M
1859.277	1.6	1035929	WORD	n/a	wordpools/wordpool_EN.txt	GRASS	9	16	[0, 0, 0]	n/a	FR1	2	R1111M
1861.777	1.6	1037179	WORD	n/a	wordpools/wordpool_EN.txt	STOOL	10	16	[0, 0, 0]	n/a	FR1	2	R1111M
1864.194	1.6	1038387	WORD	n/a	wordpools/wordpool_EN.txt	CALF	11	16	[0, 0, 0]	n/a	FR1	2	R1111M
1866.745	1.6	1039663	WORD	n/a	wordpools/wordpool_EN.txt	WEB	12	16	[0, 0, 0]	n/a	FR1	2	R1111M
1868.362	0.0	1040471	DISTRACT_START	n/a	n/a	n/a	-999	16	[0, 0, 0]	n/a	FR1	2	R1111M
1868.362	0.017	1040471	START	n/a	n/a	n/a	-999	16	[-999, -999, -999]	n/a	FR1	2	R1111M
1868.379	11.335	1040480	PROB	11.303	n/a	n/a	-999	16	[9, 7, 5]	21.0	FR1	2	R1111M
1879.714	9.736	1046147	PROB	9.736	n/a	n/a	-999	16	[5, 8, 2]	16.0	FR1	2	R1111M
1889.45	0.016	1051015	STOP	n/a	n/a	n/a	-999	16	[-999, -999, -999]	n/a	FR1	2	R1111M
1889.466	1.051	1051023	DISTRACT_END	n/a	n/a	n/a	-999	16	[0, 0, 0]	n/a	FR1	2	R1111M
1890.517	2.155	1051548	REC_START	n/a	n/a	n/a	-999	16	[0, 0, 0]	n/a	FR1	2	R1111M
1892.672	1.04	1052626	REC_WORD	2.155	n/a	STOOL	-999	16	[0, 0, 0]	n/a	FR1	2	R1111M
1893.712	1.297	1053146	REC_WORD	3.195	n/a	CALF	-999	16	[0, 0, 0]	n/a	FR1	2	R1111M
1895.009	4.895	1053794	REC_WORD	4.492	n/a	MILK	-999	16	[0, 0, 0]	n/a	FR1	2	R1111M
1899.904	1.498	1056241	REC_WORD	9.387	n/a	MOUSE	-999	16	[0, 0, 0]	n/a	FR1	2	R1111M
1901.402	3.828	1056990	REC_WORD	10.885	n/a	CLIFF	-999	16	[0, 0, 0]	n/a	FR1	2	R1111M
1905.23	3.686	1058904	REC_WORD	14.713	n/a	GRASS	-999	16	[0, 0, 0]	n/a	FR1	2	R1111M
1908.916	8.494	1060747	REC_WORD	18.399	n/a	MOOSE	-999	16	[0, 0, 0]	n/a	FR1	2	R1111M
1917.41	3.115	1064994	REC_WORD_VV	26.893	n/a	<>	-999	16	[0, 0, 0]	n/a	FR1	2	R1111M
1920.525	12.699	1066551	REC_END	n/a	n/a	n/a	-999	16	[0, 0, 0]	n/a	FR1	2	R1111M
1933.224	0.0	1072900	TRIAL	n/a	n/a	n/a	-999	17	[0, 0, 0]	n/a	FR1	2	R1111M
1933.224	10.0	1072900	COUNTDOWN_START	n/a	n/a	n/a	-999	17	[0, 0, 0]	n/a	FR1	2	R1111M
1943.652	0.024	1078114	COUNTDOWN_END	n/a	n/a	n/a	-999	17	[0, 0, 0]	n/a	FR1	2	R1111M
1943.676	1.6	1078126	ORIENT	n/a	n/a	n/a	-999	17	[0, 0, 0]	n/a	FR1	2	R1111M
1946.243	1.6	1079410	WORD	n/a	wordpools/wordpool_EN.txt	INK	1	17	[0, 0, 0]	n/a	FR1	2	R1111M
1948.811	1.6	1080693	WORD	n/a	wordpools/wordpool_EN.txt	FENCE	2	17	[0, 0, 0]	n/a	FR1	2	R1111M
1951.228	1.6	1081902	WORD	n/a	wordpools/wordpool_EN.txt	TRAY	3	17	[0, 0, 0]	n/a	FR1	2	R1111M
1953.728	1.6	1083152	WORD	n/a	wordpools/wordpool_EN.txt	STICK	4	17	[0, 0, 0]	n/a	FR1	2	R1111M
1956.179	1.6	1084377	WORD	n/a	wordpools/wordpool_EN.txt	STAIR	5	17	[0, 0, 0]	n/a	FR1	2	R1111M
1958.579	1.6	1085577	WORD	n/a	wordpools/wordpool_EN.txt	SHEEP	6	17	[0, 0, 0]	n/a	FR1	2	R1111M
1961.096	1.6	1086836	WORD	n/a	wordpools/wordpool_EN.txt	MUG	7	17	[0, 0, 0]	n/a	FR1	2	R1111M
1963.714	1.6	1088145	WORD	n/a	wordpools/wordpool_EN.txt	SHARK	8	17	[0, 0, 0]	n/a	FR1	2	R1111M
1966.197	1.6	1089386	WORD	n/a	wordpools/wordpool_EN.txt	ROSE	9	17	[0, 0, 0]	n/a	FR1	2	R1111M
1968.781	1.6	1090678	WORD	n/a	wordpools/wordpool_EN.txt	CANE	10	17	[0, 0, 0]	n/a	FR1	2	R1111M
1971.382	1.6	1091978	WORD	n/a	wordpools/wordpool_EN.txt	BARN	11	17	[0, 0, 0]	n/a	FR1	2	R1111M
1973.765	1.6	1093170	WORD	n/a	wordpools/wordpool_EN.txt	PEN	12	17	[0, 0, 0]	n/a	FR1	2	R1111M
1975.382	0.001	1093978	DISTRACT_START	n/a	n/a	n/a	-999	17	[0, 0, 0]	n/a	FR1	2	R1111M
1975.383	0.016	1093979	START	n/a	n/a	n/a	-999	17	[-999, -999, -999]	n/a	FR1	2	R1111M
1975.399	7.718	1093987	PROB	7.683	n/a	n/a	-999	17	[9, 9, 2]	20.0	FR1	2	R1111M
1983.117	8.169	1097846	PROB	8.132	n/a	n/a	-999	17	[1, 6, 9]	16.0	FR1	2	R1111M
1991.286	7.651	1101930	PROB	7.651	n/a	n/a	-999	17	[1, 8, 3]	12.0	FR1	2	R1111M
1998.937	0.017	1105755	STOP	n/a	n/a	n/a	-999	17	[-999, -999, -999]	n/a	FR1	2	R1111M
1998.954	1.167	1105764	DISTRACT_END	n/a	n/a	n/a	-999	17	[0, 0, 0]	n/a	FR1	2	R1111M
2000.121	15.452	1106347	REC_START	n/a	n/a	n/a	-999	17	[0, 0, 0]	n/a	FR1	2	R1111M
2015.573	0.736	1114073	REC_WORD	15.452	n/a	MUG	-999	17	[0, 0, 0]	n/a	FR1	2	R1111M
2016.309	0.818	1114441	REC_WORD	16.188	n/a	SHEEP	-999	17	[0, 0, 0]	n/a	FR1	2	R1111M
2017.127	0.747	1114850	REC_WORD	17.006	n/a	SHARK	-999	17	[0, 0, 0]	n/a	FR1	2	R1111M
2017.874	12.257	1115223	REC_WORD	17.753	n/a	ROSE	-999	17	[0, 0, 0]	n/a	FR1	2	R1111M
2030.131	1.929	1121351	REC_END	n/a	n/a	n/a	-999	17	[0, 0, 0]	n/a	FR1	2	R1111M
2032.06	10.0	1122316	COUNTDOWN_START	n/a	n/a	n/a	-999	18	[0, 0, 0]	n/a	FR1	2	R1111M
2032.06	10.428	1122316	TRIAL	n/a	n/a	n/a	-999	18	[0, 0, 0]	n/a	FR1	2	R1111M
2042.488	0.007	1127529	COUNTDOWN_END	n/a	n/a	n/a	-999	18	[0, 0, 0]	n/a	FR1	2	R1111M
2042.495	1.6	1127533	ORIENT	n/a	n/a	n/a	-999	18	[0, 0, 0]	n/a	FR1	2	R1111M
2044.879	1.6	1128725	WORD	n/a	wordpools/wordpool_EN.txt	DOG	1	18	[0, 0, 0]	n/a	FR1	2	R1111M
2047.48	1.6	1130025	WORD	n/a	wordpools/wordpool_EN.txt	PEAR	2	18	[0, 0, 0]	n/a	FR1	2	R1111M
2050.097	1.6	1131334	WORD	n/a	wordpools/wordpool_EN.txt	BREAD	3	18	[0, 0, 0]	n/a	FR1	2	R1111M
2052.631	1.6	1132601	WORD	n/a	wordpools/wordpool_EN.txt	TAIL	4	18	[0, 0, 0]	n/a	FR1	2	R1111M
2055.215	1.6	1133892	WORD	n/a	wordpools/wordpool_EN.txt	BRANCH	5	18	[0, 0, 0]	n/a	FR1	2	R1111M
2057.765	1.6	1135167	WORD	n/a	wordpools/wordpool_EN.txt	BEAN	6	18	[0, 0, 0]	n/a	FR1	2	R1111M
2060.366	1.6	1136468	WORD	n/a	wordpools/wordpool_EN.txt	BLOOM	7	18	[0, 0, 0]	n/a	FR1	2	R1111M
2062.816	1.6	1137693	WORD	n/a	wordpools/wordpool_EN.txt	FOOD	8	18	[0, 0, 0]	n/a	FR1	2	R1111M
2065.333	1.6	1138951	WORD	n/a	wordpools/wordpool_EN.txt	LAWN	9	18	[0, 0, 0]	n/a	FR1	2	R1111M
2067.817	1.6	1140193	WORD	n/a	wordpools/wordpool_EN.txt	RICE	10	18	[0, 0, 0]	n/a	FR1	2	R1111M
2070.201	1.6	1141385	WORD	n/a	wordpools/wordpool_EN.txt	EEL	11	18	[0, 0, 0]	n/a	FR1	2	R1111M
2072.801	1.6	1142685	WORD	n/a	wordpools/wordpool_EN.txt	MOTH	12	18	[0, 0, 0]	n/a	FR1	2	R1111M
2074.418	0.001	1143493	DISTRACT_START	n/a	n/a	n/a	-999	18	[0, 0, 0]	n/a	FR1	2	R1111M
2074.419	0.016	1143494	START	n/a	n/a	n/a	-999	18	[-999, -999, -999]	n/a	FR1	2	R1111M
2074.435	6.535	1143502	PROB	6.51	n/a	n/a	-999	18	[5, 2, 5]	12.0	FR1	2	R1111M
2080.97	11.819	1146769	PROB	11.784	n/a	n/a	-999	18	[5, 6, 7]	18.0	FR1	2	R1111M
2092.789	3.341	1152678	PROB	3.341	n/a	n/a	-999	18	[1, 3, 5]	9.0	FR1	2	R1111M
2096.13	0.009	1154349	STOP	n/a	n/a	n/a	-999	18	[-999, -999, -999]	n/a	FR1	2	R1111M
2096.139	1.034	1154353	DISTRACT_END	n/a	n/a	n/a	-999	18	[0, 0, 0]	n/a	FR1	2	R1111M
2097.173	8.082	1154870	REC_START	n/a	n/a	n/a	-999	18	[0, 0, 0]	n/a	FR1	2	R1111M
2105.255	1.812	1158911	REC_WORD	8.082	n/a	LAWN	-999	18	[0, 0, 0]	n/a	FR1	2	R1111M
2107.067	1.166	1159817	REC_WORD	9.894	n/a	RICE	-999	18	[0, 0, 0]	n/a	FR1	2	R1111M
2108.233	3.117	1160400	REC_WORD	11.06	n/a	EEL	-999	18	[0, 0, 0]	n/a	FR1	2	R1111M
2111.35	0.887	1161958	REC_WORD	14.177	n/a	FOOD	-999	18	[0, 0, 0]	n/a	FR1	2	R1111M
2112.237	1.587	1162402	REC_WORD	15.064	n/a	BEAN	-999	18	[0, 0, 0]	n/a	FR1	2	R1111M
2113.824	2.981	1163195	REC_WORD	16.651	n/a	BLOOM	-999	18	[0, 0, 0]	n/a	FR1	2	R1111M
2116.805	5.609	1164686	REC_WORD	19.632	n/a	STEM	-999	18	[0, 0, 0]	n/a	FR1	2	R1111M
2122.414	1.073	1167490	REC_WORD	25.241	n/a	DOG	-999	18	[0, 0, 0]	n/a	FR1	2	R1111M
2123.487	1.995	1168027	REC_WORD	26.314	n/a	TAIL	-999	18	[0, 0, 0]	n/a	FR1	2	R1111M
2125.482	1.706	1169024	REC_WORD	28.309	n/a	PEAR	-999	18	[0, 0, 0]	n/a	FR1	2	R1111M
2127.188	9.142	1169877	REC_END	n/a	n/a	n/a	-999	18	[0, 0, 0]	n/a	FR1	2	R1111M
2136.33	0.0	1174448	TRIAL	n/a	n/a	n/a	-999	19	[0, 0, 0]	n/a	FR1	2	R1111M
2136.33	10.0	1174448	COUNTDOWN_START	n/a	n/a	n/a	-999	19	[0, 0, 0]	n/a	FR1	2	R1111M
2146.758	0.008	1179661	COUNTDOWN_END	n/a	n/a	n/a	-999	19	[0, 0, 0]	n/a	FR1	2	R1111M
2146.766	1.6	1179665	ORIENT	n/a	n/a	n/a	-999	19	[0, 0, 0]	n/a	FR1	2	R1111M
2149.249	1.6	1180907	WORD	n/a	wordpools/wordpool_EN.txt	SQUARE	1	19	[0, 0, 0]	n/a	FR1	2	R1111M
2151.733	1.6	1182149	WORD	n/a	wordpools/wordpool_EN.txt	BRICK	2	19	[0, 0, 0]	n/a	FR1	2	R1111M
2154.217	1.6	1183391	WORD	n/a	wordpools/wordpool_EN.txt	SMOKE	3	19	[0, 0, 0]	n/a	FR1	2	R1111M
2156.634	1.6	1184599	WORD	n/a	wordpools/wordpool_EN.txt	NAIL	4	19	[0, 0, 0]	n/a	FR1	2	R1111M
2159.051	1.6	1185808	WORD	n/a	wordpools/wordpool_EN.txt	PIN	5	19	[0, 0, 0]	n/a	FR1	2	R1111M
2161.569	1.6	1187066	WORD	n/a	wordpools/wordpool_EN.txt	VEST	6	19	[0, 0, 0]	n/a	FR1	2	R1111M
2163.985	1.6	1188274	WORD	n/a	wordpools/wordpool_EN.txt	WHALE	7	19	[0, 0, 0]	n/a	FR1	2	R1111M
2166.369	1.6	1189466	WORD	n/a	wordpools/wordpool_EN.txt	SNOW	8	19	[0, 0, 0]	n/a	FR1	2	R1111M
2168.92	1.6	1190742	WORD	n/a	wordpools/wordpool_EN.txt	FLAME	9	19	[0, 0, 0]	n/a	FR1	2	R1111M
2171.337	1.6	1191950	WORD	n/a	wordpools/wordpool_EN.txt	DOCK	10	19	[0, 0, 0]	n/a	FR1	2	R1111M
2173.904	1.6	1193234	WORD	n/a	wordpools/wordpool_EN.txt	STORM	11	19	[0, 0, 0]	n/a	FR1	2	R1111M
2176.471	1.6	1194517	WORD	n/a	wordpools/wordpool_EN.txt	LAKE	12	19	[0, 0, 0]	n/a	FR1	2	R1111M
2178.088	0.001	1195325	DISTRACT_START	n/a	n/a	n/a	-999	19	[0, 0, 0]	n/a	FR1	2	R1111M
2178.089	0.016	1195326	START	n/a	n/a	n/a	-999	19	[-999, -999, -999]	n/a	FR1	2	R1111M
2178.105	7.368	1195334	PROB	7.337	n/a	n/a	-999	19	[2, 9, 9]	20.0	FR1	2	R1111M
2185.473	4.434	1199018	PROB	4.409	n/a	n/a	-999	19	[1, 6, 2]	9.0	FR1	2	R1111M
2189.907	4.251	1201235	PROB	4.223	n/a	n/a	-999	19	[6, 8, 3]	17.0	FR1	2	R1111M
2194.158	5.716	1203360	PROB	5.716	n/a	n/a	-999	19	[4, 6, 5]	15.0	FR1	2	R1111M
2199.874	0.019	1206218	STOP	n/a	n/a	n/a	-999	19	[-999, -999, -999]	n/a	FR1	2	R1111M
2199.893	1.084	1206227	DISTRACT_END	n/a	n/a	n/a	-999	19	[0, 0, 0]	n/a	FR1	2	R1111M
2200.977	3.174	1206769	REC_START	n/a	n/a	n/a	-999	19	[0, 0, 0]	n/a	FR1	2	R1111M
2204.151	1.151	1208356	REC_WORD	3.174	n/a	SQUARE	-999	19	[0, 0, 0]	n/a	FR1	2	R1111M
2205.302	0.743	1208932	REC_WORD	4.325	n/a	BRICK	-999	19	[0, 0, 0]	n/a	FR1	2	R1111M
2206.045	1.776	1209303	REC_WORD	5.068	n/a	SMOKE	-999	19	[0, 0, 0]	n/a	FR1	2	R1111M
2207.821	0.678	1210191	REC_WORD	6.844	n/a	PIN	-999	19	[0, 0, 0]	n/a	FR1	2	R1111M
2208.499	1.802	1210530	REC_WORD	7.522	n/a	VEST	-999	19	[0, 0, 0]	n/a	FR1	2	R1111M
2210.301	20.685	1211431	REC_WORD	9.324	n/a	WHALE	-999	19	[0, 0, 0]	n/a	FR1	2	R1111M
2230.986	2.513	1221773	REC_END	n/a	n/a	n/a	-999	19	[0, 0, 0]	n/a	FR1	2	R1111M
2233.499	0.0	1223029	TRIAL	n/a	n/a	n/a	-999	20	[0, 0, 0]	n/a	FR1	2	R1111M
2233.499	10.0	1223029	COUNTDOWN_START	n/a	n/a	n/a	-999	20	[0, 0, 0]	n/a	FR1	2	R1111M
2243.927	0.007	1228243	COUNTDOWN_END	n/a	n/a	n/a	-999	20	[0, 0, 0]	n/a	FR1	2	R1111M
2243.934	1.6	1228247	ORIENT	n/a	n/a	n/a	-999	20	[0, 0, 0]	n/a	FR1	2	R1111M
2246.502	1.6	1229531	WORD	n/a	wordpools/wordpool_EN.txt	FORK	1	20	[0, 0, 0]	n/a	FR1	2	R1111M
2248.985	1.6	1230772	WORD	n/a	wordpools/wordpool_EN.txt	BANK	2	20	[0, 0, 0]	n/a	FR1	2	R1111M
2251.502	1.6	1232030	WORD	n/a	wordpools/wordpool_EN.txt	SLEEVE	3	20	[0, 0, 0]	n/a	FR1	2	R1111M
2253.953	1.6	1233256	WORD	n/a	wordpools/wordpool_EN.txt	WAND	4	20	[0, 0, 0]	n/a	FR1	2	R1111M
2256.47	1.6	1234514	WORD	n/a	wordpools/wordpool_EN.txt	TOE	5	20	[0, 0, 0]	n/a	FR1	2	R1111M
2258.921	1.6	1235740	WORD	n/a	wordpools/wordpool_EN.txt	COUCH	6	20	[0, 0, 0]	n/a	FR1	2	R1111M
2261.504	1.6	1237031	WORD	n/a	wordpools/wordpool_EN.txt	GATE	7	20	[0, 0, 0]	n/a	FR1	2	R1111M
2264.055	1.6	1238307	WORD	n/a	wordpools/wordpool_EN.txt	STRING	8	20	[0, 0, 0]	n/a	FR1	2	R1111M
2266.607	1.6	1239582	WORD	n/a	wordpools/wordpool_EN.txt	VINE	9	20	[0, 0, 0]	n/a	FR1	2	R1111M
2269.106	1.6	1240832	WORD	n/a	wordpools/wordpool_EN.txt	SPEAR	10	20	[0, 0, 0]	n/a	FR1	2	R1111M
2271.573	1.6	1242065	WORD	n/a	wordpools/wordpool_EN.txt	TIE	11	20	[0, 0, 0]	n/a	FR1	2	R1111M
2274.14	1.6	1243349	WORD	n/a	wordpools/wordpool_EN.txt	PALM	12	20	[0, 0, 0]	n/a	FR1	2	R1111M
2275.757	0.001	1244157	DISTRACT_START	n/a	n/a	n/a	-999	20	[0, 0, 0]	n/a	FR1	2	R1111M
2275.758	0.016	1244158	START	n/a	n/a	n/a	-999	20	[-999, -999, -999]	n/a	FR1	2	R1111M
2275.774	11.185	1244166	PROB	11.163	n/a	n/a	-999	20	[1, 4, 9]	14.0	FR1	2	R1111M
2286.959	5.001	1249758	PROB	4.979	n/a	n/a	-999	20	[4, 2, 7]	13.0	FR1	2	R1111M
2291.96	3.685	1252258	PROB	3.65	n/a	n/a	-999	20	[1, 7, 1]	9.0	FR1	2	R1111M
2295.645	3.876	1254101	PROB	3.876	n/a	n/a	-999	20	[5, 6, 1]	12.0	FR1	2	R1111M
2299.521	0.008	1256039	STOP	n/a	n/a	n/a	-999	20	[-999, -999, -999]	n/a	FR1	2	R1111M
2299.529	1.068	1256043	DISTRACT_END	n/a	n/a	n/a	-999	20	[0, 0, 0]	n/a	FR1	2	R1111M
2300.597	5.107	1256577	REC_START	n/a	n/a	n/a	-999	20	[0, 0, 0]	n/a	FR1	2	R1111M
2305.704	2.159	1259130	REC_WORD	5.107	n/a	BANK	-999	20	[0, 0, 0]	n/a	FR1	2	R1111M
2307.863	1.4	1260209	REC_WORD	7.266	n/a	FORK	-999	20	[0, 0, 0]	n/a	FR1	2	R1111M
2309.263	2.081	1260909	REC_WORD	8.666	n/a	SLEEVE	-999	20	[0, 0, 0]	n/a	FR1	2	R1111M
2311.344	1.85	1261950	REC_WORD	10.747	n/a	SPRING	-999	20	[0, 0, 0]	n/a	FR1	2	R1111M
2313.194	17.412	1262875	REC_WORD	12.597	n/a	GATE	-999	20	[0, 0, 0]	n/a	FR1	2	R1111M
2330.606	11.231	1271580	REC_END	n/a	n/a	n/a	-999	20	[0, 0, 0]	n/a	FR1	2	R1111M
2341.837	0.0	1277195	TRIAL	n/a	n/a	n/a	-999	21	[0, 0, 0]	n/a	FR1	2	R1111M
2341.837	10.0	1277195	COUNTDOWN_START	n/a	n/a	n/a	-999	21	[0, 0, 0]	n/a	FR1	2	R1111M
2352.265	0.007	1282409	COUNTDOWN_END	n/a	n/a	n/a	-999	21	[0, 0, 0]	n/a	FR1	2	R1111M
2352.272	1.6	1282413	ORIENT	n/a	n/a	n/a	-999	21	[0, 0, 0]	n/a	FR1	2	R1111M
2354.672	1.6	1283612	WORD	n/a	wordpools/wordpool_EN.txt	MULE	1	21	[0, 0, 0]	n/a	FR1	2	R1111M
2357.29	1.6	1284921	WORD	n/a	wordpools/wordpool_EN.txt	FORT	2	21	[0, 0, 0]	n/a	FR1	2	R1111M
2359.757	1.6	1286155	WORD	n/a	wordpools/wordpool_EN.txt	PEA	3	21	[0, 0, 0]	n/a	FR1	2	R1111M
2362.358	1.6	1287455	WORD	n/a	wordpools/wordpool_EN.txt	HILL	4	21	[0, 0, 0]	n/a	FR1	2	R1111M
2364.791	1.6	1288672	WORD	n/a	wordpools/wordpool_EN.txt	HEN	5	21	[0, 0, 0]	n/a	FR1	2	R1111M
2367.342	1.6	1289947	WORD	n/a	wordpools/wordpool_EN.txt	MAT	6	21	[0, 0, 0]	n/a	FR1	2	R1111M
2369.776	1.6	1291164	WORD	n/a	wordpools/wordpool_EN.txt	PANTS	7	21	[0, 0, 0]	n/a	FR1	2	R1111M
2372.193	1.6	1292372	WORD	n/a	wordpools/wordpool_EN.txt	FOX	8	21	[0, 0, 0]	n/a	FR1	2	R1111M
2374.777	1.6	1293664	WORD	n/a	wordpools/wordpool_EN.txt	FLAG	9	21	[0, 0, 0]	n/a	FR1	2	R1111M
2377.26	1.6	1294906	WORD	n/a	wordpools/wordpool_EN.txt	SIGN	10	21	[0, 0, 0]	n/a	FR1	2	R1111M
2379.644	1.6	1296098	WORD	n/a	wordpools/wordpool_EN.txt	GUARD	11	21	[0, 0, 0]	n/a	FR1	2	R1111M
2382.161	1.6	1297356	WORD	n/a	wordpools/wordpool_EN.txt	HAWK	12	21	[0, 0, 0]	n/a	FR1	2	R1111M
2383.778	0.001	1298165	DISTRACT_START	n/a	n/a	n/a	-999	21	[0, 0, 0]	n/a	FR1	2	R1111M
2383.779	0.016	1298165	START	n/a	n/a	n/a	-999	21	[-999, -999, -999]	n/a	FR1	2	R1111M
2383.795	11.369	1298173	PROB	11.342	n/a	n/a	-999	21	[9, 8, 5]	22.0	FR1	2	R1111M
2395.164	8.614	1303857	PROB	8.614	n/a	n/a	-999	21	[5, 9, 6]	20.0	FR1	2	R1111M
2403.778	0.004	1308164	STOP	n/a	n/a	n/a	-999	21	[-999, -999, -999]	n/a	FR1	2	R1111M
2403.782	1.117	1308166	DISTRACT_END	n/a	n/a	n/a	-999	21	[0, 0, 0]	n/a	FR1	2	R1111M
2404.899	3.327	1308725	REC_START	n/a	n/a	n/a	-999	21	[0, 0, 0]	n/a	FR1	2	R1111M
2408.226	0.912	1310388	REC_WORD	3.327	n/a	PEA	-999	21	[0, 0, 0]	n/a	FR1	2	R1111M
2409.138	2.356	1310844	REC_WORD	4.239	n/a	HILL	-999	21	[0, 0, 0]	n/a	FR1	2	R1111M
2411.494	1.725	1312022	REC_WORD	6.595	n/a	SOCK	-999	21	[0, 0, 0]	n/a	FR1	2	R1111M
2413.219	2.248	1312884	REC_WORD	8.32	n/a	PANTS	-999	21	[0, 0, 0]	n/a	FR1	2	R1111M
2415.467	2.041	1314008	REC_WORD	10.568	n/a	HEN	-999	21	[0, 0, 0]	n/a	FR1	2	R1111M
2417.508	1.23	1315029	REC_WORD	12.609	n/a	FOX	-999	21	[0, 0, 0]	n/a	FR1	2	R1111M
2418.738	16.172	1315644	REC_WORD	13.839	n/a	FLAG	-999	21	[0, 0, 0]	n/a	FR1	2	R1111M
2434.91	4.262	1323729	REC_END	n/a	n/a	n/a	-999	21	[0, 0, 0]	n/a	FR1	2	R1111M
2439.172	0.0	1325860	TRIAL	n/a	n/a	n/a	-999	22	[0, 0, 0]	n/a	FR1	2	R1111M
2439.172	10.0	1325860	COUNTDOWN_START	n/a	n/a	n/a	-999	22	[0, 0, 0]	n/a	FR1	2	R1111M
2449.6	0.009	1331074	COUNTDOWN_END	n/a	n/a	n/a	-999	22	[0, 0, 0]	n/a	FR1	2	R1111M
2449.609	1.6	1331078	ORIENT	n/a	n/a	n/a	-999	22	[0, 0, 0]	n/a	FR1	2	R1111M
2452.041	1.6	1332294	WORD	n/a	wordpools/wordpool_EN.txt	STEM	1	22	[0, 0, 0]	n/a	FR1	2	R1111M
2454.525	1.6	1333536	WORD	n/a	wordpools/wordpool_EN.txt	MOON	2	22	[0, 0, 0]	n/a	FR1	2	R1111M
2457.059	1.6	1334803	WORD	n/a	wordpools/wordpool_EN.txt	EGG	3	22	[0, 0, 0]	n/a	FR1	2	R1111M
2459.493	1.6	1336020	WORD	n/a	wordpools/wordpool_EN.txt	TOAD	4	22	[0, 0, 0]	n/a	FR1	2	R1111M
2462.127	1.6	1337337	WORD	n/a	wordpools/wordpool_EN.txt	LEAF	5	22	[0, 0, 0]	n/a	FR1	2	R1111M
2464.711	1.6	1338629	WORD	n/a	wordpools/wordpool_EN.txt	HORSE	6	22	[0, 0, 0]	n/a	FR1	2	R1111M
2467.178	1.6	1339862	WORD	n/a	wordpools/wordpool_EN.txt	CASH	7	22	[0, 0, 0]	n/a	FR1	2	R1111M
2469.712	1.6	1341129	WORD	n/a	wordpools/wordpool_EN.txt	POLE	8	22	[0, 0, 0]	n/a	FR1	2	R1111M
2472.179	1.6	1342363	WORD	n/a	wordpools/wordpool_EN.txt	CORD	9	22	[0, 0, 0]	n/a	FR1	2	R1111M
2474.746	1.6	1343646	WORD	n/a	wordpools/wordpool_EN.txt	BOOK	10	22	[0, 0, 0]	n/a	FR1	2	R1111M
2477.246	1.6	1344896	WORD	n/a	wordpools/wordpool_EN.txt	FUDGE	11	22	[0, 0, 0]	n/a	FR1	2	R1111M
2479.647	1.6	1346096	WORD	n/a	wordpools/wordpool_EN.txt	SEED	12	22	[0, 0, 0]	n/a	FR1	2	R1111M
2481.264	0.0	1346905	DISTRACT_START	n/a	n/a	n/a	-999	22	[0, 0, 0]	n/a	FR1	2	R1111M
2481.264	0.016	1346905	START	n/a	n/a	n/a	-999	22	[-999, -999, -999]	n/a	FR1	2	R1111M
2481.28	9.886	1346913	PROB	9.866	n/a	n/a	-999	22	[5, 1, 1]	7.0	FR1	2	R1111M
2491.166	4.901	1351856	PROB	4.876	n/a	n/a	-999	22	[9, 2, 3]	14.0	FR1	2	R1111M
2496.067	7.687	1354306	PROB	7.687	n/a	n/a	-999	22	[1, 6, 4]	11.0	FR1	2	R1111M
2503.754	0.014	1358149	STOP	n/a	n/a	n/a	-999	22	[-999, -999, -999]	n/a	FR1	2	R1111M
2503.768	1.217	1358156	DISTRACT_END	n/a	n/a	n/a	-999	22	[0, 0, 0]	n/a	FR1	2	R1111M
2504.985	4.146	1358765	REC_START	n/a	n/a	n/a	-999	22	[0, 0, 0]	n/a	FR1	2	R1111M
2509.131	1.415	1360838	REC_WORD	4.146	n/a	MOON	-999	22	[0, 0, 0]	n/a	FR1	2	R1111M
2510.546	1.021	1361545	REC_WORD	5.561	n/a	EGG	-999	22	[0, 0, 0]	n/a	FR1	2	R1111M
2511.567	2.306	1362056	REC_WORD	6.582	n/a	STEM	-999	22	[0, 0, 0]	n/a	FR1	2	R1111M
2513.873	2.327	1363208	REC_WORD	8.888	n/a	FROG	-999	22	[0, 0, 0]	n/a	FR1	2	R1111M
2516.2	2.044	1364372	REC_WORD	11.215	n/a	LEAF	-999	22	[0, 0, 0]	n/a	FR1	2	R1111M
2518.244	1.133	1365394	REC_WORD	13.259	n/a	HORSE	-999	22	[0, 0, 0]	n/a	FR1	2	R1111M
2519.377	1.96	1365960	REC_WORD	14.392	n/a	CASH	-999	22	[0, 0, 0]	n/a	FR1	2	R1111M
2521.337	13.661	1366940	REC_WORD	16.352	n/a	POLE	-999	22	[0, 0, 0]	n/a	FR1	2	R1111M
2534.998	9.528	1373770	REC_END	n/a	n/a	n/a	-999	22	[0, 0, 0]	n/a	FR1	2	R1111M
2544.526	0.0	1378534	TRIAL	n/a	n/a	n/a	-999	23	[0, 0, 0]	n/a	FR1	2	R1111M
2544.526	10.0	1378534	COUNTDOWN_START	n/a	n/a	n/a	-999	23	[0, 0, 0]	n/a	FR1	2	R1111M
2554.954	0.007	1383748	COUNTDOWN_END	n/a	n/a	n/a	-999	23	[0, 0, 0]	n/a	FR1	2	R1111M
2554.961	1.6	1383751	ORIENT	n/a	n/a	n/a	-999	23	[0, 0, 0]	n/a	FR1	2	R1111M
2557.512	1.6	1385027	WORD	n/a	wordpools/wordpool_EN.txt	JAR	1	23	[0, 0, 0]	n/a	FR1	2	R1111M
2559.962	1.6	1386252	WORD	n/a	wordpools/wordpool_EN.txt	STRAW	2	23	[0, 0, 0]	n/a	FR1	2	R1111M
2562.579	1.6	1387560	WORD	n/a	wordpools/wordpool_EN.txt	CHIN	3	23	[0, 0, 0]	n/a	FR1	2	R1111M
2564.963	1.6	1388752	WORD	n/a	wordpools/wordpool_EN.txt	BEAK	4	23	[0, 0, 0]	n/a	FR1	2	R1111M
2567.397	1.6	1389969	WORD	n/a	wordpools/wordpool_EN.txt	FACE	5	23	[0, 0, 0]	n/a	FR1	2	R1111M
2569.797	1.6	1391169	WORD	n/a	wordpools/wordpool_EN.txt	DOLL	6	23	[0, 0, 0]	n/a	FR1	2	R1111M
2572.248	1.6	1392394	WORD	n/a	wordpools/wordpool_EN.txt	YARD	7	23	[0, 0, 0]	n/a	FR1	2	R1111M
2574.632	1.6	1393586	WORD	n/a	wordpools/wordpool_EN.txt	CHEEK	8	23	[0, 0, 0]	n/a	FR1	2	R1111M
2577.132	1.6	1394836	WORD	n/a	wordpools/wordpool_EN.txt	TEA	9	23	[0, 0, 0]	n/a	FR1	2	R1111M
2579.716	1.6	1396128	WORD	n/a	wordpools/wordpool_EN.txt	SINK	10	23	[0, 0, 0]	n/a	FR1	2	R1111M
2582.2	1.6	1397370	WORD	n/a	wordpools/wordpool_EN.txt	CHAIR	11	23	[0, 0, 0]	n/a	FR1	2	R1111M
2584.65	1.6	1398595	WORD	n/a	wordpools/wordpool_EN.txt	BAG	12	23	[0, 0, 0]	n/a	FR1	2	R1111M
2586.267	0.001	1399403	DISTRACT_START	n/a	n/a	n/a	-999	23	[0, 0, 0]	n/a	FR1	2	R1111M
2586.268	0.016	1399404	START	n/a	n/a	n/a	-999	23	[-999, -999, -999]	n/a	FR1	2	R1111M
2586.284	13.703	1399412	PROB	13.67	n/a	n/a	-999	23	[6, 2, 5]	13.0	FR1	2	R1111M
2599.987	4.551	1406263	PROB	4.519	n/a	n/a	-999	23	[9, 1, 9]	19.0	FR1	2	R1111M
2604.538	3.664	1408538	PROB	3.664	n/a	n/a	-999	23	[1, 5, 8]	14.0	FR1	2	R1111M
2608.202	0.003	1410370	STOP	n/a	n/a	n/a	-999	23	[-999, -999, -999]	n/a	FR1	2	R1111M
2608.205	1.117	1410372	DISTRACT_END	n/a	n/a	n/a	-999	23	[0, 0, 0]	n/a	FR1	2	R1111M
2609.322	9.104	1410930	REC_START	n/a	n/a	n/a	-999	23	[0, 0, 0]	n/a	FR1	2	R1111M
2618.426	0.903	1415482	REC_WORD	9.104	n/a	TEA	-999	23	[0, 0, 0]	n/a	FR1	2	R1111M
2619.329	0.918	1415933	REC_WORD	10.007	n/a	JAR	-999	23	[0, 0, 0]	n/a	FR1	2	R1111M
2620.247	1.718	1416392	REC_WORD	10.925	n/a	STRAW	-999	23	[0, 0, 0]	n/a	FR1	2	R1111M
2621.965	0.896	1417251	REC_WORD	12.643	n/a	CHIN	-999	23	[0, 0, 0]	n/a	FR1	2	R1111M
2622.861	1.479	1417699	REC_WORD	13.539	n/a	CHEEK	-999	23	[0, 0, 0]	n/a	FR1	2	R1111M
2624.34	1.249	1418439	REC_WORD	15.018	n/a	BEAK	-999	23	[0, 0, 0]	n/a	FR1	2	R1111M
2625.589	7.095	1419063	REC_WORD	16.267	n/a	FACE	-999	23	[0, 0, 0]	n/a	FR1	2	R1111M
2632.684	6.651	1422611	REC_WORD	23.362	n/a	BAG	-999	23	[0, 0, 0]	n/a	FR1	2	R1111M
2639.335	3.643	1425936	REC_END	n/a	n/a	n/a	-999	23	[0, 0, 0]	n/a	FR1	2	R1111M
2642.978	0.0	1427757	TRIAL	n/a	n/a	n/a	-999	24	[0, 0, 0]	n/a	FR1	2	R1111M
2642.978	10.0	1427757	COUNTDOWN_START	n/a	n/a	n/a	-999	24	[0, 0, 0]	n/a	FR1	2	R1111M
2653.406	0.008	1432971	COUNTDOWN_END	n/a	n/a	n/a	-999	24	[0, 0, 0]	n/a	FR1	2	R1111M
2653.414	1.6	1432975	ORIENT	n/a	n/a	n/a	-999	24	[0, 0, 0]	n/a	FR1	2	R1111M
2655.898	1.6	1434217	WORD	n/a	wordpools/wordpool_EN.txt	STAR	1	24	[0, 0, 0]	n/a	FR1	2	R1111M
2658.448	1.6	1435492	WORD	n/a	wordpools/wordpool_EN.txt	PIPE	2	24	[0, 0, 0]	n/a	FR1	2	R1111M
2660.915	1.6	1436725	WORD	n/a	wordpools/wordpool_EN.txt	OWL	3	24	[0, 0, 0]	n/a	FR1	2	R1111M
2663.416	1.6	1437976	WORD	n/a	wordpools/wordpool_EN.txt	WOOD	4	24	[0, 0, 0]	n/a	FR1	2	R1111M
2665.849	1.6	1439192	WORD	n/a	wordpools/wordpool_EN.txt	DUCK	5	24	[0, 0, 0]	n/a	FR1	2	R1111M
2668.367	1.6	1440451	WORD	n/a	wordpools/wordpool_EN.txt	POND	6	24	[0, 0, 0]	n/a	FR1	2	R1111M
2670.867	1.6	1441701	WORD	n/a	wordpools/wordpool_EN.txt	CLOUD	7	24	[0, 0, 0]	n/a	FR1	2	R1111M
2673.468	1.6	1443001	WORD	n/a	wordpools/wordpool_EN.txt	FLOOR	8	24	[0, 0, 0]	n/a	FR1	2	R1111M
2675.985	1.6	1444260	WORD	n/a	wordpools/wordpool_EN.txt	DEER	9	24	[0, 0, 0]	n/a	FR1	2	R1111M
2678.519	1.6	1445527	WORD	n/a	wordpools/wordpool_EN.txt	SKI	10	24	[0, 0, 0]	n/a	FR1	2	R1111M
2680.952	1.6	1446743	WORD	n/a	wordpools/wordpool_EN.txt	TOY	11	24	[0, 0, 0]	n/a	FR1	2	R1111M
2683.42	1.6	1447977	WORD	n/a	wordpools/wordpool_EN.txt	WOLF	12	24	[0, 0, 0]	n/a	FR1	2	R1111M
2685.037	0.0	1448786	DISTRACT_START	n/a	n/a	n/a	-999	24	[0, 0, 0]	n/a	FR1	2	R1111M
2685.037	0.016	1448786	START	n/a	n/a	n/a	-999	24	[-999, -999, -999]	n/a	FR1	2	R1111M
2685.053	12.086	1448794	PROB	12.053	n/a	n/a	-999	24	[4, 9, 4]	17.0	FR1	2	R1111M
2697.139	5.868	1454836	PROB	5.839	n/a	n/a	-999	24	[1, 8, 8]	17.0	FR1	2	R1111M
2703.007	4.579	1457770	PROB	4.579	n/a	n/a	-999	24	[9, 2, 2]	13.0	FR1	2	R1111M
2707.586	0.006	1460059	STOP	n/a	n/a	n/a	-999	24	[-999, -999, -999]	n/a	FR1	2	R1111M
2707.592	1.15	1460062	DISTRACT_END	n/a	n/a	n/a	-999	24	[0, 0, 0]	n/a	FR1	2	R1111M
2708.742	2.091	1460637	REC_START	n/a	n/a	n/a	-999	24	[0, 0, 0]	n/a	FR1	2	R1111M
2710.833	1.869	1461683	REC_WORD	2.091	n/a	STAR	-999	24	[0, 0, 0]	n/a	FR1	2	R1111M
2712.702	1.719	1462617	REC_WORD	3.96	n/a	PIPE	-999	24	[0, 0, 0]	n/a	FR1	2	R1111M
2714.421	0.769	1463477	REC_WORD	5.679	n/a	DUCK	-999	24	[0, 0, 0]	n/a	FR1	2	R1111M
2715.19	0.643	1463861	REC_WORD	6.448	n/a	POND	-999	24	[0, 0, 0]	n/a	FR1	2	R1111M
2715.833	0.35	1464183	REC_WORD	7.091	n/a	WOOD	-999	24	[0, 0, 0]	n/a	FR1	2	R1111M
2716.183	1.108	1464358	REC_WORD	7.441	n/a	OWL	-999	24	[0, 0, 0]	n/a	FR1	2	R1111M
2717.291	1.7	1464912	REC_WORD	8.549	n/a	SKI	-999	24	[0, 0, 0]	n/a	FR1	2	R1111M
2718.991	3.23	1465762	REC_WORD	10.249	n/a	DEER	-999	24	[0, 0, 0]	n/a	FR1	2	R1111M
2722.221	1.099	1467377	REC_WORD	13.479	n/a	CLOUD	-999	24	[0, 0, 0]	n/a	FR1	2	R1111M
2723.32	15.431	1467926	REC_WORD	14.578	n/a	FLOOR	-999	24	[0, 0, 0]	n/a	FR1	2	R1111M
2738.751	6.23	1475641	REC_END	n/a	n/a	n/a	-999	24	[0, 0, 0]	n/a	FR1	2	R1111M
2744.981	10.0	1478756	COUNTDOWN_START	n/a	n/a	n/a	-999	25	[0, 0, 0]	n/a	FR1	2	R1111M
2744.982	10.427	1478756	TRIAL	n/a	n/a	n/a	-999	25	[0, 0, 0]	n/a	FR1	2	R1111M
2755.409	0.008	1483970	COUNTDOWN_END	n/a	n/a	n/a	-999	25	[0, 0, 0]	n/a	FR1	2	R1111M
2755.417	1.6	1483974	ORIENT	n/a	n/a	n/a	-999	25	[0, 0, 0]	n/a	FR1	2	R1111M
2758.001	1.6	1485266	WORD	n/a	wordpools/wordpool_EN.txt	JEEP	1	25	[0, 0, 0]	n/a	FR1	2	R1111M
2760.584	1.6	1486557	WORD	n/a	wordpools/wordpool_EN.txt	MOUTH	2	25	[0, 0, 0]	n/a	FR1	2	R1111M
2763.035	1.6	1487782	WORD	n/a	wordpools/wordpool_EN.txt	OAK	3	25	[0, 0, 0]	n/a	FR1	2	R1111M
2765.502	1.6	1489016	WORD	n/a	wordpools/wordpool_EN.txt	CUBE	4	25	[0, 0, 0]	n/a	FR1	2	R1111M
2767.919	1.6	1490224	WORD	n/a	wordpools/wordpool_EN.txt	RAKE	5	25	[0, 0, 0]	n/a	FR1	2	R1111M
2770.403	1.6	1491466	WORD	n/a	wordpools/wordpool_EN.txt	TENT	6	25	[0, 0, 0]	n/a	FR1	2	R1111M
2772.786	1.6	1492658	WORD	n/a	wordpools/wordpool_EN.txt	PET	7	25	[0, 0, 0]	n/a	FR1	2	R1111M
2775.221	1.6	1493875	WORD	n/a	wordpools/wordpool_EN.txt	TRAIN	8	25	[0, 0, 0]	n/a	FR1	2	R1111M
2777.654	1.6	1495091	WORD	n/a	wordpools/wordpool_EN.txt	HAT	9	25	[0, 0, 0]	n/a	FR1	2	R1111M
2780.238	1.6	1496383	WORD	n/a	wordpools/wordpool_EN.txt	CAPE	10	25	[0, 0, 0]	n/a	FR1	2	R1111M
2782.805	1.6	1497667	WORD	n/a	wordpools/wordpool_EN.txt	CAT	11	25	[0, 0, 0]	n/a	FR1	2	R1111M
2785.189	1.6	1498859	WORD	n/a	wordpools/wordpool_EN.txt	COW	12	25	[0, 0, 0]	n/a	FR1	2	R1111M
2786.806	0.001	1499667	DISTRACT_START	n/a	n/a	n/a	-999	25	[0, 0, 0]	n/a	FR1	2	R1111M
2786.807	0.016	1499668	START	n/a	n/a	n/a	-999	25	[-999, -999, -999]	n/a	FR1	2	R1111M
2786.823	13.703	1499676	PROB	13.674	n/a	n/a	-999	25	[9, 7, 8]	24.0	FR1	2	R1111M
2800.526	5.634	1506527	PROB	5.612	n/a	n/a	-999	25	[8, 8, 5]	21.0	FR1	2	R1111M
2806.16	4.21	1509344	PROB	4.21	n/a	n/a	-999	25	[2, 6, 4]	12.0	FR1	2	R1111M
2810.37	0.007	1511449	STOP	n/a	n/a	n/a	-999	25	[-999, -999, -999]	n/a	FR1	2	R1111M
2810.377	1.118	1511452	DISTRACT_END	n/a	n/a	n/a	-999	25	[0, 0, 0]	n/a	FR1	2	R1111M
2811.495	3.299	1512011	REC_START	n/a	n/a	n/a	-999	25	[0, 0, 0]	n/a	FR1	2	R1111M
2814.794	2.029	1513660	REC_WORD	3.299	n/a	TRAIN	-999	25	[0, 0, 0]	n/a	FR1	2	R1111M
2816.823	0.965	1514675	REC_WORD	5.328	n/a	CAT	-999	25	[0, 0, 0]	n/a	FR1	2	R1111M
2817.788	1.661	1515157	REC_WORD	6.293	n/a	COW	-999	25	[0, 0, 0]	n/a	FR1	2	R1111M
2819.449	1.101	1515988	REC_WORD	7.954	n/a	PET	-999	25	[0, 0, 0]	n/a	FR1	2	R1111M
2820.55	14.992	1516538	REC_WORD	9.055	n/a	TENT	-999	25	[0, 0, 0]	n/a	FR1	2	R1111M
2835.542	1.473	1524034	REC_WORD	24.047	n/a	SLEEP	-999	25	[0, 0, 0]	n/a	FR1	2	R1111M
2837.015	4.489	1524770	REC_WORD	25.52	n/a	SWEEP	-999	25	[0, 0, 0]	n/a	FR1	2	R1111M
2841.504	50.823	1527015	REC_END	n/a	n/a	n/a	-999	25	[0, 0, 0]	n/a	FR1	2	R1111M
2892.327	0.0	1552425	SESS_END	n/a	n/a	n/a	-999	25	[0, 0, 0]	n/a	FR1	2	R1111M
