onset	duration	sample	trial_type	response_time	stim_file	item_name	serialpos	list	test	answer	experiment	session	subject
0.0	31.932	4715	SESS_START	n/a	n/a	n/a	-999	-999	[0, 0, 0]	n/a	FR1	1	R1135E
31.932	10.0	36645	COUNTDOWN_START	n/a	n/a	n/a	-999	-999	[0, 0, 0]	n/a	FR1	1	R1135E
42.36	3.658	47072	COUNTDOWN_END	n/a	n/a	n/a	-999	-999	[0, 0, 0]	n/a	FR1	1	R1135E
46.018	1.6	50730	PRACTICE_WORD	n/a	n/a	TONGUE	1	-1	[0, 0, 0]	n/a	FR1	1	R1135E
48.601	1.6	53313	PRACTICE_WORD	n/a	n/a	BEAM	2	-1	[0, 0, 0]	n/a	FR1	1	R1135E
50.986	1.6	55697	PRACTICE_WORD	n/a	n/a	CHEST	3	-1	[0, 0, 0]	n/a	FR1	1	R1135E
53.452	1.6	58163	PRACTICE_WORD	n/a	n/a	WATCH	4	-1	[0, 0, 0]	n/a	FR1	1	R1135E
55.987	1.6	60698	PRACTICE_WORD	n/a	n/a	WAGON	5	-1	[0, 0, 0]	n/a	FR1	1	R1135E
58.453	1.6	63164	PRACTICE_WORD	n/a	n/a	CAMEL	6	-1	[0, 0, 0]	n/a	FR1	1	R1135E
60.921	1.6	65632	PRACTICE_WORD	n/a	n/a	IRON	7	-1	[0, 0, 0]	n/a	FR1	1	R1135E
63.404	1.6	68115	PRACTICE_WORD	n/a	n/a	FLOOD	8	-1	[0, 0, 0]	n/a	FR1	1	R1135E
65.788	1.6	70498	PRACTICE_WORD	n/a	n/a	ATTIC	9	-1	[0, 0, 0]	n/a	FR1	1	R1135E
68.238	1.6	72948	PRACTICE_WORD	n/a	n/a	COTTON	10	-1	[0, 0, 0]	n/a	FR1	1	R1135E
70.605	1.6	75315	PRACTICE_WORD	n/a	n/a	RING	11	-1	[0, 0, 0]	n/a	FR1	1	R1135E
72.99	1.6	77700	PRACTICE_WORD	n/a	n/a	RHINO	12	-1	[0, 0, 0]	n/a	FR1	1	R1135E
74.606	0.0	79316	PRACTICE_DISTRACT_START	n/a	n/a	n/a	-999	-1	[0, 0, 0]	n/a	FR1	1	R1135E
74.606	0.017	79316	START	n/a	n/a	n/a	-999	-1	[-999, -999, -999]	n/a	FR1	1	R1135E
74.623	6.518	79333	PROB	6.495	n/a	n/a	-999	-1	[1, 2, 2]	5.0	FR1	1	R1135E
81.141	8.985	85850	PROB	8.957	n/a	n/a	-999	-1	[4, 1, 6]	11.0	FR1	1	R1135E
90.126	8.872	94835	PROB	8.872	n/a	n/a	-999	-1	[6, 1, 2]	9.0	FR1	1	R1135E
98.998	0.013	103706	STOP	n/a	n/a	n/a	-999	-1	[-999, -999, -999]	n/a	FR1	1	R1135E
99.011	0.701	103719	PRACTICE_DISTRACT_END	n/a	n/a	n/a	-999	-1	[0, 0, 0]	n/a	FR1	1	R1135E
99.712	30.515	104420	PRACTICE_REC_START	n/a	n/a	n/a	-999	-1	[0, 0, 0]	n/a	FR1	1	R1135E
130.227	15.658	134933	PRACTICE_REC_END	n/a	n/a	n/a	-999	-1	[0, 0, 0]	n/a	FR1	1	R1135E
145.885	10.0	150590	COUNTDOWN_START	n/a	n/a	n/a	-999	1	[0, 0, 0]	n/a	FR1	1	R1135E
145.886	10.427	150591	TRIAL	n/a	n/a	n/a	-999	1	[0, 0, 0]	n/a	FR1	1	R1135E
156.313	0.007	161017	COUNTDOWN_END	n/a	n/a	n/a	-999	1	[0, 0, 0]	n/a	FR1	1	R1135E
156.32	1.6	161024	ORIENT	n/a	n/a	n/a	-999	1	[0, 0, 0]	n/a	FR1	1	R1135E
158.871	1.6	163575	WORD	n/a	wordpools/wordpool_EN.txt	LAND	1	1	[0, 0, 0]	n/a	FR1	1	R1135E
161.404	1.6	166108	WORD	n/a	wordpools/wordpool_EN.txt	SQUARE	2	1	[0, 0, 0]	n/a	FR1	1	R1135E
163.789	1.6	168493	WORD	n/a	wordpools/wordpool_EN.txt	SPOON	3	1	[0, 0, 0]	n/a	FR1	1	R1135E
166.338	1.6	171042	WORD	n/a	wordpools/wordpool_EN.txt	GRAPE	4	1	[0, 0, 0]	n/a	FR1	1	R1135E
168.756	1.6	173460	WORD	n/a	wordpools/wordpool_EN.txt	FARM	5	1	[0, 0, 0]	n/a	FR1	1	R1135E
171.156	1.6	175859	WORD	n/a	wordpools/wordpool_EN.txt	STOOL	6	1	[0, 0, 0]	n/a	FR1	1	R1135E
173.657	1.6	178360	WORD	n/a	wordpools/wordpool_EN.txt	BLOOM	7	1	[0, 0, 0]	n/a	FR1	1	R1135E
176.206	1.6	180909	WORD	n/a	wordpools/wordpool_EN.txt	APE	8	1	[0, 0, 0]	n/a	FR1	1	R1135E
178.808	1.6	183511	WORD	n/a	wordpools/wordpool_EN.txt	FLOOR	9	1	[0, 0, 0]	n/a	FR1	1	R1135E
181.424	1.6	186127	WORD	n/a	wordpools/wordpool_EN.txt	RAIN	10	1	[0, 0, 0]	n/a	FR1	1	R1135E
183.842	1.6	188544	WORD	n/a	wordpools/wordpool_EN.txt	CUP	11	1	[0, 0, 0]	n/a	FR1	1	R1135E
186.275	1.6	190977	WORD	n/a	wordpools/wordpool_EN.txt	ROCK	12	1	[0, 0, 0]	n/a	FR1	1	R1135E
187.876	0.0	192578	DISTRACT_START	n/a	n/a	n/a	-999	1	[0, 0, 0]	n/a	FR1	1	R1135E
187.876	0.017	192578	START	n/a	n/a	n/a	-999	1	[-999, -999, -999]	n/a	FR1	1	R1135E
187.893	11.218	192595	PROB	11.187	n/a	n/a	-999	1	[5, 3, 3]	11.0	FR1	1	R1135E
199.111	8.118	203812	PROB	8.085	n/a	n/a	-999	1	[5, 1, 3]	9.0	FR1	1	R1135E
207.229	8.196	211930	PROB	8.196	n/a	n/a	-999	1	[7, 7, 1]	15.0	FR1	1	R1135E
215.425	0.005	220125	STOP	n/a	n/a	n/a	-999	1	[-999, -999, -999]	n/a	FR1	1	R1135E
215.43	1.122	220130	DISTRACT_END	n/a	n/a	n/a	-999	1	[0, 0, 0]	n/a	FR1	1	R1135E
216.552	2.13	221252	REC_START	n/a	n/a	n/a	-999	1	[0, 0, 0]	n/a	FR1	1	R1135E
218.682	4.103	223382	REC_WORD	2.13	n/a	FLOOR	9	1	[0, 0, 0]	n/a	FR1	1	R1135E
222.785	10.814	227485	REC_WORD_VV	6.233	n/a	<>	-999	1	[0, 0, 0]	n/a	FR1	1	R1135E
233.599	12.958	238298	REC_WORD	17.047	n/a	RAIN	10	1	[0, 0, 0]	n/a	FR1	1	R1135E
246.557	2.946	251255	REC_END	n/a	n/a	n/a	-999	1	[0, 0, 0]	n/a	FR1	1	R1135E
249.503	0.0	254201	TRIAL	n/a	n/a	n/a	-999	2	[0, 0, 0]	n/a	FR1	1	R1135E
249.503	10.0	254201	COUNTDOWN_START	n/a	n/a	n/a	-999	2	[0, 0, 0]	n/a	FR1	1	R1135E
259.931	0.008	264628	COUNTDOWN_END	n/a	n/a	n/a	-999	2	[0, 0, 0]	n/a	FR1	1	R1135E
259.939	1.6	264636	ORIENT	n/a	n/a	n/a	-999	2	[0, 0, 0]	n/a	FR1	1	R1135E
262.488	1.6	267185	WORD	n/a	wordpools/wordpool_EN.txt	MOON	1	2	[0, 0, 0]	n/a	FR1	1	R1135E
265.056	1.6	269753	WORD	n/a	wordpools/wordpool_EN.txt	CASH	2	2	[0, 0, 0]	n/a	FR1	1	R1135E
267.673	1.6	272370	WORD	n/a	wordpools/wordpool_EN.txt	MAIL	3	2	[0, 0, 0]	n/a	FR1	1	R1135E
270.273	1.6	274970	WORD	n/a	wordpools/wordpool_EN.txt	BOMB	4	2	[0, 0, 0]	n/a	FR1	1	R1135E
272.824	1.6	277520	WORD	n/a	wordpools/wordpool_EN.txt	ICE	5	2	[0, 0, 0]	n/a	FR1	1	R1135E
275.323	1.6	280019	WORD	n/a	wordpools/wordpool_EN.txt	LEAF	6	2	[0, 0, 0]	n/a	FR1	1	R1135E
277.842	1.6	282538	WORD	n/a	wordpools/wordpool_EN.txt	MAP	7	2	[0, 0, 0]	n/a	FR1	1	R1135E
280.391	1.6	285087	WORD	n/a	wordpools/wordpool_EN.txt	FILM	8	2	[0, 0, 0]	n/a	FR1	1	R1135E
282.843	1.6	287539	WORD	n/a	wordpools/wordpool_EN.txt	FORT	9	2	[0, 0, 0]	n/a	FR1	1	R1135E
285.425	1.6	290121	WORD	n/a	wordpools/wordpool_EN.txt	TRUCK	10	2	[0, 0, 0]	n/a	FR1	1	R1135E
287.86	1.6	292555	WORD	n/a	wordpools/wordpool_EN.txt	CORD	11	2	[0, 0, 0]	n/a	FR1	1	R1135E
290.36	1.6	295055	WORD	n/a	wordpools/wordpool_EN.txt	OAR	12	2	[0, 0, 0]	n/a	FR1	1	R1135E
291.978	0.0	296673	DISTRACT_START	n/a	n/a	n/a	-999	2	[0, 0, 0]	n/a	FR1	1	R1135E
291.978	0.016	296673	START	n/a	n/a	n/a	-999	2	[-999, -999, -999]	n/a	FR1	1	R1135E
291.994	7.918	296689	PROB	7.893	n/a	n/a	-999	2	[3, 4, 4]	11.0	FR1	1	R1135E
299.912	19.79	304607	PROB	19.79	n/a	n/a	-999	2	[8, 6, 9]	23.0	FR1	1	R1135E
319.702	0.014	324395	STOP	n/a	n/a	n/a	-999	2	[-999, -999, -999]	n/a	FR1	1	R1135E
319.716	1.201	324409	DISTRACT_END	n/a	n/a	n/a	-999	2	[0, 0, 0]	n/a	FR1	1	R1135E
320.917	2.05	325610	REC_START	n/a	n/a	n/a	-999	2	[0, 0, 0]	n/a	FR1	1	R1135E
322.967	2.345	327660	REC_WORD	2.05	n/a	TRUCK	10	2	[0, 0, 0]	n/a	FR1	1	R1135E
325.312	3.63	330005	REC_WORD	4.395	n/a	FLOOR	-999	2	[0, 0, 0]	n/a	FR1	1	R1135E
328.942	8.778	333635	REC_WORD_VV	8.025	n/a	<>	-999	2	[0, 0, 0]	n/a	FR1	1	R1135E
337.72	9.598	342412	REC_WORD_VV	16.803	n/a	<>	-999	2	[0, 0, 0]	n/a	FR1	1	R1135E
347.318	3.608	352009	REC_WORD_VV	26.401	n/a	<>	-999	2	[0, 0, 0]	n/a	FR1	1	R1135E
350.926	2.795	355617	REC_END	n/a	n/a	n/a	-999	2	[0, 0, 0]	n/a	FR1	1	R1135E
353.721	0.0	358412	TRIAL	n/a	n/a	n/a	-999	3	[0, 0, 0]	n/a	FR1	1	R1135E
353.721	10.0	358412	COUNTDOWN_START	n/a	n/a	n/a	-999	3	[0, 0, 0]	n/a	FR1	1	R1135E
364.149	0.008	368839	COUNTDOWN_END	n/a	n/a	n/a	-999	3	[0, 0, 0]	n/a	FR1	1	R1135E
364.157	1.6	368847	ORIENT	n/a	n/a	n/a	-999	3	[0, 0, 0]	n/a	FR1	1	R1135E
366.641	1.6	371331	WORD	n/a	wordpools/wordpool_EN.txt	SEED	1	3	[0, 0, 0]	n/a	FR1	1	R1135E
369.141	1.6	373831	WORD	n/a	wordpools/wordpool_EN.txt	PLANT	2	3	[0, 0, 0]	n/a	FR1	1	R1135E
371.54	1.6	376230	WORD	n/a	wordpools/wordpool_EN.txt	STONE	3	3	[0, 0, 0]	n/a	FR1	1	R1135E
373.975	1.6	378665	WORD	n/a	wordpools/wordpool_EN.txt	SLIME	4	3	[0, 0, 0]	n/a	FR1	1	R1135E
376.525	1.6	381214	WORD	n/a	wordpools/wordpool_EN.txt	CLOCK	5	3	[0, 0, 0]	n/a	FR1	1	R1135E
379.143	1.6	383832	WORD	n/a	wordpools/wordpool_EN.txt	STEM	6	3	[0, 0, 0]	n/a	FR1	1	R1135E
381.727	1.6	386416	WORD	n/a	wordpools/wordpool_EN.txt	HEART	7	3	[0, 0, 0]	n/a	FR1	1	R1135E
384.326	1.6	389015	WORD	n/a	wordpools/wordpool_EN.txt	CLAY	8	3	[0, 0, 0]	n/a	FR1	1	R1135E
386.927	1.6	391616	WORD	n/a	wordpools/wordpool_EN.txt	MOUSE	9	3	[0, 0, 0]	n/a	FR1	1	R1135E
389.527	1.6	394216	WORD	n/a	wordpools/wordpool_EN.txt	BOOK	10	3	[0, 0, 0]	n/a	FR1	1	R1135E
392.028	1.6	396716	WORD	n/a	wordpools/wordpool_EN.txt	PEARL	11	3	[0, 0, 0]	n/a	FR1	1	R1135E
394.594	1.6	399282	WORD	n/a	wordpools/wordpool_EN.txt	JUDGE	12	3	[0, 0, 0]	n/a	FR1	1	R1135E
396.211	0.001	400899	DISTRACT_START	n/a	n/a	n/a	-999	3	[0, 0, 0]	n/a	FR1	1	R1135E
396.212	0.016	400900	START	n/a	n/a	n/a	-999	3	[-999, -999, -999]	n/a	FR1	1	R1135E
396.228	18.904	400916	PROB	18.88	n/a	n/a	-999	3	[3, 8, 5]	16.0	FR1	1	R1135E
415.132	11.972	419819	PROB	11.972	n/a	n/a	-999	3	[3, 9, 4]	16.0	FR1	1	R1135E
427.104	0.014	431790	STOP	n/a	n/a	n/a	-999	3	[-999, -999, -999]	n/a	FR1	1	R1135E
427.118	1.166	431804	DISTRACT_END	n/a	n/a	n/a	-999	3	[0, 0, 0]	n/a	FR1	1	R1135E
428.284	11.925	432970	REC_START	n/a	n/a	n/a	-999	3	[0, 0, 0]	n/a	FR1	1	R1135E
440.209	4.87	444894	REC_WORD	11.925	n/a	FLOOR	-999	3	[0, 0, 0]	n/a	FR1	1	R1135E
445.079	4.432	449764	REC_WORD_VV	16.795	n/a	<>	-999	3	[0, 0, 0]	n/a	FR1	1	R1135E
449.511	8.783	454195	REC_WORD	21.227	n/a	TRUCK	-999	3	[0, 0, 0]	n/a	FR1	1	R1135E
458.294	2.979	462978	REC_END	n/a	n/a	n/a	-999	3	[0, 0, 0]	n/a	FR1	1	R1135E
461.273	10.0	465957	COUNTDOWN_START	n/a	n/a	n/a	-999	4	[0, 0, 0]	n/a	FR1	1	R1135E
461.273	10.428	465957	TRIAL	n/a	n/a	n/a	-999	4	[0, 0, 0]	n/a	FR1	1	R1135E
471.701	0.008	476384	COUNTDOWN_END	n/a	n/a	n/a	-999	4	[0, 0, 0]	n/a	FR1	1	R1135E
471.709	1.6	476392	ORIENT	n/a	n/a	n/a	-999	4	[0, 0, 0]	n/a	FR1	1	R1135E
474.109	1.6	478792	WORD	n/a	wordpools/wordpool_EN.txt	NET	1	4	[0, 0, 0]	n/a	FR1	1	R1135E
476.643	1.6	481326	WORD	n/a	wordpools/wordpool_EN.txt	MOLE	2	4	[0, 0, 0]	n/a	FR1	1	R1135E
479.044	1.6	483726	WORD	n/a	wordpools/wordpool_EN.txt	THREAD	3	4	[0, 0, 0]	n/a	FR1	1	R1135E
481.66	1.6	486342	WORD	n/a	wordpools/wordpool_EN.txt	STAR	4	4	[0, 0, 0]	n/a	FR1	1	R1135E
484.044	1.6	488726	WORD	n/a	wordpools/wordpool_EN.txt	SHELL	5	4	[0, 0, 0]	n/a	FR1	1	R1135E
486.477	1.6	491159	WORD	n/a	wordpools/wordpool_EN.txt	SNOW	6	4	[0, 0, 0]	n/a	FR1	1	R1135E
488.929	1.6	493611	WORD	n/a	wordpools/wordpool_EN.txt	SHEET	7	4	[0, 0, 0]	n/a	FR1	1	R1135E
491.445	1.6	496127	WORD	n/a	wordpools/wordpool_EN.txt	BALL	8	4	[0, 0, 0]	n/a	FR1	1	R1135E
494.063	1.6	498744	WORD	n/a	wordpools/wordpool_EN.txt	CLOTH	9	4	[0, 0, 0]	n/a	FR1	1	R1135E
496.579	1.6	501260	WORD	n/a	wordpools/wordpool_EN.txt	CLOUD	10	4	[0, 0, 0]	n/a	FR1	1	R1135E
499.18	1.6	503861	WORD	n/a	wordpools/wordpool_EN.txt	WHEEL	11	4	[0, 0, 0]	n/a	FR1	1	R1135E
501.781	1.6	506462	WORD	n/a	wordpools/wordpool_EN.txt	SHARK	12	4	[0, 0, 0]	n/a	FR1	1	R1135E
503.397	0.0	508078	DISTRACT_START	n/a	n/a	n/a	-999	4	[0, 0, 0]	n/a	FR1	1	R1135E
503.397	0.016	508078	START	n/a	n/a	n/a	-999	4	[-999, -999, -999]	n/a	FR1	1	R1135E
503.413	12.42	508094	PROB	12.398	n/a	n/a	-999	4	[5, 8, 8]	21.0	FR1	1	R1135E
515.833	14.371	520513	PROB	14.371	n/a	n/a	-999	4	[4, 9, 8]	21.0	FR1	1	R1135E
530.204	0.014	534883	STOP	n/a	n/a	n/a	-999	4	[-999, -999, -999]	n/a	FR1	1	R1135E
530.218	1.218	534897	DISTRACT_END	n/a	n/a	n/a	-999	4	[0, 0, 0]	n/a	FR1	1	R1135E
531.436	30.0	536115	REC_START	n/a	n/a	n/a	-999	4	[0, 0, 0]	n/a	FR1	1	R1135E
561.436	0.009	566113	REC_WORD_VV	30.0	n/a	<>	-999	4	[0, 0, 0]	n/a	FR1	1	R1135E
561.445	2.613	566122	REC_END	n/a	n/a	n/a	-999	4	[0, 0, 0]	n/a	FR1	1	R1135E
564.058	10.0	568735	COUNTDOWN_START	n/a	n/a	n/a	-999	5	[0, 0, 0]	n/a	FR1	1	R1135E
564.059	10.427	568736	TRIAL	n/a	n/a	n/a	-999	5	[0, 0, 0]	n/a	FR1	1	R1135E
574.486	0.007	579162	COUNTDOWN_END	n/a	n/a	n/a	-999	5	[0, 0, 0]	n/a	FR1	1	R1135E
574.493	1.6	579169	ORIENT	n/a	n/a	n/a	-999	5	[0, 0, 0]	n/a	FR1	1	R1135E
577.027	1.6	581703	WORD	n/a	wordpools/wordpool_EN.txt	SPRING	1	5	[0, 0, 0]	n/a	FR1	1	R1135E
579.61	1.6	584286	WORD	n/a	wordpools/wordpool_EN.txt	SNAKE	2	5	[0, 0, 0]	n/a	FR1	1	R1135E
582.111	1.6	586787	WORD	n/a	wordpools/wordpool_EN.txt	KITE	3	5	[0, 0, 0]	n/a	FR1	1	R1135E
584.662	1.6	589337	WORD	n/a	wordpools/wordpool_EN.txt	FRUIT	4	5	[0, 0, 0]	n/a	FR1	1	R1135E
587.211	1.6	591886	WORD	n/a	wordpools/wordpool_EN.txt	FOX	5	5	[0, 0, 0]	n/a	FR1	1	R1135E
589.813	1.6	594488	WORD	n/a	wordpools/wordpool_EN.txt	CAVE	6	5	[0, 0, 0]	n/a	FR1	1	R1135E
592.212	1.6	596887	WORD	n/a	wordpools/wordpool_EN.txt	OWL	7	5	[0, 0, 0]	n/a	FR1	1	R1135E
594.614	1.6	599289	WORD	n/a	wordpools/wordpool_EN.txt	YARD	8	5	[0, 0, 0]	n/a	FR1	1	R1135E
597.197	1.6	601871	WORD	n/a	wordpools/wordpool_EN.txt	DITCH	9	5	[0, 0, 0]	n/a	FR1	1	R1135E
599.665	1.6	604339	WORD	n/a	wordpools/wordpool_EN.txt	TEA	10	5	[0, 0, 0]	n/a	FR1	1	R1135E
602.098	1.6	606772	WORD	n/a	wordpools/wordpool_EN.txt	BREAD	11	5	[0, 0, 0]	n/a	FR1	1	R1135E
604.615	1.6	609289	WORD	n/a	wordpools/wordpool_EN.txt	JUICE	12	5	[0, 0, 0]	n/a	FR1	1	R1135E
606.231	0.001	610905	DISTRACT_START	n/a	n/a	n/a	-999	5	[0, 0, 0]	n/a	FR1	1	R1135E
606.232	0.016	610906	START	n/a	n/a	n/a	-999	5	[-999, -999, -999]	n/a	FR1	1	R1135E
606.248	16.537	610922	PROB	16.517	n/a	n/a	-999	5	[1, 9, 7]	17.0	FR1	1	R1135E
622.785	17.049	627458	PROB	17.049	n/a	n/a	-999	5	[7, 9, 2]	18.0	FR1	1	R1135E
639.834	0.004	644506	STOP	n/a	n/a	n/a	-999	5	[-999, -999, -999]	n/a	FR1	1	R1135E
639.838	1.051	644510	DISTRACT_END	n/a	n/a	n/a	-999	5	[0, 0, 0]	n/a	FR1	1	R1135E
640.889	2.766	645561	REC_START	n/a	n/a	n/a	-999	5	[0, 0, 0]	n/a	FR1	1	R1135E
643.655	2.024	648326	REC_WORD	2.766	n/a	DITCH	9	5	[0, 0, 0]	n/a	FR1	1	R1135E
645.679	5.231	650350	REC_WORD	4.79	n/a	CAVE	6	5	[0, 0, 0]	n/a	FR1	1	R1135E
650.91	4.979	655581	REC_WORD	10.021	n/a	OWL	7	5	[0, 0, 0]	n/a	FR1	1	R1135E
655.889	6.389	660560	REC_WORD_VV	15.0	n/a	<>	-999	5	[0, 0, 0]	n/a	FR1	1	R1135E
662.278	8.619	666948	REC_WORD	21.389	n/a	YARD	8	5	[0, 0, 0]	n/a	FR1	1	R1135E
670.897	3.014	675566	REC_END	n/a	n/a	n/a	-999	5	[0, 0, 0]	n/a	FR1	1	R1135E
673.911	0.0	678580	TRIAL	n/a	n/a	n/a	-999	6	[0, 0, 0]	n/a	FR1	1	R1135E
673.911	10.0	678580	COUNTDOWN_START	n/a	n/a	n/a	-999	6	[0, 0, 0]	n/a	FR1	1	R1135E
684.339	0.006	689008	COUNTDOWN_END	n/a	n/a	n/a	-999	6	[0, 0, 0]	n/a	FR1	1	R1135E
684.345	1.6	689014	ORIENT	n/a	n/a	n/a	-999	6	[0, 0, 0]	n/a	FR1	1	R1135E
686.93	1.6	691598	WORD	n/a	wordpools/wordpool_EN.txt	MOTH	1	6	[0, 0, 0]	n/a	FR1	1	R1135E
689.546	1.6	694214	WORD	n/a	wordpools/wordpool_EN.txt	SHIELD	2	6	[0, 0, 0]	n/a	FR1	1	R1135E
692.114	1.6	696782	WORD	n/a	wordpools/wordpool_EN.txt	FUDGE	3	6	[0, 0, 0]	n/a	FR1	1	R1135E
694.615	1.6	699283	WORD	n/a	wordpools/wordpool_EN.txt	POND	4	6	[0, 0, 0]	n/a	FR1	1	R1135E
697.197	1.6	701865	WORD	n/a	wordpools/wordpool_EN.txt	SAIL	5	6	[0, 0, 0]	n/a	FR1	1	R1135E
699.732	1.6	704400	WORD	n/a	wordpools/wordpool_EN.txt	BEE	6	6	[0, 0, 0]	n/a	FR1	1	R1135E
702.182	1.6	706849	WORD	n/a	wordpools/wordpool_EN.txt	ROOT	7	6	[0, 0, 0]	n/a	FR1	1	R1135E
704.7	1.6	709367	WORD	n/a	wordpools/wordpool_EN.txt	BOAT	8	6	[0, 0, 0]	n/a	FR1	1	R1135E
707.299	1.6	711966	WORD	n/a	wordpools/wordpool_EN.txt	ANT	9	6	[0, 0, 0]	n/a	FR1	1	R1135E
709.85	1.6	714517	WORD	n/a	wordpools/wordpool_EN.txt	WAVE	10	6	[0, 0, 0]	n/a	FR1	1	R1135E
712.267	1.6	716934	WORD	n/a	wordpools/wordpool_EN.txt	SPONGE	11	6	[0, 0, 0]	n/a	FR1	1	R1135E
714.701	1.6	719368	WORD	n/a	wordpools/wordpool_EN.txt	BRANCH	12	6	[0, 0, 0]	n/a	FR1	1	R1135E
716.317	0.001	720983	DISTRACT_START	n/a	n/a	n/a	-999	6	[0, 0, 0]	n/a	FR1	1	R1135E
716.318	0.016	720984	START	n/a	n/a	n/a	-999	6	[-999, -999, -999]	n/a	FR1	1	R1135E
716.334	19.704	721000	PROB	19.671	n/a	n/a	-999	6	[9, 7, 9]	25.0	FR1	1	R1135E
736.038	8.16	740703	PROB	8.16	n/a	n/a	-999	6	[2, 9, 1]	12.0	FR1	1	R1135E
744.198	0.008	748863	STOP	n/a	n/a	n/a	-999	6	[-999, -999, -999]	n/a	FR1	1	R1135E
744.206	1.167	748871	DISTRACT_END	n/a	n/a	n/a	-999	6	[0, 0, 0]	n/a	FR1	1	R1135E
745.373	4.267	750037	REC_START	n/a	n/a	n/a	-999	6	[0, 0, 0]	n/a	FR1	1	R1135E
749.64	4.909	754304	REC_WORD_VV	4.267	n/a	<>	-999	6	[0, 0, 0]	n/a	FR1	1	R1135E
754.549	6.648	759213	REC_WORD	9.176	n/a	SHIELD	2	6	[0, 0, 0]	n/a	FR1	1	R1135E
761.197	12.366	765860	REC_WORD	15.824	n/a	TEA	-999	6	[0, 0, 0]	n/a	FR1	1	R1135E
773.563	1.818	778226	REC_WORD	28.19	n/a	POND	4	6	[0, 0, 0]	n/a	FR1	1	R1135E
775.381	2.398	780043	REC_END	n/a	n/a	n/a	-999	6	[0, 0, 0]	n/a	FR1	1	R1135E
777.779	0.0	782441	TRIAL	n/a	n/a	n/a	-999	7	[0, 0, 0]	n/a	FR1	1	R1135E
777.779	10.0	782441	COUNTDOWN_START	n/a	n/a	n/a	-999	7	[0, 0, 0]	n/a	FR1	1	R1135E
788.207	0.006	792869	COUNTDOWN_END	n/a	n/a	n/a	-999	7	[0, 0, 0]	n/a	FR1	1	R1135E
788.213	1.6	792875	ORIENT	n/a	n/a	n/a	-999	7	[0, 0, 0]	n/a	FR1	1	R1135E
790.665	1.6	795326	WORD	n/a	wordpools/wordpool_EN.txt	LIP	1	7	[0, 0, 0]	n/a	FR1	1	R1135E
793.197	1.6	797858	WORD	n/a	wordpools/wordpool_EN.txt	DOG	2	7	[0, 0, 0]	n/a	FR1	1	R1135E
795.632	1.6	800293	WORD	n/a	wordpools/wordpool_EN.txt	FUR	3	7	[0, 0, 0]	n/a	FR1	1	R1135E
798.116	1.6	802777	WORD	n/a	wordpools/wordpool_EN.txt	PET	4	7	[0, 0, 0]	n/a	FR1	1	R1135E
800.499	1.6	805160	WORD	n/a	wordpools/wordpool_EN.txt	GEESE	5	7	[0, 0, 0]	n/a	FR1	1	R1135E
803.05	1.6	807711	WORD	n/a	wordpools/wordpool_EN.txt	RAT	6	7	[0, 0, 0]	n/a	FR1	1	R1135E
805.651	1.6	810311	WORD	n/a	wordpools/wordpool_EN.txt	MOUTH	7	7	[0, 0, 0]	n/a	FR1	1	R1135E
808.118	1.6	812778	WORD	n/a	wordpools/wordpool_EN.txt	CHEEK	8	7	[0, 0, 0]	n/a	FR1	1	R1135E
810.752	1.6	815412	WORD	n/a	wordpools/wordpool_EN.txt	GOLD	9	7	[0, 0, 0]	n/a	FR1	1	R1135E
813.301	1.6	817961	WORD	n/a	wordpools/wordpool_EN.txt	BENCH	10	7	[0, 0, 0]	n/a	FR1	1	R1135E
815.769	1.6	820429	WORD	n/a	wordpools/wordpool_EN.txt	SKUNK	11	7	[0, 0, 0]	n/a	FR1	1	R1135E
818.285	1.6	822945	WORD	n/a	wordpools/wordpool_EN.txt	RIB	12	7	[0, 0, 0]	n/a	FR1	1	R1135E
819.903	0.001	824562	DISTRACT_START	n/a	n/a	n/a	-999	7	[0, 0, 0]	n/a	FR1	1	R1135E
819.904	0.016	824563	START	n/a	n/a	n/a	-999	7	[-999, -999, -999]	n/a	FR1	1	R1135E
819.92	14.618	824579	PROB	14.591	n/a	n/a	-999	7	[6, 5, 5]	16.0	FR1	1	R1135E
834.538	13.376	839196	PROB	13.376	n/a	n/a	-999	7	[3, 4, 5]	12.0	FR1	1	R1135E
847.914	0.01	852572	STOP	n/a	n/a	n/a	-999	7	[-999, -999, -999]	n/a	FR1	1	R1135E
847.924	1.135	852582	DISTRACT_END	n/a	n/a	n/a	-999	7	[0, 0, 0]	n/a	FR1	1	R1135E
849.059	2.605	853716	REC_START	n/a	n/a	n/a	-999	7	[0, 0, 0]	n/a	FR1	1	R1135E
851.664	7.959	856321	REC_WORD	2.605	n/a	RIB	12	7	[0, 0, 0]	n/a	FR1	1	R1135E
859.623	12.24	864280	REC_WORD	10.564	n/a	CHEEK	8	7	[0, 0, 0]	n/a	FR1	1	R1135E
871.863	7.204	876519	REC_WORD_VV	22.804	n/a	<>	-999	7	[0, 0, 0]	n/a	FR1	1	R1135E
879.067	3.03	883722	REC_END	n/a	n/a	n/a	-999	7	[0, 0, 0]	n/a	FR1	1	R1135E
882.097	0.0	886752	TRIAL	n/a	n/a	n/a	-999	8	[0, 0, 0]	n/a	FR1	1	R1135E
882.097	10.0	886752	COUNTDOWN_START	n/a	n/a	n/a	-999	8	[0, 0, 0]	n/a	FR1	1	R1135E
892.525	0.007	897179	COUNTDOWN_END	n/a	n/a	n/a	-999	8	[0, 0, 0]	n/a	FR1	1	R1135E
892.532	1.6	897186	ORIENT	n/a	n/a	n/a	-999	8	[0, 0, 0]	n/a	FR1	1	R1135E
895.133	1.6	899787	WORD	n/a	wordpools/wordpool_EN.txt	MULE	1	8	[0, 0, 0]	n/a	FR1	1	R1135E
897.733	1.6	902387	WORD	n/a	wordpools/wordpool_EN.txt	SPEAR	2	8	[0, 0, 0]	n/a	FR1	1	R1135E
900.233	1.6	904887	WORD	n/a	wordpools/wordpool_EN.txt	LAMB	3	8	[0, 0, 0]	n/a	FR1	1	R1135E
902.851	1.6	907505	WORD	n/a	wordpools/wordpool_EN.txt	MOOSE	4	8	[0, 0, 0]	n/a	FR1	1	R1135E
905.417	1.6	910071	WORD	n/a	wordpools/wordpool_EN.txt	FLEA	5	8	[0, 0, 0]	n/a	FR1	1	R1135E
907.835	1.6	912488	WORD	n/a	wordpools/wordpool_EN.txt	GRASS	6	8	[0, 0, 0]	n/a	FR1	1	R1135E
910.284	1.6	914937	WORD	n/a	wordpools/wordpool_EN.txt	HORSE	7	8	[0, 0, 0]	n/a	FR1	1	R1135E
912.653	1.6	917306	WORD	n/a	wordpools/wordpool_EN.txt	SOUP	8	8	[0, 0, 0]	n/a	FR1	1	R1135E
915.12	1.6	919773	WORD	n/a	wordpools/wordpool_EN.txt	STEAM	9	8	[0, 0, 0]	n/a	FR1	1	R1135E
917.553	1.6	922206	WORD	n/a	wordpools/wordpool_EN.txt	VINE	10	8	[0, 0, 0]	n/a	FR1	1	R1135E
920.087	1.6	924740	WORD	n/a	wordpools/wordpool_EN.txt	PRINCE	11	8	[0, 0, 0]	n/a	FR1	1	R1135E
922.57	1.6	927222	WORD	n/a	wordpools/wordpool_EN.txt	SPARK	12	8	[0, 0, 0]	n/a	FR1	1	R1135E
924.171	0.001	928823	DISTRACT_START	n/a	n/a	n/a	-999	8	[0, 0, 0]	n/a	FR1	1	R1135E
924.172	0.016	928824	START	n/a	n/a	n/a	-999	8	[-999, -999, -999]	n/a	FR1	1	R1135E
924.188	17.335	928840	PROB	17.313	n/a	n/a	-999	8	[8, 6, 9]	23.0	FR1	1	R1135E
941.523	19.046	946174	PROB	19.046	n/a	n/a	-999	8	[3, 7, 5]	17.0	FR1	1	R1135E
960.569	0.008	965219	STOP	n/a	n/a	n/a	-999	8	[-999, -999, -999]	n/a	FR1	1	R1135E
960.577	1.134	965227	DISTRACT_END	n/a	n/a	n/a	-999	8	[0, 0, 0]	n/a	FR1	1	R1135E
961.711	6.011	966361	REC_START	n/a	n/a	n/a	-999	8	[0, 0, 0]	n/a	FR1	1	R1135E
967.722	11.875	972371	REC_WORD	6.011	n/a	CHEEK	-999	8	[0, 0, 0]	n/a	FR1	1	R1135E
979.597	12.127	984246	REC_WORD_VV	17.886	n/a	<>	-999	8	[0, 0, 0]	n/a	FR1	1	R1135E
991.724	2.91	996372	REC_END	n/a	n/a	n/a	-999	8	[0, 0, 0]	n/a	FR1	1	R1135E
994.634	0.0	999282	TRIAL	n/a	n/a	n/a	-999	9	[0, 0, 0]	n/a	FR1	1	R1135E
994.634	10.0	999282	COUNTDOWN_START	n/a	n/a	n/a	-999	9	[0, 0, 0]	n/a	FR1	1	R1135E
1005.062	0.007	1009709	COUNTDOWN_END	n/a	n/a	n/a	-999	9	[0, 0, 0]	n/a	FR1	1	R1135E
1005.069	1.6	1009716	ORIENT	n/a	n/a	n/a	-999	9	[0, 0, 0]	n/a	FR1	1	R1135E
1007.468	1.6	1012115	WORD	n/a	wordpools/wordpool_EN.txt	DRESS	1	9	[0, 0, 0]	n/a	FR1	1	R1135E
1009.886	1.6	1014533	WORD	n/a	wordpools/wordpool_EN.txt	TOOTH	2	9	[0, 0, 0]	n/a	FR1	1	R1135E
1012.469	1.6	1017115	WORD	n/a	wordpools/wordpool_EN.txt	HOLE	3	9	[0, 0, 0]	n/a	FR1	1	R1135E
1014.854	1.6	1019500	WORD	n/a	wordpools/wordpool_EN.txt	PASTE	4	9	[0, 0, 0]	n/a	FR1	1	R1135E
1017.42	1.6	1022066	WORD	n/a	wordpools/wordpool_EN.txt	DESK	5	9	[0, 0, 0]	n/a	FR1	1	R1135E
1019.805	1.6	1024451	WORD	n/a	wordpools/wordpool_EN.txt	PEAR	6	9	[0, 0, 0]	n/a	FR1	1	R1135E
1022.189	1.6	1026835	WORD	n/a	wordpools/wordpool_EN.txt	SMILE	7	9	[0, 0, 0]	n/a	FR1	1	R1135E
1024.571	1.6	1029217	WORD	n/a	wordpools/wordpool_EN.txt	BEAK	8	9	[0, 0, 0]	n/a	FR1	1	R1135E
1027.173	1.6	1031818	WORD	n/a	wordpools/wordpool_EN.txt	SHOE	9	9	[0, 0, 0]	n/a	FR1	1	R1135E
1029.723	1.6	1034368	WORD	n/a	wordpools/wordpool_EN.txt	PEN	10	9	[0, 0, 0]	n/a	FR1	1	R1135E
1032.239	1.6	1036884	WORD	n/a	wordpools/wordpool_EN.txt	PALM	11	9	[0, 0, 0]	n/a	FR1	1	R1135E
1034.741	1.6	1039386	WORD	n/a	wordpools/wordpool_EN.txt	FORK	12	9	[0, 0, 0]	n/a	FR1	1	R1135E
1036.357	0.0	1041002	DISTRACT_START	n/a	n/a	n/a	-999	9	[0, 0, 0]	n/a	FR1	1	R1135E
1036.357	0.016	1041002	START	n/a	n/a	n/a	-999	9	[-999, -999, -999]	n/a	FR1	1	R1135E
1036.373	13.053	1041018	PROB	13.023	n/a	n/a	-999	9	[3, 6, 4]	13.0	FR1	1	R1135E
1049.426	17.852	1054070	PROB	17.852	n/a	n/a	-999	9	[3, 9, 3]	15.0	FR1	1	R1135E
1067.278	0.017	1071921	STOP	n/a	n/a	n/a	-999	9	[-999, -999, -999]	n/a	FR1	1	R1135E
1067.295	1.101	1071938	DISTRACT_END	n/a	n/a	n/a	-999	9	[0, 0, 0]	n/a	FR1	1	R1135E
1068.396	3.07	1073039	REC_START	n/a	n/a	n/a	-999	9	[0, 0, 0]	n/a	FR1	1	R1135E
1071.466	1.15	1076108	REC_WORD	3.07	n/a	PALM	11	9	[0, 0, 0]	n/a	FR1	1	R1135E
1072.616	4.283	1077258	REC_WORD	4.22	n/a	PEN	10	9	[0, 0, 0]	n/a	FR1	1	R1135E
1076.899	2.974	1081541	REC_WORD_VV	8.503	n/a	<>	-999	9	[0, 0, 0]	n/a	FR1	1	R1135E
1079.873	4.277	1084515	REC_WORD	11.477	n/a	CHEEK	-999	9	[0, 0, 0]	n/a	FR1	1	R1135E
1084.15	14.259	1088792	REC_WORD	15.754	n/a	PEN	10	9	[0, 0, 0]	n/a	FR1	1	R1135E
1098.409	2.576	1103050	REC_END	n/a	n/a	n/a	-999	9	[0, 0, 0]	n/a	FR1	1	R1135E
1100.985	10.0	1105625	COUNTDOWN_START	n/a	n/a	n/a	-999	10	[0, 0, 0]	n/a	FR1	1	R1135E
1100.986	10.427	1105626	TRIAL	n/a	n/a	n/a	-999	10	[0, 0, 0]	n/a	FR1	1	R1135E
1111.413	0.007	1116053	COUNTDOWN_END	n/a	n/a	n/a	-999	10	[0, 0, 0]	n/a	FR1	1	R1135E
1111.42	1.6	1116060	ORIENT	n/a	n/a	n/a	-999	10	[0, 0, 0]	n/a	FR1	1	R1135E
1113.821	1.6	1118460	WORD	n/a	wordpools/wordpool_EN.txt	BAND	1	10	[0, 0, 0]	n/a	FR1	1	R1135E
1116.254	1.6	1120893	WORD	n/a	wordpools/wordpool_EN.txt	TRAIN	2	10	[0, 0, 0]	n/a	FR1	1	R1135E
1118.705	1.6	1123344	WORD	n/a	wordpools/wordpool_EN.txt	VAN	3	10	[0, 0, 0]	n/a	FR1	1	R1135E
1121.288	1.6	1125927	WORD	n/a	wordpools/wordpool_EN.txt	FLUTE	4	10	[0, 0, 0]	n/a	FR1	1	R1135E
1123.69	1.6	1128329	WORD	n/a	wordpools/wordpool_EN.txt	HAT	5	10	[0, 0, 0]	n/a	FR1	1	R1135E
1126.157	1.6	1130796	WORD	n/a	wordpools/wordpool_EN.txt	DRUM	6	10	[0, 0, 0]	n/a	FR1	1	R1135E
1128.556	1.6	1133194	WORD	n/a	wordpools/wordpool_EN.txt	CART	7	10	[0, 0, 0]	n/a	FR1	1	R1135E
1131.091	1.6	1135729	WORD	n/a	wordpools/wordpool_EN.txt	STICK	8	10	[0, 0, 0]	n/a	FR1	1	R1135E
1133.49	1.6	1138128	WORD	n/a	wordpools/wordpool_EN.txt	SOCK	9	10	[0, 0, 0]	n/a	FR1	1	R1135E
1136.008	1.6	1140646	WORD	n/a	wordpools/wordpool_EN.txt	DIME	10	10	[0, 0, 0]	n/a	FR1	1	R1135E
1138.508	1.6	1143146	WORD	n/a	wordpools/wordpool_EN.txt	FACE	11	10	[0, 0, 0]	n/a	FR1	1	R1135E
1141.026	1.6	1145664	WORD	n/a	wordpools/wordpool_EN.txt	SKI	12	10	[0, 0, 0]	n/a	FR1	1	R1135E
1142.643	0.001	1147281	DISTRACT_START	n/a	n/a	n/a	-999	10	[0, 0, 0]	n/a	FR1	1	R1135E
1142.644	0.016	1147282	START	n/a	n/a	n/a	-999	10	[-999, -999, -999]	n/a	FR1	1	R1135E
1142.66	10.734	1147298	PROB	10.71	n/a	n/a	-999	10	[2, 2, 9]	13.0	FR1	1	R1135E
1153.394	7.901	1158031	PROB	7.873	n/a	n/a	-999	10	[3, 1, 5]	9.0	FR1	1	R1135E
1161.295	19.089	1165931	PROB	19.089	n/a	n/a	-999	10	[8, 5, 7]	20.0	FR1	1	R1135E
1180.384	0.015	1185019	STOP	n/a	n/a	n/a	-999	10	[-999, -999, -999]	n/a	FR1	1	R1135E
1180.399	1.034	1185034	DISTRACT_END	n/a	n/a	n/a	-999	10	[0, 0, 0]	n/a	FR1	1	R1135E
1181.433	4.963	1186068	REC_START	n/a	n/a	n/a	-999	10	[0, 0, 0]	n/a	FR1	1	R1135E
1186.396	25.045	1191031	REC_WORD_VV	4.963	n/a	<>	-999	10	[0, 0, 0]	n/a	FR1	1	R1135E
1211.441	3.748	1216074	REC_END	n/a	n/a	n/a	-999	10	[0, 0, 0]	n/a	FR1	1	R1135E
1215.189	0.0	1219822	TRIAL	n/a	n/a	n/a	-999	11	[0, 0, 0]	n/a	FR1	1	R1135E
1215.189	10.0	1219822	COUNTDOWN_START	n/a	n/a	n/a	-999	11	[0, 0, 0]	n/a	FR1	1	R1135E
1225.617	0.007	1230249	COUNTDOWN_END	n/a	n/a	n/a	-999	11	[0, 0, 0]	n/a	FR1	1	R1135E
1225.624	1.6	1230256	ORIENT	n/a	n/a	n/a	-999	11	[0, 0, 0]	n/a	FR1	1	R1135E
1228.224	1.6	1232856	WORD	n/a	wordpools/wordpool_EN.txt	KEY	1	11	[0, 0, 0]	n/a	FR1	1	R1135E
1230.858	1.6	1235490	WORD	n/a	wordpools/wordpool_EN.txt	SCHOOL	2	11	[0, 0, 0]	n/a	FR1	1	R1135E
1233.458	1.6	1238089	WORD	n/a	wordpools/wordpool_EN.txt	PIE	3	11	[0, 0, 0]	n/a	FR1	1	R1135E
1235.893	1.6	1240524	WORD	n/a	wordpools/wordpool_EN.txt	VASE	4	11	[0, 0, 0]	n/a	FR1	1	R1135E
1238.442	1.6	1243073	WORD	n/a	wordpools/wordpool_EN.txt	STRAW	5	11	[0, 0, 0]	n/a	FR1	1	R1135E
1241.01	1.6	1245641	WORD	n/a	wordpools/wordpool_EN.txt	CHIEF	6	11	[0, 0, 0]	n/a	FR1	1	R1135E
1243.41	1.6	1248041	WORD	n/a	wordpools/wordpool_EN.txt	BOY	7	11	[0, 0, 0]	n/a	FR1	1	R1135E
1246.011	1.6	1250642	WORD	n/a	wordpools/wordpool_EN.txt	BAT	8	11	[0, 0, 0]	n/a	FR1	1	R1135E
1248.494	1.6	1253124	WORD	n/a	wordpools/wordpool_EN.txt	PHONE	9	11	[0, 0, 0]	n/a	FR1	1	R1135E
1250.979	1.6	1255609	WORD	n/a	wordpools/wordpool_EN.txt	NOSE	10	11	[0, 0, 0]	n/a	FR1	1	R1135E
1253.478	1.6	1258108	WORD	n/a	wordpools/wordpool_EN.txt	HOOF	11	11	[0, 0, 0]	n/a	FR1	1	R1135E
1256.079	1.6	1260709	WORD	n/a	wordpools/wordpool_EN.txt	COIN	12	11	[0, 0, 0]	n/a	FR1	1	R1135E
1257.696	0.001	1262326	DISTRACT_START	n/a	n/a	n/a	-999	11	[0, 0, 0]	n/a	FR1	1	R1135E
1257.697	0.016	1262327	START	n/a	n/a	n/a	-999	11	[-999, -999, -999]	n/a	FR1	1	R1135E
1257.713	15.469	1262343	PROB	15.437	n/a	n/a	-999	11	[1, 8, 6]	15.0	FR1	1	R1135E
1273.182	18.56	1277811	PROB	18.56	n/a	n/a	-999	11	[4, 8, 6]	17.0	FR1	1	R1135E
1291.742	0.01	1296369	STOP	n/a	n/a	n/a	-999	11	[-999, -999, -999]	n/a	FR1	1	R1135E
1291.752	1.034	1296379	DISTRACT_END	n/a	n/a	n/a	-999	11	[0, 0, 0]	n/a	FR1	1	R1135E
1292.786	4.454	1297413	REC_START	n/a	n/a	n/a	-999	11	[0, 0, 0]	n/a	FR1	1	R1135E
1297.24	25.56	1301867	REC_WORD	4.454	n/a	HOOF	11	11	[0, 0, 0]	n/a	FR1	1	R1135E
1322.8	34.746	1327425	REC_END	n/a	n/a	n/a	-999	11	[0, 0, 0]	n/a	FR1	1	R1135E
1357.546	0.0	1362169	TRIAL	n/a	n/a	n/a	-999	12	[0, 0, 0]	n/a	FR1	1	R1135E
1357.546	10.0	1362169	COUNTDOWN_START	n/a	n/a	n/a	-999	12	[0, 0, 0]	n/a	FR1	1	R1135E
1367.974	0.008	1372596	COUNTDOWN_END	n/a	n/a	n/a	-999	12	[0, 0, 0]	n/a	FR1	1	R1135E
1367.982	1.6	1372604	ORIENT	n/a	n/a	n/a	-999	12	[0, 0, 0]	n/a	FR1	1	R1135E
1370.432	1.6	1375054	WORD	n/a	wordpools/wordpool_EN.txt	FAN	1	12	[0, 0, 0]	n/a	FR1	1	R1135E
1372.85	1.6	1377472	WORD	n/a	wordpools/wordpool_EN.txt	SIGN	2	12	[0, 0, 0]	n/a	FR1	1	R1135E
1375.283	1.6	1379905	WORD	n/a	wordpools/wordpool_EN.txt	FLAG	3	12	[0, 0, 0]	n/a	FR1	1	R1135E
1377.817	1.6	1382439	WORD	n/a	wordpools/wordpool_EN.txt	CROWN	4	12	[0, 0, 0]	n/a	FR1	1	R1135E
1380.334	1.6	1384955	WORD	n/a	wordpools/wordpool_EN.txt	POLE	5	12	[0, 0, 0]	n/a	FR1	1	R1135E
1382.868	1.6	1387489	WORD	n/a	wordpools/wordpool_EN.txt	NAIL	6	12	[0, 0, 0]	n/a	FR1	1	R1135E
1385.384	1.6	1390005	WORD	n/a	wordpools/wordpool_EN.txt	VEST	7	12	[0, 0, 0]	n/a	FR1	1	R1135E
1387.869	1.6	1392490	WORD	n/a	wordpools/wordpool_EN.txt	PURSE	8	12	[0, 0, 0]	n/a	FR1	1	R1135E
1390.302	1.6	1394923	WORD	n/a	wordpools/wordpool_EN.txt	PIN	9	12	[0, 0, 0]	n/a	FR1	1	R1135E
1392.903	1.6	1397524	WORD	n/a	wordpools/wordpool_EN.txt	ROSE	10	12	[0, 0, 0]	n/a	FR1	1	R1135E
1395.519	1.6	1400139	WORD	n/a	wordpools/wordpool_EN.txt	TANK	11	12	[0, 0, 0]	n/a	FR1	1	R1135E
1398.121	1.6	1402741	WORD	n/a	wordpools/wordpool_EN.txt	PEA	12	12	[0, 0, 0]	n/a	FR1	1	R1135E
1399.738	0.001	1404358	DISTRACT_START	n/a	n/a	n/a	-999	12	[0, 0, 0]	n/a	FR1	1	R1135E
1399.739	0.016	1404359	START	n/a	n/a	n/a	-999	12	[-999, -999, -999]	n/a	FR1	1	R1135E
1399.755	14.601	1404375	PROB	14.575	n/a	n/a	-999	12	[5, 9, 2]	16.0	FR1	1	R1135E
1414.356	14.928	1418975	PROB	14.928	n/a	n/a	-999	12	[9, 4, 8]	21.0	FR1	1	R1135E
1429.284	0.008	1433902	STOP	n/a	n/a	n/a	-999	12	[-999, -999, -999]	n/a	FR1	1	R1135E
1429.292	1.17	1433910	DISTRACT_END	n/a	n/a	n/a	-999	12	[0, 0, 0]	n/a	FR1	1	R1135E
1430.462	3.571	1435080	REC_START	n/a	n/a	n/a	-999	12	[0, 0, 0]	n/a	FR1	1	R1135E
1434.033	2.698	1438651	REC_WORD	3.571	n/a	FLAG	3	12	[0, 0, 0]	n/a	FR1	1	R1135E
1436.731	2.475	1441349	REC_WORD	6.269	n/a	CROWN	4	12	[0, 0, 0]	n/a	FR1	1	R1135E
1439.206	3.296	1443823	REC_WORD	8.744	n/a	PEA	12	12	[0, 0, 0]	n/a	FR1	1	R1135E
1442.502	6.247	1447119	REC_WORD_VV	12.04	n/a	<>	-999	12	[0, 0, 0]	n/a	FR1	1	R1135E
1448.749	1.133	1453366	REC_WORD_VV	18.287	n/a	<>	-999	12	[0, 0, 0]	n/a	FR1	1	R1135E
1449.882	10.587	1454499	REC_WORD	19.42	n/a	POLE	5	12	[0, 0, 0]	n/a	FR1	1	R1135E
1460.469	2.896	1465085	REC_END	n/a	n/a	n/a	-999	12	[0, 0, 0]	n/a	FR1	1	R1135E
1463.365	10.0	1467981	COUNTDOWN_START	n/a	n/a	n/a	-999	13	[0, 0, 0]	n/a	FR1	1	R1135E
1463.365	10.428	1467981	TRIAL	n/a	n/a	n/a	-999	13	[0, 0, 0]	n/a	FR1	1	R1135E
1473.793	0.008	1478408	COUNTDOWN_END	n/a	n/a	n/a	-999	13	[0, 0, 0]	n/a	FR1	1	R1135E
1473.801	1.6	1478416	ORIENT	n/a	n/a	n/a	-999	13	[0, 0, 0]	n/a	FR1	1	R1135E
1476.267	1.6	1480882	WORD	n/a	wordpools/wordpool_EN.txt	HAND	1	13	[0, 0, 0]	n/a	FR1	1	R1135E
1478.868	1.6	1483483	WORD	n/a	wordpools/wordpool_EN.txt	ROOF	2	13	[0, 0, 0]	n/a	FR1	1	R1135E
1481.285	1.6	1485900	WORD	n/a	wordpools/wordpool_EN.txt	GLASS	3	13	[0, 0, 0]	n/a	FR1	1	R1135E
1483.836	1.6	1488450	WORD	n/a	wordpools/wordpool_EN.txt	PIPE	4	13	[0, 0, 0]	n/a	FR1	1	R1135E
1486.269	1.6	1490883	WORD	n/a	wordpools/wordpool_EN.txt	BROOM	5	13	[0, 0, 0]	n/a	FR1	1	R1135E
1488.837	1.6	1493451	WORD	n/a	wordpools/wordpool_EN.txt	ROPE	6	13	[0, 0, 0]	n/a	FR1	1	R1135E
1491.453	1.6	1496067	WORD	n/a	wordpools/wordpool_EN.txt	ELF	7	13	[0, 0, 0]	n/a	FR1	1	R1135E
1493.887	1.6	1498501	WORD	n/a	wordpools/wordpool_EN.txt	MAT	8	13	[0, 0, 0]	n/a	FR1	1	R1135E
1496.387	1.6	1501001	WORD	n/a	wordpools/wordpool_EN.txt	TRAY	9	13	[0, 0, 0]	n/a	FR1	1	R1135E
1498.955	1.6	1503568	WORD	n/a	wordpools/wordpool_EN.txt	ROOM	10	13	[0, 0, 0]	n/a	FR1	1	R1135E
1501.488	1.6	1506101	WORD	n/a	wordpools/wordpool_EN.txt	STORM	11	13	[0, 0, 0]	n/a	FR1	1	R1135E
1504.006	1.6	1508619	WORD	n/a	wordpools/wordpool_EN.txt	WALL	12	13	[0, 0, 0]	n/a	FR1	1	R1135E
1505.623	0.001	1510236	DISTRACT_START	n/a	n/a	n/a	-999	13	[0, 0, 0]	n/a	FR1	1	R1135E
1505.624	0.016	1510237	START	n/a	n/a	n/a	-999	13	[-999, -999, -999]	n/a	FR1	1	R1135E
1505.64	12.035	1510253	PROB	12.013	n/a	n/a	-999	13	[8, 8, 4]	20.0	FR1	1	R1135E
1517.675	18.376	1522287	PROB	18.376	n/a	n/a	-999	13	[8, 9, 5]	22.0	FR1	1	R1135E
1536.051	0.011	1540662	STOP	n/a	n/a	n/a	-999	13	[-999, -999, -999]	n/a	FR1	1	R1135E
1536.062	1.067	1540673	DISTRACT_END	n/a	n/a	n/a	-999	13	[0, 0, 0]	n/a	FR1	1	R1135E
1537.129	2.482	1541740	REC_START	n/a	n/a	n/a	-999	13	[0, 0, 0]	n/a	FR1	1	R1135E
1539.611	4.685	1544222	REC_WORD	2.482	n/a	STORM	11	13	[0, 0, 0]	n/a	FR1	1	R1135E
1544.296	22.846	1548906	REC_WORD_VV	7.167	n/a	<>	-999	13	[0, 0, 0]	n/a	FR1	1	R1135E
1567.142	3.192	1571751	REC_END	n/a	n/a	n/a	-999	13	[0, 0, 0]	n/a	FR1	1	R1135E
1570.334	0.0	1574943	TRIAL	n/a	n/a	n/a	-999	14	[0, 0, 0]	n/a	FR1	1	R1135E
1570.334	10.0	1574943	COUNTDOWN_START	n/a	n/a	n/a	-999	14	[0, 0, 0]	n/a	FR1	1	R1135E
1580.762	0.008	1585370	COUNTDOWN_END	n/a	n/a	n/a	-999	14	[0, 0, 0]	n/a	FR1	1	R1135E
1580.77	1.6	1585378	ORIENT	n/a	n/a	n/a	-999	14	[0, 0, 0]	n/a	FR1	1	R1135E
1583.352	1.6	1587960	WORD	n/a	wordpools/wordpool_EN.txt	BOWL	1	14	[0, 0, 0]	n/a	FR1	1	R1135E
1585.904	1.6	1590512	WORD	n/a	wordpools/wordpool_EN.txt	STEAK	2	14	[0, 0, 0]	n/a	FR1	1	R1135E
1588.42	1.6	1593027	WORD	n/a	wordpools/wordpool_EN.txt	CLOWN	3	14	[0, 0, 0]	n/a	FR1	1	R1135E
1590.805	1.6	1595412	WORD	n/a	wordpools/wordpool_EN.txt	EGG	4	14	[0, 0, 0]	n/a	FR1	1	R1135E
1593.304	1.6	1597911	WORD	n/a	wordpools/wordpool_EN.txt	BEAR	5	14	[0, 0, 0]	n/a	FR1	1	R1135E
1595.889	1.6	1600496	WORD	n/a	wordpools/wordpool_EN.txt	SLEEVE	6	14	[0, 0, 0]	n/a	FR1	1	R1135E
1598.422	1.6	1603029	WORD	n/a	wordpools/wordpool_EN.txt	CAKE	7	14	[0, 0, 0]	n/a	FR1	1	R1135E
1600.84	1.6	1605447	WORD	n/a	wordpools/wordpool_EN.txt	LEG	8	14	[0, 0, 0]	n/a	FR1	1	R1135E
1603.389	1.6	1607995	WORD	n/a	wordpools/wordpool_EN.txt	DOLL	9	14	[0, 0, 0]	n/a	FR1	1	R1135E
1605.757	1.6	1610363	WORD	n/a	wordpools/wordpool_EN.txt	ZOO	10	14	[0, 0, 0]	n/a	FR1	1	R1135E
1608.158	1.6	1612764	WORD	n/a	wordpools/wordpool_EN.txt	WHALE	11	14	[0, 0, 0]	n/a	FR1	1	R1135E
1610.625	1.6	1615231	WORD	n/a	wordpools/wordpool_EN.txt	PIT	12	14	[0, 0, 0]	n/a	FR1	1	R1135E
1612.241	0.001	1616847	DISTRACT_START	n/a	n/a	n/a	-999	14	[0, 0, 0]	n/a	FR1	1	R1135E
1612.242	0.016	1616848	START	n/a	n/a	n/a	-999	14	[-999, -999, -999]	n/a	FR1	1	R1135E
1612.258	14.886	1616864	PROB	14.851	n/a	n/a	-999	14	[3, 7, 3]	13.0	FR1	1	R1135E
1627.144	16.163	1631749	PROB	16.163	n/a	n/a	-999	14	[6, 6, 7]	19.0	FR1	1	R1135E
1643.307	0.006	1647911	STOP	n/a	n/a	n/a	-999	14	[-999, -999, -999]	n/a	FR1	1	R1135E
1643.313	1.184	1647917	DISTRACT_END	n/a	n/a	n/a	-999	14	[0, 0, 0]	n/a	FR1	1	R1135E
1644.497	3.222	1649101	REC_START	n/a	n/a	n/a	-999	14	[0, 0, 0]	n/a	FR1	1	R1135E
1647.719	4.227	1652322	REC_WORD	3.222	n/a	ZOO	10	14	[0, 0, 0]	n/a	FR1	1	R1135E
1651.946	22.562	1656549	REC_WORD	7.449	n/a	WHALE	11	14	[0, 0, 0]	n/a	FR1	1	R1135E
1674.508	3.078	1679110	REC_END	n/a	n/a	n/a	-999	14	[0, 0, 0]	n/a	FR1	1	R1135E
1677.586	0.0	1682187	TRIAL	n/a	n/a	n/a	-999	15	[0, 0, 0]	n/a	FR1	1	R1135E
1677.586	10.0	1682187	COUNTDOWN_START	n/a	n/a	n/a	-999	15	[0, 0, 0]	n/a	FR1	1	R1135E
1688.014	0.008	1692615	COUNTDOWN_END	n/a	n/a	n/a	-999	15	[0, 0, 0]	n/a	FR1	1	R1135E
1688.022	1.6	1692623	ORIENT	n/a	n/a	n/a	-999	15	[0, 0, 0]	n/a	FR1	1	R1135E
1690.555	1.6	1695155	WORD	n/a	wordpools/wordpool_EN.txt	BEAN	1	15	[0, 0, 0]	n/a	FR1	1	R1135E
1693.039	1.6	1697639	WORD	n/a	wordpools/wordpool_EN.txt	CRANE	2	15	[0, 0, 0]	n/a	FR1	1	R1135E
1695.556	1.6	1700156	WORD	n/a	wordpools/wordpool_EN.txt	GOAT	3	15	[0, 0, 0]	n/a	FR1	1	R1135E
1697.99	1.6	1702590	WORD	n/a	wordpools/wordpool_EN.txt	TOY	4	15	[0, 0, 0]	n/a	FR1	1	R1135E
1700.606	1.6	1705206	WORD	n/a	wordpools/wordpool_EN.txt	TOAD	5	15	[0, 0, 0]	n/a	FR1	1	R1135E
1703.008	1.6	1707608	WORD	n/a	wordpools/wordpool_EN.txt	TOAST	6	15	[0, 0, 0]	n/a	FR1	1	R1135E
1705.524	1.6	1710123	WORD	n/a	wordpools/wordpool_EN.txt	JAR	7	15	[0, 0, 0]	n/a	FR1	1	R1135E
1708.075	1.6	1712674	WORD	n/a	wordpools/wordpool_EN.txt	BRIDGE	8	15	[0, 0, 0]	n/a	FR1	1	R1135E
1710.475	1.6	1715074	WORD	n/a	wordpools/wordpool_EN.txt	BIRD	9	15	[0, 0, 0]	n/a	FR1	1	R1135E
1712.993	1.6	1717592	WORD	n/a	wordpools/wordpool_EN.txt	DUCK	10	15	[0, 0, 0]	n/a	FR1	1	R1135E
1715.542	1.6	1720141	WORD	n/a	wordpools/wordpool_EN.txt	COW	11	15	[0, 0, 0]	n/a	FR1	1	R1135E
1718.094	1.6	1722693	WORD	n/a	wordpools/wordpool_EN.txt	WORM	12	15	[0, 0, 0]	n/a	FR1	1	R1135E
1719.711	0.0	1724309	DISTRACT_START	n/a	n/a	n/a	-999	15	[0, 0, 0]	n/a	FR1	1	R1135E
1719.711	0.016	1724309	START	n/a	n/a	n/a	-999	15	[-999, -999, -999]	n/a	FR1	1	R1135E
1719.727	13.852	1724325	PROB	13.819	n/a	n/a	-999	15	[1, 7, 5]	13.0	FR1	1	R1135E
1733.579	12.498	1738177	PROB	12.498	n/a	n/a	-999	15	[4, 8, 2]	14.0	FR1	1	R1135E
1746.077	0.005	1750674	STOP	n/a	n/a	n/a	-999	15	[-999, -999, -999]	n/a	FR1	1	R1135E
1746.082	1.2	1750679	DISTRACT_END	n/a	n/a	n/a	-999	15	[0, 0, 0]	n/a	FR1	1	R1135E
1747.282	3.676	1751879	REC_START	n/a	n/a	n/a	-999	15	[0, 0, 0]	n/a	FR1	1	R1135E
1750.958	1.967	1755554	REC_WORD	3.676	n/a	COW	11	15	[0, 0, 0]	n/a	FR1	1	R1135E
1752.925	24.365	1757521	REC_WORD	5.643	n/a	WORM	12	15	[0, 0, 0]	n/a	FR1	1	R1135E
1777.29	3.064	1781885	REC_END	n/a	n/a	n/a	-999	15	[0, 0, 0]	n/a	FR1	1	R1135E
1780.354	0.0	1784948	TRIAL	n/a	n/a	n/a	-999	16	[0, 0, 0]	n/a	FR1	1	R1135E
1780.354	10.0	1784948	COUNTDOWN_START	n/a	n/a	n/a	-999	16	[0, 0, 0]	n/a	FR1	1	R1135E
1790.782	0.008	1795376	COUNTDOWN_END	n/a	n/a	n/a	-999	16	[0, 0, 0]	n/a	FR1	1	R1135E
1790.79	1.6	1795384	ORIENT	n/a	n/a	n/a	-999	16	[0, 0, 0]	n/a	FR1	1	R1135E
1793.356	1.6	1797949	WORD	n/a	wordpools/wordpool_EN.txt	TAIL	1	16	[0, 0, 0]	n/a	FR1	1	R1135E
1795.957	1.6	1800550	WORD	n/a	wordpools/wordpool_EN.txt	FOOD	2	16	[0, 0, 0]	n/a	FR1	1	R1135E
1798.357	1.6	1802950	WORD	n/a	wordpools/wordpool_EN.txt	DEER	3	16	[0, 0, 0]	n/a	FR1	1	R1135E
1800.842	1.6	1805435	WORD	n/a	wordpools/wordpool_EN.txt	ARK	4	16	[0, 0, 0]	n/a	FR1	1	R1135E
1803.291	1.6	1807884	WORD	n/a	wordpools/wordpool_EN.txt	TREE	5	16	[0, 0, 0]	n/a	FR1	1	R1135E
1805.826	1.6	1810419	WORD	n/a	wordpools/wordpool_EN.txt	CALF	6	16	[0, 0, 0]	n/a	FR1	1	R1135E
1808.209	1.6	1812801	WORD	n/a	wordpools/wordpool_EN.txt	WOOD	7	16	[0, 0, 0]	n/a	FR1	1	R1135E
1810.609	1.6	1815201	WORD	n/a	wordpools/wordpool_EN.txt	TIE	8	16	[0, 0, 0]	n/a	FR1	1	R1135E
1813.193	1.6	1817785	WORD	n/a	wordpools/wordpool_EN.txt	RAKE	9	16	[0, 0, 0]	n/a	FR1	1	R1135E
1815.744	1.6	1820336	WORD	n/a	wordpools/wordpool_EN.txt	PEACH	10	16	[0, 0, 0]	n/a	FR1	1	R1135E
1818.327	1.6	1822919	WORD	n/a	wordpools/wordpool_EN.txt	FENCE	11	16	[0, 0, 0]	n/a	FR1	1	R1135E
1820.795	1.6	1825387	WORD	n/a	wordpools/wordpool_EN.txt	WEB	12	16	[0, 0, 0]	n/a	FR1	1	R1135E
1822.411	0.001	1827003	DISTRACT_START	n/a	n/a	n/a	-999	16	[0, 0, 0]	n/a	FR1	1	R1135E
1822.412	0.016	1827004	START	n/a	n/a	n/a	-999	16	[-999, -999, -999]	n/a	FR1	1	R1135E
1822.428	9.369	1827019	PROB	9.336	n/a	n/a	-999	16	[5, 1, 5]	11.0	FR1	1	R1135E
1831.797	14.461	1836388	PROB	14.461	n/a	n/a	-999	16	[6, 4, 2]	12.0	FR1	1	R1135E
1846.258	0.007	1850848	STOP	n/a	n/a	n/a	-999	16	[-999, -999, -999]	n/a	FR1	1	R1135E
1846.265	1.218	1850855	DISTRACT_END	n/a	n/a	n/a	-999	16	[0, 0, 0]	n/a	FR1	1	R1135E
1847.483	12.391	1852073	REC_START	n/a	n/a	n/a	-999	16	[0, 0, 0]	n/a	FR1	1	R1135E
1859.874	11.618	1864463	REC_WORD	12.391	n/a	WOOD	7	16	[0, 0, 0]	n/a	FR1	1	R1135E
1871.492	6.0	1876080	REC_WORD_VV	24.009	n/a	<>	-999	16	[0, 0, 0]	n/a	FR1	1	R1135E
1877.492	3.113	1882080	REC_END	n/a	n/a	n/a	-999	16	[0, 0, 0]	n/a	FR1	1	R1135E
1880.605	0.0	1885193	TRIAL	n/a	n/a	n/a	-999	17	[0, 0, 0]	n/a	FR1	1	R1135E
1880.605	10.0	1885193	COUNTDOWN_START	n/a	n/a	n/a	-999	17	[0, 0, 0]	n/a	FR1	1	R1135E
1891.033	0.008	1895620	COUNTDOWN_END	n/a	n/a	n/a	-999	17	[0, 0, 0]	n/a	FR1	1	R1135E
1891.041	1.6	1895628	ORIENT	n/a	n/a	n/a	-999	17	[0, 0, 0]	n/a	FR1	1	R1135E
1893.607	1.6	1898194	WORD	n/a	wordpools/wordpool_EN.txt	RUG	1	17	[0, 0, 0]	n/a	FR1	1	R1135E
1896.008	1.6	1900595	WORD	n/a	wordpools/wordpool_EN.txt	BATH	2	17	[0, 0, 0]	n/a	FR1	1	R1135E
1898.625	1.6	1903211	WORD	n/a	wordpools/wordpool_EN.txt	THUMB	3	17	[0, 0, 0]	n/a	FR1	1	R1135E
1901.159	1.6	1905745	WORD	n/a	wordpools/wordpool_EN.txt	LAWN	4	17	[0, 0, 0]	n/a	FR1	1	R1135E
1903.559	1.6	1908145	WORD	n/a	wordpools/wordpool_EN.txt	MUD	5	17	[0, 0, 0]	n/a	FR1	1	R1135E
1906.143	1.6	1910729	WORD	n/a	wordpools/wordpool_EN.txt	DOOR	6	17	[0, 0, 0]	n/a	FR1	1	R1135E
1908.543	1.6	1913129	WORD	n/a	wordpools/wordpool_EN.txt	ROAD	7	17	[0, 0, 0]	n/a	FR1	1	R1135E
1910.928	1.6	1915514	WORD	n/a	wordpools/wordpool_EN.txt	FOOT	8	17	[0, 0, 0]	n/a	FR1	1	R1135E
1913.344	1.6	1917929	WORD	n/a	wordpools/wordpool_EN.txt	HORN	9	17	[0, 0, 0]	n/a	FR1	1	R1135E
1915.878	1.6	1920463	WORD	n/a	wordpools/wordpool_EN.txt	SOAP	10	17	[0, 0, 0]	n/a	FR1	1	R1135E
1918.278	1.6	1922863	WORD	n/a	wordpools/wordpool_EN.txt	CUBE	11	17	[0, 0, 0]	n/a	FR1	1	R1135E
1920.879	1.6	1925464	WORD	n/a	wordpools/wordpool_EN.txt	SEAT	12	17	[0, 0, 0]	n/a	FR1	1	R1135E
1922.495	0.001	1927080	DISTRACT_START	n/a	n/a	n/a	-999	17	[0, 0, 0]	n/a	FR1	1	R1135E
1922.496	0.016	1927081	START	n/a	n/a	n/a	-999	17	[-999, -999, -999]	n/a	FR1	1	R1135E
1922.512	11.719	1927097	PROB	11.695	n/a	n/a	-999	17	[3, 8, 2]	13.0	FR1	1	R1135E
1934.231	9.477	1938815	PROB	9.477	n/a	n/a	-999	17	[6, 2, 2]	10.0	FR1	1	R1135E
1943.708	0.009	1948291	STOP	n/a	n/a	n/a	-999	17	[-999, -999, -999]	n/a	FR1	1	R1135E
1943.717	1.067	1948300	DISTRACT_END	n/a	n/a	n/a	-999	17	[0, 0, 0]	n/a	FR1	1	R1135E
1944.784	2.414	1949367	REC_START	n/a	n/a	n/a	-999	17	[0, 0, 0]	n/a	FR1	1	R1135E
1947.198	2.302	1951781	REC_WORD	2.414	n/a	RUG	1	17	[0, 0, 0]	n/a	FR1	1	R1135E
1949.5	3.378	1954083	REC_WORD	4.716	n/a	CUBE	11	17	[0, 0, 0]	n/a	FR1	1	R1135E
1952.878	16.609	1957461	REC_WORD	8.094	n/a	WOOD	-999	17	[0, 0, 0]	n/a	FR1	1	R1135E
1969.487	5.306	1974069	REC_WORD_VV	24.703	n/a	<>	-999	17	[0, 0, 0]	n/a	FR1	1	R1135E
1974.793	2.996	1979374	REC_END	n/a	n/a	n/a	-999	17	[0, 0, 0]	n/a	FR1	1	R1135E
1977.789	10.0	1982370	COUNTDOWN_START	n/a	n/a	n/a	-999	18	[0, 0, 0]	n/a	FR1	1	R1135E
1977.789	10.428	1982370	TRIAL	n/a	n/a	n/a	-999	18	[0, 0, 0]	n/a	FR1	1	R1135E
1988.217	0.006	1992797	COUNTDOWN_END	n/a	n/a	n/a	-999	18	[0, 0, 0]	n/a	FR1	1	R1135E
1988.223	1.6	1992803	ORIENT	n/a	n/a	n/a	-999	18	[0, 0, 0]	n/a	FR1	1	R1135E
1990.742	1.6	1995322	WORD	n/a	wordpools/wordpool_EN.txt	PLANE	1	18	[0, 0, 0]	n/a	FR1	1	R1135E
1993.191	1.6	1997771	WORD	n/a	wordpools/wordpool_EN.txt	EAR	2	18	[0, 0, 0]	n/a	FR1	1	R1135E
1995.659	1.6	2000239	WORD	n/a	wordpools/wordpool_EN.txt	STRING	3	18	[0, 0, 0]	n/a	FR1	1	R1135E
1998.192	1.6	2002772	WORD	n/a	wordpools/wordpool_EN.txt	LOCK	4	18	[0, 0, 0]	n/a	FR1	1	R1135E
2000.576	1.6	2005155	WORD	n/a	wordpools/wordpool_EN.txt	PLATE	5	18	[0, 0, 0]	n/a	FR1	1	R1135E
2002.977	1.6	2007556	WORD	n/a	wordpools/wordpool_EN.txt	TOOL	6	18	[0, 0, 0]	n/a	FR1	1	R1135E
2005.527	1.6	2010106	WORD	n/a	wordpools/wordpool_EN.txt	NEST	7	18	[0, 0, 0]	n/a	FR1	1	R1135E
2007.978	1.6	2012557	WORD	n/a	wordpools/wordpool_EN.txt	EEL	8	18	[0, 0, 0]	n/a	FR1	1	R1135E
2010.544	1.6	2015123	WORD	n/a	wordpools/wordpool_EN.txt	JET	9	18	[0, 0, 0]	n/a	FR1	1	R1135E
2012.929	1.6	2017508	WORD	n/a	wordpools/wordpool_EN.txt	CONE	10	18	[0, 0, 0]	n/a	FR1	1	R1135E
2015.528	1.6	2020106	WORD	n/a	wordpools/wordpool_EN.txt	INK	11	18	[0, 0, 0]	n/a	FR1	1	R1135E
2017.963	1.6	2022541	WORD	n/a	wordpools/wordpool_EN.txt	HAWK	12	18	[0, 0, 0]	n/a	FR1	1	R1135E
2019.579	0.001	2024157	DISTRACT_START	n/a	n/a	n/a	-999	18	[0, 0, 0]	n/a	FR1	1	R1135E
2019.58	0.016	2024158	START	n/a	n/a	n/a	-999	18	[-999, -999, -999]	n/a	FR1	1	R1135E
2019.596	16.236	2024174	PROB	16.209	n/a	n/a	-999	18	[9, 2, 7]	18.0	FR1	1	R1135E
2035.832	16.455	2040409	PROB	16.455	n/a	n/a	-999	18	[5, 6, 3]	14.0	FR1	1	R1135E
2052.287	0.014	2056863	STOP	n/a	n/a	n/a	-999	18	[-999, -999, -999]	n/a	FR1	1	R1135E
2052.301	1.118	2056877	DISTRACT_END	n/a	n/a	n/a	-999	18	[0, 0, 0]	n/a	FR1	1	R1135E
2053.419	2.022	2057995	REC_START	n/a	n/a	n/a	-999	18	[0, 0, 0]	n/a	FR1	1	R1135E
2055.441	13.943	2060017	REC_WORD	2.022	n/a	EEL	8	18	[0, 0, 0]	n/a	FR1	1	R1135E
2069.384	8.973	2073959	REC_WORD	15.965	n/a	CONE	10	18	[0, 0, 0]	n/a	FR1	1	R1135E
2078.357	5.07	2082931	REC_WORD	24.938	n/a	STEEL	-999	18	[0, 0, 0]	n/a	FR1	1	R1135E
2083.427	2.498	2088001	REC_END	n/a	n/a	n/a	-999	18	[0, 0, 0]	n/a	FR1	1	R1135E
2085.925	0.0	2090499	TRIAL	n/a	n/a	n/a	-999	19	[0, 0, 0]	n/a	FR1	1	R1135E
2085.925	10.0	2090499	COUNTDOWN_START	n/a	n/a	n/a	-999	19	[0, 0, 0]	n/a	FR1	1	R1135E
2096.353	0.006	2100926	COUNTDOWN_END	n/a	n/a	n/a	-999	19	[0, 0, 0]	n/a	FR1	1	R1135E
2096.359	1.6	2100932	ORIENT	n/a	n/a	n/a	-999	19	[0, 0, 0]	n/a	FR1	1	R1135E
2098.744	1.6	2103317	WORD	n/a	wordpools/wordpool_EN.txt	SUIT	1	19	[0, 0, 0]	n/a	FR1	1	R1135E
2101.36	1.6	2105933	WORD	n/a	wordpools/wordpool_EN.txt	WOLF	2	19	[0, 0, 0]	n/a	FR1	1	R1135E
2103.778	1.6	2108350	WORD	n/a	wordpools/wordpool_EN.txt	MAZE	3	19	[0, 0, 0]	n/a	FR1	1	R1135E
2106.311	1.6	2110883	WORD	n/a	wordpools/wordpool_EN.txt	BOX	4	19	[0, 0, 0]	n/a	FR1	1	R1135E
2108.729	1.6	2113301	WORD	n/a	wordpools/wordpool_EN.txt	CAPE	5	19	[0, 0, 0]	n/a	FR1	1	R1135E
2111.146	1.6	2115718	WORD	n/a	wordpools/wordpool_EN.txt	BEACH	6	19	[0, 0, 0]	n/a	FR1	1	R1135E
2113.595	1.6	2118167	WORD	n/a	wordpools/wordpool_EN.txt	SHIP	7	19	[0, 0, 0]	n/a	FR1	1	R1135E
2116.164	1.6	2120736	WORD	n/a	wordpools/wordpool_EN.txt	SEA	8	19	[0, 0, 0]	n/a	FR1	1	R1135E
2118.58	1.6	2123151	WORD	n/a	wordpools/wordpool_EN.txt	SEAL	9	19	[0, 0, 0]	n/a	FR1	1	R1135E
2121.197	1.6	2125768	WORD	n/a	wordpools/wordpool_EN.txt	SNAIL	10	19	[0, 0, 0]	n/a	FR1	1	R1135E
2123.715	1.6	2128286	WORD	n/a	wordpools/wordpool_EN.txt	SALT	11	19	[0, 0, 0]	n/a	FR1	1	R1135E
2126.182	1.6	2130753	WORD	n/a	wordpools/wordpool_EN.txt	SLUSH	12	19	[0, 0, 0]	n/a	FR1	1	R1135E
2127.799	0.001	2132370	DISTRACT_START	n/a	n/a	n/a	-999	19	[0, 0, 0]	n/a	FR1	1	R1135E
2127.8	0.016	2132371	START	n/a	n/a	n/a	-999	19	[-999, -999, -999]	n/a	FR1	1	R1135E
2127.816	9.584	2132387	PROB	9.548	n/a	n/a	-999	19	[6, 3, 3]	12.0	FR1	1	R1135E
2137.4	9.236	2141970	PROB	9.201	n/a	n/a	-999	19	[4, 1, 7]	12.0	FR1	1	R1135E
2146.636	18.317	2151206	PROB	18.317	n/a	n/a	-999	19	[7, 6, 6]	19.0	FR1	1	R1135E
2164.953	0.019	2169521	STOP	n/a	n/a	n/a	-999	19	[-999, -999, -999]	n/a	FR1	1	R1135E
2164.972	1.034	2169540	DISTRACT_END	n/a	n/a	n/a	-999	19	[0, 0, 0]	n/a	FR1	1	R1135E
2166.006	4.306	2170574	REC_START	n/a	n/a	n/a	-999	19	[0, 0, 0]	n/a	FR1	1	R1135E
2170.312	3.567	2174880	REC_WORD	4.306	n/a	BEACH	6	19	[0, 0, 0]	n/a	FR1	1	R1135E
2173.879	6.792	2178447	REC_WORD	7.873	n/a	STEEL	-999	19	[0, 0, 0]	n/a	FR1	1	R1135E
2180.671	2.877	2185238	REC_WORD_VV	14.665	n/a	<>	-999	19	[0, 0, 0]	n/a	FR1	1	R1135E
2183.548	12.471	2188115	REC_WORD	17.542	n/a	SALT	11	19	[0, 0, 0]	n/a	FR1	1	R1135E
2196.019	3.643	2200585	REC_END	n/a	n/a	n/a	-999	19	[0, 0, 0]	n/a	FR1	1	R1135E
2199.662	10.0	2204228	COUNTDOWN_START	n/a	n/a	n/a	-999	20	[0, 0, 0]	n/a	FR1	1	R1135E
2199.662	10.428	2204228	TRIAL	n/a	n/a	n/a	-999	20	[0, 0, 0]	n/a	FR1	1	R1135E
2210.09	0.007	2214655	COUNTDOWN_END	n/a	n/a	n/a	-999	20	[0, 0, 0]	n/a	FR1	1	R1135E
2210.097	1.6	2214662	ORIENT	n/a	n/a	n/a	-999	20	[0, 0, 0]	n/a	FR1	1	R1135E
2212.697	1.6	2217262	WORD	n/a	wordpools/wordpool_EN.txt	FLAME	1	20	[0, 0, 0]	n/a	FR1	1	R1135E
2215.297	1.6	2219862	WORD	n/a	wordpools/wordpool_EN.txt	SHEEP	2	20	[0, 0, 0]	n/a	FR1	1	R1135E
2217.881	1.6	2222446	WORD	n/a	wordpools/wordpool_EN.txt	WAND	3	20	[0, 0, 0]	n/a	FR1	1	R1135E
2220.314	1.6	2224879	WORD	n/a	wordpools/wordpool_EN.txt	SWAMP	4	20	[0, 0, 0]	n/a	FR1	1	R1135E
2222.766	1.6	2227330	WORD	n/a	wordpools/wordpool_EN.txt	CORN	5	20	[0, 0, 0]	n/a	FR1	1	R1135E
2225.365	1.6	2229929	WORD	n/a	wordpools/wordpool_EN.txt	BRUSH	6	20	[0, 0, 0]	n/a	FR1	1	R1135E
2227.85	1.6	2232414	WORD	n/a	wordpools/wordpool_EN.txt	SKY	7	20	[0, 0, 0]	n/a	FR1	1	R1135E
2230.366	1.6	2234930	WORD	n/a	wordpools/wordpool_EN.txt	TENT	8	20	[0, 0, 0]	n/a	FR1	1	R1135E
2232.951	1.6	2237515	WORD	n/a	wordpools/wordpool_EN.txt	OAK	9	20	[0, 0, 0]	n/a	FR1	1	R1135E
2235.384	1.6	2239948	WORD	n/a	wordpools/wordpool_EN.txt	JEEP	10	20	[0, 0, 0]	n/a	FR1	1	R1135E
2237.768	1.6	2242331	WORD	n/a	wordpools/wordpool_EN.txt	CROW	11	20	[0, 0, 0]	n/a	FR1	1	R1135E
2240.284	1.6	2244847	WORD	n/a	wordpools/wordpool_EN.txt	LAKE	12	20	[0, 0, 0]	n/a	FR1	1	R1135E
2241.886	0.0	2246449	DISTRACT_START	n/a	n/a	n/a	-999	20	[0, 0, 0]	n/a	FR1	1	R1135E
2241.886	0.016	2246449	START	n/a	n/a	n/a	-999	20	[-999, -999, -999]	n/a	FR1	1	R1135E
2241.902	12.585	2246465	PROB	12.555	n/a	n/a	-999	20	[4, 7, 2]	13.0	FR1	1	R1135E
2254.487	22.95	2259049	PROB	22.95	n/a	n/a	-999	20	[6, 7, 8]	22.0	FR1	1	R1135E
2277.437	0.004	2281998	STOP	n/a	n/a	n/a	-999	20	[-999, -999, -999]	n/a	FR1	1	R1135E
2277.441	1.067	2282002	DISTRACT_END	n/a	n/a	n/a	-999	20	[0, 0, 0]	n/a	FR1	1	R1135E
2278.508	1.985	2283069	REC_START	n/a	n/a	n/a	-999	20	[0, 0, 0]	n/a	FR1	1	R1135E
2280.493	4.316	2285053	REC_WORD	1.985	n/a	JEEP	10	20	[0, 0, 0]	n/a	FR1	1	R1135E
2284.809	9.443	2289369	REC_WORD_VV	6.301	n/a	<>	-999	20	[0, 0, 0]	n/a	FR1	1	R1135E
2294.252	14.268	2298812	REC_WORD	15.744	n/a	BRUSH	6	20	[0, 0, 0]	n/a	FR1	1	R1135E
2308.52	3.128	2313079	REC_END	n/a	n/a	n/a	-999	20	[0, 0, 0]	n/a	FR1	1	R1135E
2311.648	0.0	2316206	TRIAL	n/a	n/a	n/a	-999	21	[0, 0, 0]	n/a	FR1	1	R1135E
2311.648	10.0	2316206	COUNTDOWN_START	n/a	n/a	n/a	-999	21	[0, 0, 0]	n/a	FR1	1	R1135E
2322.076	0.007	2326634	COUNTDOWN_END	n/a	n/a	n/a	-999	21	[0, 0, 0]	n/a	FR1	1	R1135E
2322.083	1.6	2326641	ORIENT	n/a	n/a	n/a	-999	21	[0, 0, 0]	n/a	FR1	1	R1135E
2324.667	1.6	2329224	WORD	n/a	wordpools/wordpool_EN.txt	GLOVE	1	21	[0, 0, 0]	n/a	FR1	1	R1135E
2327.233	1.6	2331790	WORD	n/a	wordpools/wordpool_EN.txt	CHAIR	2	21	[0, 0, 0]	n/a	FR1	1	R1135E
2329.634	1.6	2334191	WORD	n/a	wordpools/wordpool_EN.txt	ARM	3	21	[0, 0, 0]	n/a	FR1	1	R1135E
2332.068	1.6	2336625	WORD	n/a	wordpools/wordpool_EN.txt	BOARD	4	21	[0, 0, 0]	n/a	FR1	1	R1135E
2334.702	1.6	2339259	WORD	n/a	wordpools/wordpool_EN.txt	FISH	5	21	[0, 0, 0]	n/a	FR1	1	R1135E
2337.201	1.6	2341758	WORD	n/a	wordpools/wordpool_EN.txt	SHIRT	6	21	[0, 0, 0]	n/a	FR1	1	R1135E
2339.67	1.6	2344226	WORD	n/a	wordpools/wordpool_EN.txt	TEETH	7	21	[0, 0, 0]	n/a	FR1	1	R1135E
2342.252	1.6	2346808	WORD	n/a	wordpools/wordpool_EN.txt	BARN	8	21	[0, 0, 0]	n/a	FR1	1	R1135E
2344.837	1.6	2349393	WORD	n/a	wordpools/wordpool_EN.txt	SHRIMP	9	21	[0, 0, 0]	n/a	FR1	1	R1135E
2347.236	1.6	2351792	WORD	n/a	wordpools/wordpool_EN.txt	CHALK	10	21	[0, 0, 0]	n/a	FR1	1	R1135E
2349.688	1.6	2354244	WORD	n/a	wordpools/wordpool_EN.txt	CLIFF	11	21	[0, 0, 0]	n/a	FR1	1	R1135E
2352.304	1.6	2356860	WORD	n/a	wordpools/wordpool_EN.txt	WORLD	12	21	[0, 0, 0]	n/a	FR1	1	R1135E
2353.922	0.001	2358478	DISTRACT_START	n/a	n/a	n/a	-999	21	[0, 0, 0]	n/a	FR1	1	R1135E
2353.923	0.016	2358479	START	n/a	n/a	n/a	-999	21	[-999, -999, -999]	n/a	FR1	1	R1135E
2353.939	15.902	2358495	PROB	15.869	n/a	n/a	-999	21	[9, 5, 9]	23.0	FR1	1	R1135E
2369.841	17.362	2374395	PROB	17.362	n/a	n/a	-999	21	[6, 2, 7]	15.0	FR1	1	R1135E
2387.203	0.007	2391756	STOP	n/a	n/a	n/a	-999	21	[-999, -999, -999]	n/a	FR1	1	R1135E
2387.21	1.051	2391763	DISTRACT_END	n/a	n/a	n/a	-999	21	[0, 0, 0]	n/a	FR1	1	R1135E
2388.261	6.069	2392814	REC_START	n/a	n/a	n/a	-999	21	[0, 0, 0]	n/a	FR1	1	R1135E
2394.33	1.552	2398883	REC_WORD	6.069	n/a	ARM	3	21	[0, 0, 0]	n/a	FR1	1	R1135E
2395.882	0.961	2400435	REC_WORD	7.621	n/a	TEETH	7	21	[0, 0, 0]	n/a	FR1	1	R1135E
2396.843	7.549	2401396	REC_WORD	8.582	n/a	CLIFF	11	21	[0, 0, 0]	n/a	FR1	1	R1135E
2404.392	0.825	2408944	REC_WORD_VV	16.131	n/a	<>	-999	21	[0, 0, 0]	n/a	FR1	1	R1135E
2405.217	5.896	2409769	REC_WORD	16.956	n/a	SHRIMP	9	21	[0, 0, 0]	n/a	FR1	1	R1135E
2411.113	7.158	2415665	REC_WORD_VV	22.852	n/a	<>	-999	21	[0, 0, 0]	n/a	FR1	1	R1135E
2418.271	3.979	2422822	REC_END	n/a	n/a	n/a	-999	21	[0, 0, 0]	n/a	FR1	1	R1135E
2422.25	0.0	2426801	TRIAL	n/a	n/a	n/a	-999	22	[0, 0, 0]	n/a	FR1	1	R1135E
2422.25	10.0	2426801	COUNTDOWN_START	n/a	n/a	n/a	-999	22	[0, 0, 0]	n/a	FR1	1	R1135E
2432.678	0.008	2437228	COUNTDOWN_END	n/a	n/a	n/a	-999	22	[0, 0, 0]	n/a	FR1	1	R1135E
2432.686	1.6	2437236	ORIENT	n/a	n/a	n/a	-999	22	[0, 0, 0]	n/a	FR1	1	R1135E
2435.202	1.6	2439752	WORD	n/a	wordpools/wordpool_EN.txt	STAIR	1	22	[0, 0, 0]	n/a	FR1	1	R1135E
2437.67	1.6	2442220	WORD	n/a	wordpools/wordpool_EN.txt	SMOKE	2	22	[0, 0, 0]	n/a	FR1	1	R1135E
2440.236	1.6	2444786	WORD	n/a	wordpools/wordpool_EN.txt	DART	3	22	[0, 0, 0]	n/a	FR1	1	R1135E
2442.704	1.6	2447253	WORD	n/a	wordpools/wordpool_EN.txt	PANTS	4	22	[0, 0, 0]	n/a	FR1	1	R1135E
2445.287	1.6	2449836	WORD	n/a	wordpools/wordpool_EN.txt	BADGE	5	22	[0, 0, 0]	n/a	FR1	1	R1135E
2447.721	1.6	2452270	WORD	n/a	wordpools/wordpool_EN.txt	CAR	6	22	[0, 0, 0]	n/a	FR1	1	R1135E
2450.338	1.6	2454887	WORD	n/a	wordpools/wordpool_EN.txt	WING	7	22	[0, 0, 0]	n/a	FR1	1	R1135E
2452.823	1.6	2457372	WORD	n/a	wordpools/wordpool_EN.txt	BRICK	8	22	[0, 0, 0]	n/a	FR1	1	R1135E
2455.439	1.6	2459988	WORD	n/a	wordpools/wordpool_EN.txt	FOG	9	22	[0, 0, 0]	n/a	FR1	1	R1135E
2457.84	1.6	2462388	WORD	n/a	wordpools/wordpool_EN.txt	TRASH	10	22	[0, 0, 0]	n/a	FR1	1	R1135E
2460.273	1.6	2464821	WORD	n/a	wordpools/wordpool_EN.txt	CANE	11	22	[0, 0, 0]	n/a	FR1	1	R1135E
2462.824	1.6	2467372	WORD	n/a	wordpools/wordpool_EN.txt	JAIL	12	22	[0, 0, 0]	n/a	FR1	1	R1135E
2464.44	0.001	2468988	DISTRACT_START	n/a	n/a	n/a	-999	22	[0, 0, 0]	n/a	FR1	1	R1135E
2464.441	0.016	2468989	START	n/a	n/a	n/a	-999	22	[-999, -999, -999]	n/a	FR1	1	R1135E
2464.457	18.238	2469005	PROB	18.204	n/a	n/a	-999	22	[9, 8, 7]	24.0	FR1	1	R1135E
2482.695	9.686	2487242	PROB	9.686	n/a	n/a	-999	22	[1, 7, 2]	10.0	FR1	1	R1135E
2492.381	0.014	2496927	STOP	n/a	n/a	n/a	-999	22	[-999, -999, -999]	n/a	FR1	1	R1135E
2492.395	1.134	2496941	DISTRACT_END	n/a	n/a	n/a	-999	22	[0, 0, 0]	n/a	FR1	1	R1135E
2493.529	2.008	2498075	REC_START	n/a	n/a	n/a	-999	22	[0, 0, 0]	n/a	FR1	1	R1135E
2495.537	1.086	2500083	REC_WORD	2.008	n/a	JAIL	12	22	[0, 0, 0]	n/a	FR1	1	R1135E
2496.623	4.101	2501169	REC_WORD	3.094	n/a	BRICK	8	22	[0, 0, 0]	n/a	FR1	1	R1135E
2500.724	8.487	2505270	REC_WORD_VV	7.195	n/a	<>	-999	22	[0, 0, 0]	n/a	FR1	1	R1135E
2509.211	14.335	2513756	REC_WORD_VV	15.682	n/a	<>	-999	22	[0, 0, 0]	n/a	FR1	1	R1135E
2523.546	3.005	2528090	REC_END	n/a	n/a	n/a	-999	22	[0, 0, 0]	n/a	FR1	1	R1135E
2526.551	0.0	2531095	TRIAL	n/a	n/a	n/a	-999	23	[0, 0, 0]	n/a	FR1	1	R1135E
2526.551	10.0	2531095	COUNTDOWN_START	n/a	n/a	n/a	-999	23	[0, 0, 0]	n/a	FR1	1	R1135E
2536.979	0.008	2541522	COUNTDOWN_END	n/a	n/a	n/a	-999	23	[0, 0, 0]	n/a	FR1	1	R1135E
2536.987	1.6	2541530	ORIENT	n/a	n/a	n/a	-999	23	[0, 0, 0]	n/a	FR1	1	R1135E
2539.403	1.6	2543946	WORD	n/a	wordpools/wordpool_EN.txt	SWORD	1	23	[0, 0, 0]	n/a	FR1	1	R1135E
2541.972	1.6	2546515	WORD	n/a	wordpools/wordpool_EN.txt	PARK	2	23	[0, 0, 0]	n/a	FR1	1	R1135E
2544.504	1.6	2549047	WORD	n/a	wordpools/wordpool_EN.txt	AXE	3	23	[0, 0, 0]	n/a	FR1	1	R1135E
2546.872	1.6	2551414	WORD	n/a	wordpools/wordpool_EN.txt	COUCH	4	23	[0, 0, 0]	n/a	FR1	1	R1135E
2549.455	1.6	2553997	WORD	n/a	wordpools/wordpool_EN.txt	POOL	5	23	[0, 0, 0]	n/a	FR1	1	R1135E
2552.007	1.6	2556549	WORD	n/a	wordpools/wordpool_EN.txt	BANK	6	23	[0, 0, 0]	n/a	FR1	1	R1135E
2554.523	1.6	2559065	WORD	n/a	wordpools/wordpool_EN.txt	FOAM	7	23	[0, 0, 0]	n/a	FR1	1	R1135E
2557.124	1.6	2561666	WORD	n/a	wordpools/wordpool_EN.txt	WEED	8	23	[0, 0, 0]	n/a	FR1	1	R1135E
2559.708	1.6	2564250	WORD	n/a	wordpools/wordpool_EN.txt	BED	9	23	[0, 0, 0]	n/a	FR1	1	R1135E
2562.208	1.6	2566749	WORD	n/a	wordpools/wordpool_EN.txt	SINK	10	23	[0, 0, 0]	n/a	FR1	1	R1135E
2564.642	1.6	2569183	WORD	n/a	wordpools/wordpool_EN.txt	HOUSE	11	23	[0, 0, 0]	n/a	FR1	1	R1135E
2567.043	1.6	2571584	WORD	n/a	wordpools/wordpool_EN.txt	MUG	12	23	[0, 0, 0]	n/a	FR1	1	R1135E
2568.66	0.0	2573201	DISTRACT_START	n/a	n/a	n/a	-999	23	[0, 0, 0]	n/a	FR1	1	R1135E
2568.66	0.016	2573201	START	n/a	n/a	n/a	-999	23	[-999, -999, -999]	n/a	FR1	1	R1135E
2568.676	9.868	2573217	PROB	9.834	n/a	n/a	-999	23	[4, 1, 6]	11.0	FR1	1	R1135E
2578.544	15.699	2583084	PROB	15.699	n/a	n/a	-999	23	[6, 9, 1]	16.0	FR1	1	R1135E
2594.243	0.003	2598782	STOP	n/a	n/a	n/a	-999	23	[-999, -999, -999]	n/a	FR1	1	R1135E
2594.246	1.034	2598785	DISTRACT_END	n/a	n/a	n/a	-999	23	[0, 0, 0]	n/a	FR1	1	R1135E
2595.28	2.182	2599819	REC_START	n/a	n/a	n/a	-999	23	[0, 0, 0]	n/a	FR1	1	R1135E
2597.462	1.231	2602001	REC_WORD	2.182	n/a	BED	9	23	[0, 0, 0]	n/a	FR1	1	R1135E
2598.693	2.194	2603232	REC_WORD	3.413	n/a	MUG	12	23	[0, 0, 0]	n/a	FR1	1	R1135E
2600.887	4.988	2605426	REC_WORD	5.607	n/a	COUCH	4	23	[0, 0, 0]	n/a	FR1	1	R1135E
2605.875	4.721	2610413	REC_WORD	10.595	n/a	FLOOR	-999	23	[0, 0, 0]	n/a	FR1	1	R1135E
2610.596	14.7	2615134	REC_WORD_VV	15.316	n/a	<>	-999	23	[0, 0, 0]	n/a	FR1	1	R1135E
2625.296	3.157	2629833	REC_END	n/a	n/a	n/a	-999	23	[0, 0, 0]	n/a	FR1	1	R1135E
2628.453	0.0	2632990	TRIAL	n/a	n/a	n/a	-999	24	[0, 0, 0]	n/a	FR1	1	R1135E
2628.453	10.0	2632990	COUNTDOWN_START	n/a	n/a	n/a	-999	24	[0, 0, 0]	n/a	FR1	1	R1135E
2638.881	0.008	2643417	COUNTDOWN_END	n/a	n/a	n/a	-999	24	[0, 0, 0]	n/a	FR1	1	R1135E
2638.889	1.6	2643425	ORIENT	n/a	n/a	n/a	-999	24	[0, 0, 0]	n/a	FR1	1	R1135E
2641.471	1.6	2646007	WORD	n/a	wordpools/wordpool_EN.txt	PIG	1	24	[0, 0, 0]	n/a	FR1	1	R1135E
2643.84	1.6	2648376	WORD	n/a	wordpools/wordpool_EN.txt	BAG	2	24	[0, 0, 0]	n/a	FR1	1	R1135E
2646.289	1.6	2650825	WORD	n/a	wordpools/wordpool_EN.txt	TOE	3	24	[0, 0, 0]	n/a	FR1	1	R1135E
2648.874	1.6	2653410	WORD	n/a	wordpools/wordpool_EN.txt	BUSH	4	24	[0, 0, 0]	n/a	FR1	1	R1135E
2651.273	1.6	2655808	WORD	n/a	wordpools/wordpool_EN.txt	HILL	5	24	[0, 0, 0]	n/a	FR1	1	R1135E
2653.725	1.6	2658260	WORD	n/a	wordpools/wordpool_EN.txt	GATE	6	24	[0, 0, 0]	n/a	FR1	1	R1135E
2656.291	1.6	2660826	WORD	n/a	wordpools/wordpool_EN.txt	FROG	7	24	[0, 0, 0]	n/a	FR1	1	R1135E
2658.675	1.6	2663210	WORD	n/a	wordpools/wordpool_EN.txt	BOOT	8	24	[0, 0, 0]	n/a	FR1	1	R1135E
2661.208	1.6	2665743	WORD	n/a	wordpools/wordpool_EN.txt	GUARD	9	24	[0, 0, 0]	n/a	FR1	1	R1135E
2663.726	1.6	2668261	WORD	n/a	wordpools/wordpool_EN.txt	CHIN	10	24	[0, 0, 0]	n/a	FR1	1	R1135E
2666.16	1.6	2670694	WORD	n/a	wordpools/wordpool_EN.txt	CAGE	11	24	[0, 0, 0]	n/a	FR1	1	R1135E
2668.627	1.6	2673161	WORD	n/a	wordpools/wordpool_EN.txt	DOCK	12	24	[0, 0, 0]	n/a	FR1	1	R1135E
2670.243	0.001	2674777	DISTRACT_START	n/a	n/a	n/a	-999	24	[0, 0, 0]	n/a	FR1	1	R1135E
2670.244	0.016	2674778	START	n/a	n/a	n/a	-999	24	[-999, -999, -999]	n/a	FR1	1	R1135E
2670.26	18.12	2674794	PROB	18.087	n/a	n/a	-999	24	[7, 7, 9]	23.0	FR1	1	R1135E
2688.38	8.003	2692913	PROB	8.003	n/a	n/a	-999	24	[4, 4, 2]	10.0	FR1	1	R1135E
2696.383	0.015	2700915	STOP	n/a	n/a	n/a	-999	24	[-999, -999, -999]	n/a	FR1	1	R1135E
2696.398	1.134	2700930	DISTRACT_END	n/a	n/a	n/a	-999	24	[0, 0, 0]	n/a	FR1	1	R1135E
2697.532	7.83	2702064	REC_START	n/a	n/a	n/a	-999	24	[0, 0, 0]	n/a	FR1	1	R1135E
2705.362	22.18	2709894	REC_WORD	7.83	n/a	FLOOR	-999	24	[0, 0, 0]	n/a	FR1	1	R1135E
2727.542	3.446	2732072	REC_END	n/a	n/a	n/a	-999	24	[0, 0, 0]	n/a	FR1	1	R1135E
2730.988	0.0	2735518	TRIAL	n/a	n/a	n/a	-999	25	[0, 0, 0]	n/a	FR1	1	R1135E
2730.988	10.0	2735518	COUNTDOWN_START	n/a	n/a	n/a	-999	25	[0, 0, 0]	n/a	FR1	1	R1135E
2741.416	0.006	2745945	COUNTDOWN_END	n/a	n/a	n/a	-999	25	[0, 0, 0]	n/a	FR1	1	R1135E
2741.422	1.6	2745951	ORIENT	n/a	n/a	n/a	-999	25	[0, 0, 0]	n/a	FR1	1	R1135E
2743.824	1.6	2748353	WORD	n/a	wordpools/wordpool_EN.txt	HEN	1	25	[0, 0, 0]	n/a	FR1	1	R1135E
2746.357	1.6	2750886	WORD	n/a	wordpools/wordpool_EN.txt	RICE	2	25	[0, 0, 0]	n/a	FR1	1	R1135E
2748.925	1.6	2753454	WORD	n/a	wordpools/wordpool_EN.txt	BLUSH	3	25	[0, 0, 0]	n/a	FR1	1	R1135E
2751.357	1.6	2755886	WORD	n/a	wordpools/wordpool_EN.txt	SUN	4	25	[0, 0, 0]	n/a	FR1	1	R1135E
2753.942	1.6	2758470	WORD	n/a	wordpools/wordpool_EN.txt	STREET	5	25	[0, 0, 0]	n/a	FR1	1	R1135E
2756.408	1.6	2760936	WORD	n/a	wordpools/wordpool_EN.txt	HOOK	6	25	[0, 0, 0]	n/a	FR1	1	R1135E
2758.893	1.6	2763421	WORD	n/a	wordpools/wordpool_EN.txt	HOSE	7	25	[0, 0, 0]	n/a	FR1	1	R1135E
2761.509	1.6	2766037	WORD	n/a	wordpools/wordpool_EN.txt	STORE	8	25	[0, 0, 0]	n/a	FR1	1	R1135E
2764.111	1.6	2768639	WORD	n/a	wordpools/wordpool_EN.txt	CAT	9	25	[0, 0, 0]	n/a	FR1	1	R1135E
2766.711	1.6	2771239	WORD	n/a	wordpools/wordpool_EN.txt	LAMP	10	25	[0, 0, 0]	n/a	FR1	1	R1135E
2769.162	1.6	2773689	WORD	n/a	wordpools/wordpool_EN.txt	STOVE	11	25	[0, 0, 0]	n/a	FR1	1	R1135E
2771.745	1.6	2776272	WORD	n/a	wordpools/wordpool_EN.txt	MILK	12	25	[0, 0, 0]	n/a	FR1	1	R1135E
2773.361	0.001	2777888	DISTRACT_START	n/a	n/a	n/a	-999	25	[0, 0, 0]	n/a	FR1	1	R1135E
2773.362	0.016	2777889	START	n/a	n/a	n/a	-999	25	[-999, -999, -999]	n/a	FR1	1	R1135E
2773.378	10.835	2777905	PROB	10.804	n/a	n/a	-999	25	[3, 8, 2]	13.0	FR1	1	R1135E
2784.213	13.189	2788739	PROB	13.189	n/a	n/a	-999	25	[5, 4, 8]	17.0	FR1	1	R1135E
2797.402	0.014	2801927	STOP	n/a	n/a	n/a	-999	25	[-999, -999, -999]	n/a	FR1	1	R1135E
2797.416	1.1	2801941	DISTRACT_END	n/a	n/a	n/a	-999	25	[0, 0, 0]	n/a	FR1	1	R1135E
2798.516	1.858	2803041	REC_START	n/a	n/a	n/a	-999	25	[0, 0, 0]	n/a	FR1	1	R1135E
2800.374	2.159	2804899	REC_WORD	1.858	n/a	HEN	1	25	[0, 0, 0]	n/a	FR1	1	R1135E
2802.533	10.73	2807058	REC_WORD	4.017	n/a	STOVE	11	25	[0, 0, 0]	n/a	FR1	1	R1135E
2813.263	15.264	2817787	REC_WORD_VV	14.747	n/a	<>	-999	25	[0, 0, 0]	n/a	FR1	1	R1135E
2828.527	31.134	2833050	REC_END	n/a	n/a	n/a	-999	25	[0, 0, 0]	n/a	FR1	1	R1135E
2859.661	0.0	2864182	SESS_END	n/a	n/a	n/a	-999	25	[0, 0, 0]	n/a	FR1	1	R1135E
