onset	duration	sample	trial_type	response_time	stim_file	item_name	serialpos	list	test	answer	experiment	session	subject
0.0	19.01	576080	SESS_START	n/a	n/a	n/a	-999	-999	[0, 0, 0]	n/a	FR1	0	R1118N
19.01	10.0	595089	COUNTDOWN_START	n/a	n/a	n/a	-999	-999	[0, 0, 0]	n/a	FR1	0	R1118N
29.438	3.742	605517	COUNTDOWN_END	n/a	n/a	n/a	-999	-999	[0, 0, 0]	n/a	FR1	0	R1118N
33.18	1.6	609259	PRACTICE_WORD	n/a	n/a	RHINO	1	-1	[0, 0, 0]	n/a	FR1	0	R1118N
35.712	1.6	611790	PRACTICE_WORD	n/a	n/a	TONGUE	2	-1	[0, 0, 0]	n/a	FR1	0	R1118N
38.33	1.6	614408	PRACTICE_WORD	n/a	n/a	WAGON	3	-1	[0, 0, 0]	n/a	FR1	0	R1118N
40.73	1.6	616808	PRACTICE_WORD	n/a	n/a	FLOOD	4	-1	[0, 0, 0]	n/a	FR1	0	R1118N
43.247	1.6	619325	PRACTICE_WORD	n/a	n/a	CHEST	5	-1	[0, 0, 0]	n/a	FR1	0	R1118N
45.698	1.6	621776	PRACTICE_WORD	n/a	n/a	CAMEL	6	-1	[0, 0, 0]	n/a	FR1	0	R1118N
48.315	1.6	624393	PRACTICE_WORD	n/a	n/a	BEAM	7	-1	[0, 0, 0]	n/a	FR1	0	R1118N
50.748	1.6	626826	PRACTICE_WORD	n/a	n/a	COTTON	8	-1	[0, 0, 0]	n/a	FR1	0	R1118N
53.133	1.6	629211	PRACTICE_WORD	n/a	n/a	IRON	9	-1	[0, 0, 0]	n/a	FR1	0	R1118N
55.716	1.6	631794	PRACTICE_WORD	n/a	n/a	WATCH	10	-1	[0, 0, 0]	n/a	FR1	0	R1118N
58.35	1.6	634428	PRACTICE_WORD	n/a	n/a	ATTIC	11	-1	[0, 0, 0]	n/a	FR1	0	R1118N
60.85	1.6	636928	PRACTICE_WORD	n/a	n/a	RING	12	-1	[0, 0, 0]	n/a	FR1	0	R1118N
62.467	0.0	638544	PRACTICE_DISTRACT_START	n/a	n/a	n/a	-999	-1	[0, 0, 0]	n/a	FR1	0	R1118N
62.467	0.017	638544	START	n/a	n/a	n/a	-999	-1	[-999, -999, -999]	n/a	FR1	0	R1118N
62.484	14.169	638561	PROB	14.146	n/a	n/a	-999	-1	[9, 6, 5]	11.0	FR1	0	R1118N
76.653	2.783	652730	PROB	2.762	n/a	n/a	-999	-1	[4, 4, 1]	9.0	FR1	0	R1118N
79.436	12.994	655513	PROB	12.994	n/a	n/a	-999	-1	[9, 5, 7]	21.0	FR1	0	R1118N
92.43	0.009	668506	STOP	n/a	n/a	n/a	-999	-1	[-999, -999, -999]	n/a	FR1	0	R1118N
92.439	0.686	668515	PRACTICE_DISTRACT_END	n/a	n/a	n/a	-999	-1	[0, 0, 0]	n/a	FR1	0	R1118N
93.125	30.514	669201	PRACTICE_REC_START	n/a	n/a	n/a	-999	-1	[0, 0, 0]	n/a	FR1	0	R1118N
123.639	16.691	699714	PRACTICE_REC_END	n/a	n/a	n/a	-999	-1	[0, 0, 0]	n/a	FR1	0	R1118N
140.33	0.0	716404	TRIAL	n/a	n/a	n/a	-999	1	[0, 0, 0]	n/a	FR1	0	R1118N
140.33	10.0	716404	COUNTDOWN_START	n/a	n/a	n/a	-999	1	[0, 0, 0]	n/a	FR1	0	R1118N
150.758	0.007	726832	COUNTDOWN_END	n/a	n/a	n/a	-999	1	[0, 0, 0]	n/a	FR1	0	R1118N
150.765	1.6	726839	ORIENT	n/a	n/a	n/a	-999	1	[0, 0, 0]	n/a	FR1	0	R1118N
153.2	1.6	729274	WORD	n/a	wordpools/wordpool_EN.txt	STOOL	1	1	[0, 0, 0]	n/a	FR1	0	R1118N
155.582	1.6	731656	WORD	n/a	wordpools/wordpool_EN.txt	TEA	2	1	[0, 0, 0]	n/a	FR1	0	R1118N
157.966	1.6	734040	WORD	n/a	wordpools/wordpool_EN.txt	GEESE	3	1	[0, 0, 0]	n/a	FR1	0	R1118N
160.4	1.6	736474	WORD	n/a	wordpools/wordpool_EN.txt	SOCK	4	1	[0, 0, 0]	n/a	FR1	0	R1118N
162.884	1.6	738958	WORD	n/a	wordpools/wordpool_EN.txt	CLOWN	5	1	[0, 0, 0]	n/a	FR1	0	R1118N
165.451	1.6	741525	WORD	n/a	wordpools/wordpool_EN.txt	PIG	6	1	[0, 0, 0]	n/a	FR1	0	R1118N
167.868	1.6	743941	WORD	n/a	wordpools/wordpool_EN.txt	FLUTE	7	1	[0, 0, 0]	n/a	FR1	0	R1118N
170.335	1.6	746408	WORD	n/a	wordpools/wordpool_EN.txt	BARN	8	1	[0, 0, 0]	n/a	FR1	0	R1118N
172.869	1.6	748942	WORD	n/a	wordpools/wordpool_EN.txt	TRUCK	9	1	[0, 0, 0]	n/a	FR1	0	R1118N
175.302	1.6	751375	WORD	n/a	wordpools/wordpool_EN.txt	FAN	10	1	[0, 0, 0]	n/a	FR1	0	R1118N
177.686	1.6	753759	WORD	n/a	wordpools/wordpool_EN.txt	HAT	11	1	[0, 0, 0]	n/a	FR1	0	R1118N
180.07	1.6	756143	WORD	n/a	wordpools/wordpool_EN.txt	MUG	12	1	[0, 0, 0]	n/a	FR1	0	R1118N
181.687	0.001	757760	DISTRACT_START	n/a	n/a	n/a	-999	1	[0, 0, 0]	n/a	FR1	0	R1118N
181.688	0.015	757761	START	n/a	n/a	n/a	-999	1	[-999, -999, -999]	n/a	FR1	0	R1118N
181.703	6.453	757776	PROB	6.415	n/a	n/a	-999	1	[5, 6, 5]	16.0	FR1	0	R1118N
188.156	3.682	764229	PROB	3.658	n/a	n/a	-999	1	[1, 4, 5]	10.0	FR1	0	R1118N
191.838	1.767	767910	PROB	1.745	n/a	n/a	-999	1	[8, 1, 1]	10.0	FR1	0	R1118N
193.605	10.065	769677	PROB	10.065	n/a	n/a	-999	1	[1, 8, 5]	16.0	FR1	0	R1118N
203.67	0.003	779742	STOP	n/a	n/a	n/a	-999	1	[-999, -999, -999]	n/a	FR1	0	R1118N
203.673	1.072	779745	DISTRACT_END	n/a	n/a	n/a	-999	1	[0, 0, 0]	n/a	FR1	0	R1118N
204.745	5.177	780817	REC_START	n/a	n/a	n/a	-999	1	[0, 0, 0]	n/a	FR1	0	R1118N
209.922	3.051	785994	REC_WORD	5.177	n/a	GEESE	-999	1	[0, 0, 0]	n/a	FR1	0	R1118N
212.973	1.852	789045	REC_WORD	8.228	n/a	STOOL	-999	1	[0, 0, 0]	n/a	FR1	0	R1118N
214.825	13.856	790897	REC_WORD	10.08	n/a	RHINO	-999	1	[0, 0, 0]	n/a	FR1	0	R1118N
228.681	0.394	804752	REC_WORD_VV	23.936	n/a	<>	-999	1	[0, 0, 0]	n/a	FR1	0	R1118N
229.075	5.677	805146	REC_WORD	24.33	n/a	COTTON	-999	1	[0, 0, 0]	n/a	FR1	0	R1118N
234.752	2.827	810823	REC_END	n/a	n/a	n/a	-999	1	[0, 0, 0]	n/a	FR1	0	R1118N
237.579	10.0	813650	COUNTDOWN_START	n/a	n/a	n/a	-999	2	[0, 0, 0]	n/a	FR1	0	R1118N
237.58	10.427	813651	TRIAL	n/a	n/a	n/a	-999	2	[0, 0, 0]	n/a	FR1	0	R1118N
248.007	0.007	824077	COUNTDOWN_END	n/a	n/a	n/a	-999	2	[0, 0, 0]	n/a	FR1	0	R1118N
248.014	1.6	824084	ORIENT	n/a	n/a	n/a	-999	2	[0, 0, 0]	n/a	FR1	0	R1118N
250.548	1.6	826618	WORD	n/a	wordpools/wordpool_EN.txt	BEAR	1	2	[0, 0, 0]	n/a	FR1	0	R1118N
253.15	1.6	829220	WORD	n/a	wordpools/wordpool_EN.txt	ZOO	2	2	[0, 0, 0]	n/a	FR1	0	R1118N
255.716	1.6	831786	WORD	n/a	wordpools/wordpool_EN.txt	PIN	3	2	[0, 0, 0]	n/a	FR1	0	R1118N
258.299	1.6	834369	WORD	n/a	wordpools/wordpool_EN.txt	WORM	4	2	[0, 0, 0]	n/a	FR1	0	R1118N
260.867	1.6	836937	WORD	n/a	wordpools/wordpool_EN.txt	BED	5	2	[0, 0, 0]	n/a	FR1	0	R1118N
263.434	1.6	839504	WORD	n/a	wordpools/wordpool_EN.txt	BIRD	6	2	[0, 0, 0]	n/a	FR1	0	R1118N
266.051	1.6	842121	WORD	n/a	wordpools/wordpool_EN.txt	SLIME	7	2	[0, 0, 0]	n/a	FR1	0	R1118N
268.501	1.6	844571	WORD	n/a	wordpools/wordpool_EN.txt	BRANCH	8	2	[0, 0, 0]	n/a	FR1	0	R1118N
271.035	1.6	847104	WORD	n/a	wordpools/wordpool_EN.txt	BALL	9	2	[0, 0, 0]	n/a	FR1	0	R1118N
273.519	1.6	849588	WORD	n/a	wordpools/wordpool_EN.txt	BAT	10	2	[0, 0, 0]	n/a	FR1	0	R1118N
275.969	1.6	852038	WORD	n/a	wordpools/wordpool_EN.txt	WOLF	11	2	[0, 0, 0]	n/a	FR1	0	R1118N
278.553	1.6	854622	WORD	n/a	wordpools/wordpool_EN.txt	FUR	12	2	[0, 0, 0]	n/a	FR1	0	R1118N
280.171	0.001	856240	DISTRACT_START	n/a	n/a	n/a	-999	2	[0, 0, 0]	n/a	FR1	0	R1118N
280.172	0.015	856241	START	n/a	n/a	n/a	-999	2	[-999, -999, -999]	n/a	FR1	0	R1118N
280.187	5.184	856256	PROB	5.155	n/a	n/a	-999	2	[7, 2, 5]	14.0	FR1	0	R1118N
285.371	7.934	861440	PROB	7.907	n/a	n/a	-999	2	[1, 9, 5]	15.0	FR1	0	R1118N
293.305	2.902	869374	PROB	2.87	n/a	n/a	-999	2	[1, 6, 2]	9.0	FR1	0	R1118N
296.207	2.799	872275	PROB	2.776	n/a	n/a	-999	2	[5, 1, 2]	8.0	FR1	0	R1118N
299.006	3.768	875074	PROB	3.768	n/a	n/a	-999	2	[3, 7, 4]	14.0	FR1	0	R1118N
302.774	0.016	878842	STOP	n/a	n/a	n/a	-999	2	[-999, -999, -999]	n/a	FR1	0	R1118N
302.79	1.101	878858	DISTRACT_END	n/a	n/a	n/a	-999	2	[0, 0, 0]	n/a	FR1	0	R1118N
303.891	7.683	879959	REC_START	n/a	n/a	n/a	-999	2	[0, 0, 0]	n/a	FR1	0	R1118N
311.574	9.943	887642	REC_WORD_VV	7.683	n/a	<>	-999	2	[0, 0, 0]	n/a	FR1	0	R1118N
321.517	5.32	897585	REC_WORD	17.626	n/a	SLIME	-999	2	[0, 0, 0]	n/a	FR1	0	R1118N
326.837	7.063	902904	REC_WORD	22.946	n/a	BENCH	-999	2	[0, 0, 0]	n/a	FR1	0	R1118N
333.9	3.846	909967	REC_END	n/a	n/a	n/a	-999	2	[0, 0, 0]	n/a	FR1	0	R1118N
337.746	0.0	913813	TRIAL	n/a	n/a	n/a	-999	3	[0, 0, 0]	n/a	FR1	0	R1118N
337.746	10.0	913813	COUNTDOWN_START	n/a	n/a	n/a	-999	3	[0, 0, 0]	n/a	FR1	0	R1118N
348.174	0.008	924240	COUNTDOWN_END	n/a	n/a	n/a	-999	3	[0, 0, 0]	n/a	FR1	0	R1118N
348.182	1.6	924248	ORIENT	n/a	n/a	n/a	-999	3	[0, 0, 0]	n/a	FR1	0	R1118N
350.781	1.6	926847	WORD	n/a	wordpools/wordpool_EN.txt	CORD	1	3	[0, 0, 0]	n/a	FR1	0	R1118N
353.332	1.6	929398	WORD	n/a	wordpools/wordpool_EN.txt	WAVE	2	3	[0, 0, 0]	n/a	FR1	0	R1118N
355.832	1.6	931898	WORD	n/a	wordpools/wordpool_EN.txt	JUICE	3	3	[0, 0, 0]	n/a	FR1	0	R1118N
358.266	1.6	934332	WORD	n/a	wordpools/wordpool_EN.txt	SHEEP	4	3	[0, 0, 0]	n/a	FR1	0	R1118N
360.766	1.6	936832	WORD	n/a	wordpools/wordpool_EN.txt	MAP	5	3	[0, 0, 0]	n/a	FR1	0	R1118N
363.333	1.6	939399	WORD	n/a	wordpools/wordpool_EN.txt	PLANE	6	3	[0, 0, 0]	n/a	FR1	0	R1118N
365.884	1.6	941950	WORD	n/a	wordpools/wordpool_EN.txt	CONE	7	3	[0, 0, 0]	n/a	FR1	0	R1118N
368.501	1.6	944567	WORD	n/a	wordpools/wordpool_EN.txt	SHIP	8	3	[0, 0, 0]	n/a	FR1	0	R1118N
370.951	1.6	947017	WORD	n/a	wordpools/wordpool_EN.txt	BOMB	9	3	[0, 0, 0]	n/a	FR1	0	R1118N
373.552	1.6	949618	WORD	n/a	wordpools/wordpool_EN.txt	POLE	10	3	[0, 0, 0]	n/a	FR1	0	R1118N
376.019	1.6	952084	WORD	n/a	wordpools/wordpool_EN.txt	ELF	11	3	[0, 0, 0]	n/a	FR1	0	R1118N
378.536	1.6	954601	WORD	n/a	wordpools/wordpool_EN.txt	MOON	12	3	[0, 0, 0]	n/a	FR1	0	R1118N
380.137	0.001	956202	DISTRACT_START	n/a	n/a	n/a	-999	3	[0, 0, 0]	n/a	FR1	0	R1118N
380.138	0.016	956203	START	n/a	n/a	n/a	-999	3	[-999, -999, -999]	n/a	FR1	0	R1118N
380.154	6.45	956219	PROB	6.429	n/a	n/a	-999	3	[7, 5, 5]	17.0	FR1	0	R1118N
386.604	4.401	962669	PROB	4.37	n/a	n/a	-999	3	[6, 6, 6]	18.0	FR1	0	R1118N
391.005	5.367	967070	PROB	5.337	n/a	n/a	-999	3	[8, 2, 3]	13.0	FR1	0	R1118N
396.372	4.954	972437	PROB	4.954	n/a	n/a	-999	3	[4, 5, 8]	17.0	FR1	0	R1118N
401.326	0.014	977390	STOP	n/a	n/a	n/a	-999	3	[-999, -999, -999]	n/a	FR1	0	R1118N
401.34	1.184	977404	DISTRACT_END	n/a	n/a	n/a	-999	3	[0, 0, 0]	n/a	FR1	0	R1118N
402.524	3.742	978588	REC_START	n/a	n/a	n/a	-999	3	[0, 0, 0]	n/a	FR1	0	R1118N
406.266	1.276	982330	REC_WORD	3.742	n/a	ELF	-999	3	[0, 0, 0]	n/a	FR1	0	R1118N
407.542	11.447	983606	REC_WORD	5.018	n/a	CORD	-999	3	[0, 0, 0]	n/a	FR1	0	R1118N
418.989	13.545	995053	REC_WORD	16.465	n/a	JUMP	-999	3	[0, 0, 0]	n/a	FR1	0	R1118N
432.534	2.679	1008597	REC_END	n/a	n/a	n/a	-999	3	[0, 0, 0]	n/a	FR1	0	R1118N
435.213	0.0	1011276	TRIAL	n/a	n/a	n/a	-999	4	[0, 0, 0]	n/a	FR1	0	R1118N
435.213	10.0	1011276	COUNTDOWN_START	n/a	n/a	n/a	-999	4	[0, 0, 0]	n/a	FR1	0	R1118N
445.641	0.006	1021704	COUNTDOWN_END	n/a	n/a	n/a	-999	4	[0, 0, 0]	n/a	FR1	0	R1118N
445.647	1.6	1021710	ORIENT	n/a	n/a	n/a	-999	4	[0, 0, 0]	n/a	FR1	0	R1118N
448.064	1.6	1024127	WORD	n/a	wordpools/wordpool_EN.txt	BUSH	1	4	[0, 0, 0]	n/a	FR1	0	R1118N
450.498	1.6	1026561	WORD	n/a	wordpools/wordpool_EN.txt	HAND	2	4	[0, 0, 0]	n/a	FR1	0	R1118N
452.898	1.6	1028960	WORD	n/a	wordpools/wordpool_EN.txt	CHALK	3	4	[0, 0, 0]	n/a	FR1	0	R1118N
455.399	1.6	1031461	WORD	n/a	wordpools/wordpool_EN.txt	FENCE	4	4	[0, 0, 0]	n/a	FR1	0	R1118N
458.032	1.6	1034094	WORD	n/a	wordpools/wordpool_EN.txt	DEER	5	4	[0, 0, 0]	n/a	FR1	0	R1118N
460.466	1.6	1036528	WORD	n/a	wordpools/wordpool_EN.txt	SKI	6	4	[0, 0, 0]	n/a	FR1	0	R1118N
463.016	1.6	1039078	WORD	n/a	wordpools/wordpool_EN.txt	MULE	7	4	[0, 0, 0]	n/a	FR1	0	R1118N
465.4	1.6	1041462	WORD	n/a	wordpools/wordpool_EN.txt	STORM	8	4	[0, 0, 0]	n/a	FR1	0	R1118N
467.951	1.6	1044013	WORD	n/a	wordpools/wordpool_EN.txt	HILL	9	4	[0, 0, 0]	n/a	FR1	0	R1118N
470.451	1.6	1046513	WORD	n/a	wordpools/wordpool_EN.txt	BRUSH	10	4	[0, 0, 0]	n/a	FR1	0	R1118N
473.018	1.6	1049080	WORD	n/a	wordpools/wordpool_EN.txt	WAND	11	4	[0, 0, 0]	n/a	FR1	0	R1118N
475.552	1.6	1051614	WORD	n/a	wordpools/wordpool_EN.txt	FOOT	12	4	[0, 0, 0]	n/a	FR1	0	R1118N
477.17	0.001	1053232	DISTRACT_START	n/a	n/a	n/a	-999	4	[0, 0, 0]	n/a	FR1	0	R1118N
477.171	0.016	1053233	START	n/a	n/a	n/a	-999	4	[-999, -999, -999]	n/a	FR1	0	R1118N
477.187	11.517	1053249	PROB	11.492	n/a	n/a	-999	4	[2, 4, 5]	11.0	FR1	0	R1118N
488.704	5.568	1064765	PROB	5.534	n/a	n/a	-999	4	[2, 8, 6]	16.0	FR1	0	R1118N
494.272	3.719	1070333	PROB	3.719	n/a	n/a	-999	4	[2, 7, 1]	10.0	FR1	0	R1118N
497.991	0.015	1074052	STOP	n/a	n/a	n/a	-999	4	[-999, -999, -999]	n/a	FR1	0	R1118N
498.006	1.186	1074067	DISTRACT_END	n/a	n/a	n/a	-999	4	[0, 0, 0]	n/a	FR1	0	R1118N
499.192	2.331	1075253	REC_START	n/a	n/a	n/a	-999	4	[0, 0, 0]	n/a	FR1	0	R1118N
501.523	1.118	1077584	REC_WORD	2.331	n/a	BUSH	-999	4	[0, 0, 0]	n/a	FR1	0	R1118N
502.641	3.395	1078702	REC_WORD	3.449	n/a	BRUSH	-999	4	[0, 0, 0]	n/a	FR1	0	R1118N
506.036	8.903	1082096	REC_WORD	6.844	n/a	TALK	-999	4	[0, 0, 0]	n/a	FR1	0	R1118N
514.939	14.263	1090999	REC_WORD	15.747	n/a	MOOSE	-999	4	[0, 0, 0]	n/a	FR1	0	R1118N
529.202	2.192	1105262	REC_END	n/a	n/a	n/a	-999	4	[0, 0, 0]	n/a	FR1	0	R1118N
531.394	0.0	1107453	TRIAL	n/a	n/a	n/a	-999	5	[0, 0, 0]	n/a	FR1	0	R1118N
531.394	10.0	1107453	COUNTDOWN_START	n/a	n/a	n/a	-999	5	[0, 0, 0]	n/a	FR1	0	R1118N
541.822	0.008	1117881	COUNTDOWN_END	n/a	n/a	n/a	-999	5	[0, 0, 0]	n/a	FR1	0	R1118N
541.83	1.6	1117889	ORIENT	n/a	n/a	n/a	-999	5	[0, 0, 0]	n/a	FR1	0	R1118N
544.297	1.6	1120356	WORD	n/a	wordpools/wordpool_EN.txt	DESK	1	5	[0, 0, 0]	n/a	FR1	0	R1118N
546.88	1.6	1122939	WORD	n/a	wordpools/wordpool_EN.txt	PEARL	2	5	[0, 0, 0]	n/a	FR1	0	R1118N
549.364	1.6	1125423	WORD	n/a	wordpools/wordpool_EN.txt	DOG	3	5	[0, 0, 0]	n/a	FR1	0	R1118N
551.915	1.6	1127974	WORD	n/a	wordpools/wordpool_EN.txt	KEY	4	5	[0, 0, 0]	n/a	FR1	0	R1118N
554.348	1.6	1130407	WORD	n/a	wordpools/wordpool_EN.txt	JUDGE	5	5	[0, 0, 0]	n/a	FR1	0	R1118N
556.865	1.6	1132923	WORD	n/a	wordpools/wordpool_EN.txt	MAZE	6	5	[0, 0, 0]	n/a	FR1	0	R1118N
559.299	1.6	1135357	WORD	n/a	wordpools/wordpool_EN.txt	SHARK	7	5	[0, 0, 0]	n/a	FR1	0	R1118N
561.9	1.6	1137958	WORD	n/a	wordpools/wordpool_EN.txt	RUG	8	5	[0, 0, 0]	n/a	FR1	0	R1118N
564.533	1.6	1140591	WORD	n/a	wordpools/wordpool_EN.txt	BADGE	9	5	[0, 0, 0]	n/a	FR1	0	R1118N
567.135	1.6	1143193	WORD	n/a	wordpools/wordpool_EN.txt	COUCH	10	5	[0, 0, 0]	n/a	FR1	0	R1118N
569.701	1.6	1145759	WORD	n/a	wordpools/wordpool_EN.txt	SUN	11	5	[0, 0, 0]	n/a	FR1	0	R1118N
572.169	1.6	1148227	WORD	n/a	wordpools/wordpool_EN.txt	MAIL	12	5	[0, 0, 0]	n/a	FR1	0	R1118N
573.785	0.001	1149843	DISTRACT_START	n/a	n/a	n/a	-999	5	[0, 0, 0]	n/a	FR1	0	R1118N
573.786	0.016	1149844	START	n/a	n/a	n/a	-999	5	[-999, -999, -999]	n/a	FR1	0	R1118N
573.802	4.368	1149860	PROB	4.341	n/a	n/a	-999	5	[3, 1, 2]	6.0	FR1	0	R1118N
578.17	2.649	1154228	PROB	2.62	n/a	n/a	-999	5	[2, 3, 3]	8.0	FR1	0	R1118N
580.819	4.801	1156877	PROB	4.771	n/a	n/a	-999	5	[7, 4, 1]	12.0	FR1	0	R1118N
585.62	4.751	1161677	PROB	4.723	n/a	n/a	-999	5	[4, 7, 6]	17.0	FR1	0	R1118N
590.371	3.788	1166428	PROB	3.788	n/a	n/a	-999	5	[7, 4, 3]	14.0	FR1	0	R1118N
594.159	0.014	1170216	STOP	n/a	n/a	n/a	-999	5	[-999, -999, -999]	n/a	FR1	0	R1118N
594.173	1.183	1170230	DISTRACT_END	n/a	n/a	n/a	-999	5	[0, 0, 0]	n/a	FR1	0	R1118N
595.356	8.692	1171413	REC_START	n/a	n/a	n/a	-999	5	[0, 0, 0]	n/a	FR1	0	R1118N
604.048	1.491	1180105	REC_WORD	8.692	n/a	BRUSH	-999	5	[0, 0, 0]	n/a	FR1	0	R1118N
605.539	3.191	1181596	REC_WORD	10.183	n/a	BUSH	-999	5	[0, 0, 0]	n/a	FR1	0	R1118N
608.73	16.636	1184786	REC_WORD	13.374	n/a	TALK	-999	5	[0, 0, 0]	n/a	FR1	0	R1118N
625.366	2.178	1201422	REC_END	n/a	n/a	n/a	-999	5	[0, 0, 0]	n/a	FR1	0	R1118N
627.544	0.0	1203600	TRIAL	n/a	n/a	n/a	-999	6	[0, 0, 0]	n/a	FR1	0	R1118N
627.544	10.0	1203600	COUNTDOWN_START	n/a	n/a	n/a	-999	6	[0, 0, 0]	n/a	FR1	0	R1118N
637.972	0.007	1214027	COUNTDOWN_END	n/a	n/a	n/a	-999	6	[0, 0, 0]	n/a	FR1	0	R1118N
637.979	1.6	1214034	ORIENT	n/a	n/a	n/a	-999	6	[0, 0, 0]	n/a	FR1	0	R1118N
640.546	1.6	1216601	WORD	n/a	wordpools/wordpool_EN.txt	FOOD	1	6	[0, 0, 0]	n/a	FR1	0	R1118N
642.93	1.6	1218985	WORD	n/a	wordpools/wordpool_EN.txt	BRICK	2	6	[0, 0, 0]	n/a	FR1	0	R1118N
645.48	1.6	1221535	WORD	n/a	wordpools/wordpool_EN.txt	PRINCE	3	6	[0, 0, 0]	n/a	FR1	0	R1118N
647.997	1.6	1224052	WORD	n/a	wordpools/wordpool_EN.txt	WALL	4	6	[0, 0, 0]	n/a	FR1	0	R1118N
650.381	1.6	1226436	WORD	n/a	wordpools/wordpool_EN.txt	SHIELD	5	6	[0, 0, 0]	n/a	FR1	0	R1118N
652.965	1.6	1229020	WORD	n/a	wordpools/wordpool_EN.txt	PIE	6	6	[0, 0, 0]	n/a	FR1	0	R1118N
655.498	1.6	1231553	WORD	n/a	wordpools/wordpool_EN.txt	FRUIT	7	6	[0, 0, 0]	n/a	FR1	0	R1118N
658.065	1.6	1234120	WORD	n/a	wordpools/wordpool_EN.txt	CLAY	8	6	[0, 0, 0]	n/a	FR1	0	R1118N
660.682	1.6	1236736	WORD	n/a	wordpools/wordpool_EN.txt	SHELL	9	6	[0, 0, 0]	n/a	FR1	0	R1118N
663.2	1.6	1239254	WORD	n/a	wordpools/wordpool_EN.txt	SPEAR	10	6	[0, 0, 0]	n/a	FR1	0	R1118N
665.683	1.6	1241737	WORD	n/a	wordpools/wordpool_EN.txt	CLOTH	11	6	[0, 0, 0]	n/a	FR1	0	R1118N
668.134	1.6	1244188	WORD	n/a	wordpools/wordpool_EN.txt	FROG	12	6	[0, 0, 0]	n/a	FR1	0	R1118N
669.751	0.001	1245805	DISTRACT_START	n/a	n/a	n/a	-999	6	[0, 0, 0]	n/a	FR1	0	R1118N
669.752	0.015	1245806	START	n/a	n/a	n/a	-999	6	[-999, -999, -999]	n/a	FR1	0	R1118N
669.767	4.534	1245821	PROB	4.512	n/a	n/a	-999	6	[2, 4, 1]	7.0	FR1	0	R1118N
674.301	5.836	1250355	PROB	5.81	n/a	n/a	-999	6	[1, 8, 5]	14.0	FR1	0	R1118N
680.137	2.866	1256191	PROB	2.837	n/a	n/a	-999	6	[2, 4, 1]	7.0	FR1	0	R1118N
683.003	3.334	1259057	PROB	3.299	n/a	n/a	-999	6	[1, 9, 4]	14.0	FR1	0	R1118N
686.337	6.03	1262391	PROB	6.03	n/a	n/a	-999	6	[5, 8, 8]	22.0	FR1	0	R1118N
692.367	0.004	1268420	STOP	n/a	n/a	n/a	-999	6	[-999, -999, -999]	n/a	FR1	0	R1118N
692.371	1.118	1268424	DISTRACT_END	n/a	n/a	n/a	-999	6	[0, 0, 0]	n/a	FR1	0	R1118N
693.489	22.863	1269542	REC_START	n/a	n/a	n/a	-999	6	[0, 0, 0]	n/a	FR1	0	R1118N
716.352	2.818	1292404	REC_WORD	22.863	n/a	PIE	-999	6	[0, 0, 0]	n/a	FR1	0	R1118N
719.17	4.329	1295222	REC_WORD	25.681	n/a	FRUIT	-999	6	[0, 0, 0]	n/a	FR1	0	R1118N
723.499	2.028	1299551	REC_END	n/a	n/a	n/a	-999	6	[0, 0, 0]	n/a	FR1	0	R1118N
725.527	10.0	1301579	COUNTDOWN_START	n/a	n/a	n/a	-999	7	[0, 0, 0]	n/a	FR1	0	R1118N
725.527	10.428	1301579	TRIAL	n/a	n/a	n/a	-999	7	[0, 0, 0]	n/a	FR1	0	R1118N
735.955	0.007	1312007	COUNTDOWN_END	n/a	n/a	n/a	-999	7	[0, 0, 0]	n/a	FR1	0	R1118N
735.962	1.6	1312014	ORIENT	n/a	n/a	n/a	-999	7	[0, 0, 0]	n/a	FR1	0	R1118N
738.412	1.6	1314464	WORD	n/a	wordpools/wordpool_EN.txt	EGG	1	7	[0, 0, 0]	n/a	FR1	0	R1118N
741.029	1.6	1317080	WORD	n/a	wordpools/wordpool_EN.txt	FORK	2	7	[0, 0, 0]	n/a	FR1	0	R1118N
743.529	1.6	1319580	WORD	n/a	wordpools/wordpool_EN.txt	SLUSH	3	7	[0, 0, 0]	n/a	FR1	0	R1118N
746.148	1.6	1322199	WORD	n/a	wordpools/wordpool_EN.txt	SEAT	4	7	[0, 0, 0]	n/a	FR1	0	R1118N
748.58	1.6	1324631	WORD	n/a	wordpools/wordpool_EN.txt	PARK	5	7	[0, 0, 0]	n/a	FR1	0	R1118N
750.947	1.6	1326998	WORD	n/a	wordpools/wordpool_EN.txt	CAR	6	7	[0, 0, 0]	n/a	FR1	0	R1118N
753.331	1.6	1329382	WORD	n/a	wordpools/wordpool_EN.txt	DITCH	7	7	[0, 0, 0]	n/a	FR1	0	R1118N
755.815	1.6	1331866	WORD	n/a	wordpools/wordpool_EN.txt	GLOVE	8	7	[0, 0, 0]	n/a	FR1	0	R1118N
758.332	1.6	1334383	WORD	n/a	wordpools/wordpool_EN.txt	PANTS	9	7	[0, 0, 0]	n/a	FR1	0	R1118N
760.899	1.6	1336950	WORD	n/a	wordpools/wordpool_EN.txt	SQUARE	10	7	[0, 0, 0]	n/a	FR1	0	R1118N
763.333	1.6	1339384	WORD	n/a	wordpools/wordpool_EN.txt	LEG	11	7	[0, 0, 0]	n/a	FR1	0	R1118N
765.733	1.6	1341783	WORD	n/a	wordpools/wordpool_EN.txt	TRAIN	12	7	[0, 0, 0]	n/a	FR1	0	R1118N
767.35	0.001	1343400	DISTRACT_START	n/a	n/a	n/a	-999	7	[0, 0, 0]	n/a	FR1	0	R1118N
767.351	0.016	1343401	START	n/a	n/a	n/a	-999	7	[-999, -999, -999]	n/a	FR1	0	R1118N
767.367	7.251	1343417	PROB	7.231	n/a	n/a	-999	7	[4, 3, 2]	9.0	FR1	0	R1118N
774.618	5.851	1350668	PROB	5.82	n/a	n/a	-999	7	[4, 1, 7]	15.0	FR1	0	R1118N
780.469	5.651	1356519	PROB	5.618	n/a	n/a	-999	7	[9, 1, 4]	14.0	FR1	0	R1118N
786.12	2.686	1362170	PROB	2.686	n/a	n/a	-999	7	[3, 3, 2]	8.0	FR1	0	R1118N
788.806	0.014	1364856	STOP	n/a	n/a	n/a	-999	7	[-999, -999, -999]	n/a	FR1	0	R1118N
788.82	1.034	1364870	DISTRACT_END	n/a	n/a	n/a	-999	7	[0, 0, 0]	n/a	FR1	0	R1118N
789.854	1.977	1365904	REC_START	n/a	n/a	n/a	-999	7	[0, 0, 0]	n/a	FR1	0	R1118N
791.831	28.038	1367880	REC_WORD	1.977	n/a	EGG	-999	7	[0, 0, 0]	n/a	FR1	0	R1118N
819.869	2.523	1395917	REC_END	n/a	n/a	n/a	-999	7	[0, 0, 0]	n/a	FR1	0	R1118N
822.392	10.0	1398440	COUNTDOWN_START	n/a	n/a	n/a	-999	8	[0, 0, 0]	n/a	FR1	0	R1118N
822.393	10.427	1398441	TRIAL	n/a	n/a	n/a	-999	8	[0, 0, 0]	n/a	FR1	0	R1118N
832.82	0.008	1408868	COUNTDOWN_END	n/a	n/a	n/a	-999	8	[0, 0, 0]	n/a	FR1	0	R1118N
832.828	1.6	1408876	ORIENT	n/a	n/a	n/a	-999	8	[0, 0, 0]	n/a	FR1	0	R1118N
835.311	1.6	1411359	WORD	n/a	wordpools/wordpool_EN.txt	GRAPE	1	8	[0, 0, 0]	n/a	FR1	0	R1118N
837.795	1.6	1413843	WORD	n/a	wordpools/wordpool_EN.txt	SOAP	2	8	[0, 0, 0]	n/a	FR1	0	R1118N
840.379	1.6	1416427	WORD	n/a	wordpools/wordpool_EN.txt	FISH	3	8	[0, 0, 0]	n/a	FR1	0	R1118N
842.796	1.6	1418844	WORD	n/a	wordpools/wordpool_EN.txt	SHRIMP	4	8	[0, 0, 0]	n/a	FR1	0	R1118N
845.363	1.6	1421410	WORD	n/a	wordpools/wordpool_EN.txt	BEAN	5	8	[0, 0, 0]	n/a	FR1	0	R1118N
847.963	1.6	1424010	WORD	n/a	wordpools/wordpool_EN.txt	SPRING	6	8	[0, 0, 0]	n/a	FR1	0	R1118N
850.547	1.6	1426594	WORD	n/a	wordpools/wordpool_EN.txt	LIP	7	8	[0, 0, 0]	n/a	FR1	0	R1118N
853.081	1.6	1429128	WORD	n/a	wordpools/wordpool_EN.txt	RIB	8	8	[0, 0, 0]	n/a	FR1	0	R1118N
855.531	1.6	1431578	WORD	n/a	wordpools/wordpool_EN.txt	RICE	9	8	[0, 0, 0]	n/a	FR1	0	R1118N
858.015	1.6	1434062	WORD	n/a	wordpools/wordpool_EN.txt	DIME	10	8	[0, 0, 0]	n/a	FR1	0	R1118N
860.599	1.6	1436646	WORD	n/a	wordpools/wordpool_EN.txt	STEM	11	8	[0, 0, 0]	n/a	FR1	0	R1118N
863.2	1.6	1439247	WORD	n/a	wordpools/wordpool_EN.txt	LEAF	12	8	[0, 0, 0]	n/a	FR1	0	R1118N
864.816	0.001	1440863	DISTRACT_START	n/a	n/a	n/a	-999	8	[0, 0, 0]	n/a	FR1	0	R1118N
864.817	0.016	1440864	START	n/a	n/a	n/a	-999	8	[-999, -999, -999]	n/a	FR1	0	R1118N
864.833	18.086	1440880	PROB	18.053	n/a	n/a	-999	8	[5, 9, 6]	20.0	FR1	0	R1118N
882.919	2.88	1458965	PROB	2.88	n/a	n/a	-999	8	[3, 7, 2]	12.0	FR1	0	R1118N
885.799	0.004	1461845	STOP	n/a	n/a	n/a	-999	8	[-999, -999, -999]	n/a	FR1	0	R1118N
885.803	1.101	1461849	DISTRACT_END	n/a	n/a	n/a	-999	8	[0, 0, 0]	n/a	FR1	0	R1118N
886.904	4.355	1462950	REC_START	n/a	n/a	n/a	-999	8	[0, 0, 0]	n/a	FR1	0	R1118N
891.259	1.144	1467305	REC_WORD	4.355	n/a	EGG	-999	8	[0, 0, 0]	n/a	FR1	0	R1118N
892.403	2.681	1468449	REC_WORD	5.499	n/a	FISH	-999	8	[0, 0, 0]	n/a	FR1	0	R1118N
895.084	1.179	1471129	REC_WORD	8.18	n/a	BEAN	-999	8	[0, 0, 0]	n/a	FR1	0	R1118N
896.263	20.651	1472308	REC_WORD	9.359	n/a	SPRING	-999	8	[0, 0, 0]	n/a	FR1	0	R1118N
916.914	2.528	1492959	REC_END	n/a	n/a	n/a	-999	8	[0, 0, 0]	n/a	FR1	0	R1118N
919.442	0.0	1495487	TRIAL	n/a	n/a	n/a	-999	9	[0, 0, 0]	n/a	FR1	0	R1118N
919.442	10.0	1495487	COUNTDOWN_START	n/a	n/a	n/a	-999	9	[0, 0, 0]	n/a	FR1	0	R1118N
929.87	0.007	1505914	COUNTDOWN_END	n/a	n/a	n/a	-999	9	[0, 0, 0]	n/a	FR1	0	R1118N
929.877	1.6	1505921	ORIENT	n/a	n/a	n/a	-999	9	[0, 0, 0]	n/a	FR1	0	R1118N
932.461	1.6	1508505	WORD	n/a	wordpools/wordpool_EN.txt	RAT	1	9	[0, 0, 0]	n/a	FR1	0	R1118N
934.978	1.6	1511022	WORD	n/a	wordpools/wordpool_EN.txt	BROOM	2	9	[0, 0, 0]	n/a	FR1	0	R1118N
937.562	1.6	1513606	WORD	n/a	wordpools/wordpool_EN.txt	OWL	3	9	[0, 0, 0]	n/a	FR1	0	R1118N
940.029	1.6	1516073	WORD	n/a	wordpools/wordpool_EN.txt	HEN	4	9	[0, 0, 0]	n/a	FR1	0	R1118N
942.496	1.6	1518540	WORD	n/a	wordpools/wordpool_EN.txt	ANT	5	9	[0, 0, 0]	n/a	FR1	0	R1118N
944.929	1.6	1520973	WORD	n/a	wordpools/wordpool_EN.txt	ROPE	6	9	[0, 0, 0]	n/a	FR1	0	R1118N
947.33	1.6	1523373	WORD	n/a	wordpools/wordpool_EN.txt	STRING	7	9	[0, 0, 0]	n/a	FR1	0	R1118N
949.947	1.6	1525990	WORD	n/a	wordpools/wordpool_EN.txt	KITE	8	9	[0, 0, 0]	n/a	FR1	0	R1118N
952.531	1.6	1528574	WORD	n/a	wordpools/wordpool_EN.txt	FOX	9	9	[0, 0, 0]	n/a	FR1	0	R1118N
954.948	1.6	1530991	WORD	n/a	wordpools/wordpool_EN.txt	CHIN	10	9	[0, 0, 0]	n/a	FR1	0	R1118N
957.431	1.6	1533474	WORD	n/a	wordpools/wordpool_EN.txt	ROOF	11	9	[0, 0, 0]	n/a	FR1	0	R1118N
959.998	1.6	1536041	WORD	n/a	wordpools/wordpool_EN.txt	THUMB	12	9	[0, 0, 0]	n/a	FR1	0	R1118N
961.615	0.001	1537658	DISTRACT_START	n/a	n/a	n/a	-999	9	[0, 0, 0]	n/a	FR1	0	R1118N
961.616	0.016	1537659	START	n/a	n/a	n/a	-999	9	[-999, -999, -999]	n/a	FR1	0	R1118N
961.632	5.934	1537675	PROB	5.902	n/a	n/a	-999	9	[7, 7, 3]	17.0	FR1	0	R1118N
967.566	4.835	1543609	PROB	4.808	n/a	n/a	-999	9	[2, 5, 4]	11.0	FR1	0	R1118N
972.401	4.3	1548444	PROB	4.269	n/a	n/a	-999	9	[4, 4, 8]	20.0	FR1	0	R1118N
976.701	5.451	1552743	PROB	5.451	n/a	n/a	-999	9	[9, 7, 2]	18.0	FR1	0	R1118N
982.152	0.017	1558194	STOP	n/a	n/a	n/a	-999	9	[-999, -999, -999]	n/a	FR1	0	R1118N
982.169	1.201	1558211	DISTRACT_END	n/a	n/a	n/a	-999	9	[0, 0, 0]	n/a	FR1	0	R1118N
983.37	10.893	1559412	REC_START	n/a	n/a	n/a	-999	9	[0, 0, 0]	n/a	FR1	0	R1118N
994.263	1.072	1570305	REC_WORD	10.893	n/a	RAT	-999	9	[0, 0, 0]	n/a	FR1	0	R1118N
995.335	2.209	1571377	REC_WORD	11.965	n/a	BROOM	-999	9	[0, 0, 0]	n/a	FR1	0	R1118N
997.544	2.95	1573586	REC_WORD	14.174	n/a	HOLE	-999	9	[0, 0, 0]	n/a	FR1	0	R1118N
1000.494	12.886	1576535	REC_WORD	17.124	n/a	KITE	-999	9	[0, 0, 0]	n/a	FR1	0	R1118N
1013.38	2.644	1589421	REC_END	n/a	n/a	n/a	-999	9	[0, 0, 0]	n/a	FR1	0	R1118N
1016.024	10.0	1592065	COUNTDOWN_START	n/a	n/a	n/a	-999	10	[0, 0, 0]	n/a	FR1	0	R1118N
1016.025	10.427	1592066	TRIAL	n/a	n/a	n/a	-999	10	[0, 0, 0]	n/a	FR1	0	R1118N
1026.452	0.007	1602492	COUNTDOWN_END	n/a	n/a	n/a	-999	10	[0, 0, 0]	n/a	FR1	0	R1118N
1026.459	1.6	1602499	ORIENT	n/a	n/a	n/a	-999	10	[0, 0, 0]	n/a	FR1	0	R1118N
1029.043	1.6	1605083	WORD	n/a	wordpools/wordpool_EN.txt	SNOW	1	10	[0, 0, 0]	n/a	FR1	0	R1118N
1031.494	1.6	1607534	WORD	n/a	wordpools/wordpool_EN.txt	BLOOM	2	10	[0, 0, 0]	n/a	FR1	0	R1118N
1034.111	1.6	1610151	WORD	n/a	wordpools/wordpool_EN.txt	FLAME	3	10	[0, 0, 0]	n/a	FR1	0	R1118N
1036.628	1.6	1612668	WORD	n/a	wordpools/wordpool_EN.txt	FOG	4	10	[0, 0, 0]	n/a	FR1	0	R1118N
1039.078	1.6	1615118	WORD	n/a	wordpools/wordpool_EN.txt	CLOUD	5	10	[0, 0, 0]	n/a	FR1	0	R1118N
1041.529	1.6	1617569	WORD	n/a	wordpools/wordpool_EN.txt	PIT	6	10	[0, 0, 0]	n/a	FR1	0	R1118N
1044.147	1.6	1620187	WORD	n/a	wordpools/wordpool_EN.txt	POND	7	10	[0, 0, 0]	n/a	FR1	0	R1118N
1046.763	1.6	1622803	WORD	n/a	wordpools/wordpool_EN.txt	CROW	8	10	[0, 0, 0]	n/a	FR1	0	R1118N
1049.263	1.6	1625303	WORD	n/a	wordpools/wordpool_EN.txt	LAKE	9	10	[0, 0, 0]	n/a	FR1	0	R1118N
1051.88	1.6	1627919	WORD	n/a	wordpools/wordpool_EN.txt	MAT	10	10	[0, 0, 0]	n/a	FR1	0	R1118N
1054.414	1.6	1630453	WORD	n/a	wordpools/wordpool_EN.txt	CUBE	11	10	[0, 0, 0]	n/a	FR1	0	R1118N
1056.948	1.6	1632987	WORD	n/a	wordpools/wordpool_EN.txt	JEEP	12	10	[0, 0, 0]	n/a	FR1	0	R1118N
1058.565	0.001	1634604	DISTRACT_START	n/a	n/a	n/a	-999	10	[0, 0, 0]	n/a	FR1	0	R1118N
1058.566	0.015	1634605	START	n/a	n/a	n/a	-999	10	[-999, -999, -999]	n/a	FR1	0	R1118N
1058.581	4.651	1634620	PROB	4.618	n/a	n/a	-999	10	[7, 6, 1]	14.0	FR1	0	R1118N
1063.232	2.667	1639271	PROB	2.638	n/a	n/a	-999	10	[4, 5, 5]	14.0	FR1	0	R1118N
1065.899	10.385	1641938	PROB	10.363	n/a	n/a	-999	10	[4, 5, 3]	8.0	FR1	0	R1118N
1076.284	2.563	1652323	PROB	2.563	n/a	n/a	-999	10	[6, 2, 1]	9.0	FR1	0	R1118N
1078.847	0.004	1654885	STOP	n/a	n/a	n/a	-999	10	[-999, -999, -999]	n/a	FR1	0	R1118N
1078.851	1.219	1654889	DISTRACT_END	n/a	n/a	n/a	-999	10	[0, 0, 0]	n/a	FR1	0	R1118N
1080.07	3.638	1656108	REC_START	n/a	n/a	n/a	-999	10	[0, 0, 0]	n/a	FR1	0	R1118N
1083.708	1.137	1659746	REC_WORD	3.638	n/a	SNOW	-999	10	[0, 0, 0]	n/a	FR1	0	R1118N
1084.845	2.697	1660883	REC_WORD	4.775	n/a	BLOOM	-999	10	[0, 0, 0]	n/a	FR1	0	R1118N
1087.542	5.172	1663580	REC_WORD	7.472	n/a	KITE	-999	10	[0, 0, 0]	n/a	FR1	0	R1118N
1092.714	2.607	1668752	REC_WORD	12.644	n/a	MATE	-999	10	[0, 0, 0]	n/a	FR1	0	R1118N
1095.321	8.406	1671359	REC_WORD	15.251	n/a	FORK	-999	10	[0, 0, 0]	n/a	FR1	0	R1118N
1103.727	6.351	1679764	REC_WORD	23.657	n/a	CUBE	-999	10	[0, 0, 0]	n/a	FR1	0	R1118N
1110.078	2.196	1686115	REC_END	n/a	n/a	n/a	-999	10	[0, 0, 0]	n/a	FR1	0	R1118N
1112.274	10.0	1688311	COUNTDOWN_START	n/a	n/a	n/a	-999	11	[0, 0, 0]	n/a	FR1	0	R1118N
1112.274	10.428	1688311	TRIAL	n/a	n/a	n/a	-999	11	[0, 0, 0]	n/a	FR1	0	R1118N
1122.702	0.007	1698739	COUNTDOWN_END	n/a	n/a	n/a	-999	11	[0, 0, 0]	n/a	FR1	0	R1118N
1122.709	1.6	1698746	ORIENT	n/a	n/a	n/a	-999	11	[0, 0, 0]	n/a	FR1	0	R1118N
1125.242	1.6	1701279	WORD	n/a	wordpools/wordpool_EN.txt	SUIT	1	11	[0, 0, 0]	n/a	FR1	0	R1118N
1127.776	1.6	1703813	WORD	n/a	wordpools/wordpool_EN.txt	EAR	2	11	[0, 0, 0]	n/a	FR1	0	R1118N
1130.161	1.6	1706197	WORD	n/a	wordpools/wordpool_EN.txt	SWORD	3	11	[0, 0, 0]	n/a	FR1	0	R1118N
1132.577	1.6	1708613	WORD	n/a	wordpools/wordpool_EN.txt	CLOCK	4	11	[0, 0, 0]	n/a	FR1	0	R1118N
1135.111	1.6	1711147	WORD	n/a	wordpools/wordpool_EN.txt	PHONE	5	11	[0, 0, 0]	n/a	FR1	0	R1118N
1137.644	1.6	1713680	WORD	n/a	wordpools/wordpool_EN.txt	GATE	6	11	[0, 0, 0]	n/a	FR1	0	R1118N
1140.078	1.6	1716114	WORD	n/a	wordpools/wordpool_EN.txt	BOOK	7	11	[0, 0, 0]	n/a	FR1	0	R1118N
1142.629	1.6	1718665	WORD	n/a	wordpools/wordpool_EN.txt	MOUTH	8	11	[0, 0, 0]	n/a	FR1	0	R1118N
1145.112	1.6	1721148	WORD	n/a	wordpools/wordpool_EN.txt	BOY	9	11	[0, 0, 0]	n/a	FR1	0	R1118N
1147.729	1.6	1723765	WORD	n/a	wordpools/wordpool_EN.txt	HOUSE	10	11	[0, 0, 0]	n/a	FR1	0	R1118N
1150.164	1.6	1726200	WORD	n/a	wordpools/wordpool_EN.txt	BLUSH	11	11	[0, 0, 0]	n/a	FR1	0	R1118N
1152.564	1.6	1728600	WORD	n/a	wordpools/wordpool_EN.txt	VAN	12	11	[0, 0, 0]	n/a	FR1	0	R1118N
1154.182	0.0	1730218	DISTRACT_START	n/a	n/a	n/a	-999	11	[0, 0, 0]	n/a	FR1	0	R1118N
1154.182	0.016	1730218	START	n/a	n/a	n/a	-999	11	[-999, -999, -999]	n/a	FR1	0	R1118N
1154.198	5.25	1730234	PROB	5.224	n/a	n/a	-999	11	[1, 5, 2]	8.0	FR1	0	R1118N
1159.448	4.667	1735483	PROB	4.646	n/a	n/a	-999	11	[6, 5, 1]	12.0	FR1	0	R1118N
1164.115	5.235	1740150	PROB	5.211	n/a	n/a	-999	11	[5, 4, 6]	15.0	FR1	0	R1118N
1169.35	10.36	1745385	PROB	10.36	n/a	n/a	-999	11	[5, 9, 7]	21.0	FR1	0	R1118N
1179.71	0.008	1755745	STOP	n/a	n/a	n/a	-999	11	[-999, -999, -999]	n/a	FR1	0	R1118N
1179.718	1.101	1755753	DISTRACT_END	n/a	n/a	n/a	-999	11	[0, 0, 0]	n/a	FR1	0	R1118N
1180.819	5.707	1756854	REC_START	n/a	n/a	n/a	-999	11	[0, 0, 0]	n/a	FR1	0	R1118N
1186.526	1.738	1762560	REC_WORD	5.707	n/a	BLUSH	-999	11	[0, 0, 0]	n/a	FR1	0	R1118N
1188.264	2.873	1764298	REC_WORD	7.445	n/a	BLOOM	-999	11	[0, 0, 0]	n/a	FR1	0	R1118N
1191.137	9.808	1767171	REC_WORD	10.318	n/a	FORK	-999	11	[0, 0, 0]	n/a	FR1	0	R1118N
1200.945	9.884	1776979	REC_WORD	20.126	n/a	FOX	-999	11	[0, 0, 0]	n/a	FR1	0	R1118N
1210.829	2.228	1786862	REC_END	n/a	n/a	n/a	-999	11	[0, 0, 0]	n/a	FR1	0	R1118N
1213.057	0.0	1789090	TRIAL	n/a	n/a	n/a	-999	12	[0, 0, 0]	n/a	FR1	0	R1118N
1213.057	10.0	1789090	COUNTDOWN_START	n/a	n/a	n/a	-999	12	[0, 0, 0]	n/a	FR1	0	R1118N
1223.485	0.007	1799518	COUNTDOWN_END	n/a	n/a	n/a	-999	12	[0, 0, 0]	n/a	FR1	0	R1118N
1223.492	1.6	1799525	ORIENT	n/a	n/a	n/a	-999	12	[0, 0, 0]	n/a	FR1	0	R1118N
1226.092	1.6	1802125	WORD	n/a	wordpools/wordpool_EN.txt	BEE	1	12	[0, 0, 0]	n/a	FR1	0	R1118N
1228.643	1.6	1804676	WORD	n/a	wordpools/wordpool_EN.txt	STORE	2	12	[0, 0, 0]	n/a	FR1	0	R1118N
1231.161	1.6	1807194	WORD	n/a	wordpools/wordpool_EN.txt	TRASH	3	12	[0, 0, 0]	n/a	FR1	0	R1118N
1233.694	1.6	1809726	WORD	n/a	wordpools/wordpool_EN.txt	APE	4	12	[0, 0, 0]	n/a	FR1	0	R1118N
1236.145	1.6	1812177	WORD	n/a	wordpools/wordpool_EN.txt	SMOKE	5	12	[0, 0, 0]	n/a	FR1	0	R1118N
1238.711	1.6	1814743	WORD	n/a	wordpools/wordpool_EN.txt	MOUSE	6	12	[0, 0, 0]	n/a	FR1	0	R1118N
1241.245	1.6	1817277	WORD	n/a	wordpools/wordpool_EN.txt	BANK	7	12	[0, 0, 0]	n/a	FR1	0	R1118N
1243.712	1.6	1819744	WORD	n/a	wordpools/wordpool_EN.txt	NET	8	12	[0, 0, 0]	n/a	FR1	0	R1118N
1246.146	1.6	1822178	WORD	n/a	wordpools/wordpool_EN.txt	MILK	9	12	[0, 0, 0]	n/a	FR1	0	R1118N
1248.696	1.6	1824728	WORD	n/a	wordpools/wordpool_EN.txt	CAT	10	12	[0, 0, 0]	n/a	FR1	0	R1118N
1251.28	1.6	1827312	WORD	n/a	wordpools/wordpool_EN.txt	CASH	11	12	[0, 0, 0]	n/a	FR1	0	R1118N
1253.697	1.6	1829729	WORD	n/a	wordpools/wordpool_EN.txt	HEART	12	12	[0, 0, 0]	n/a	FR1	0	R1118N
1255.314	0.001	1831346	DISTRACT_START	n/a	n/a	n/a	-999	12	[0, 0, 0]	n/a	FR1	0	R1118N
1255.315	0.016	1831347	START	n/a	n/a	n/a	-999	12	[-999, -999, -999]	n/a	FR1	0	R1118N
1255.331	3.95	1831363	PROB	3.923	n/a	n/a	-999	12	[1, 2, 2]	5.0	FR1	0	R1118N
1259.281	14.669	1835313	PROB	14.645	n/a	n/a	-999	12	[9, 3, 2]	15.0	FR1	0	R1118N
1273.95	4.048	1849981	PROB	4.048	n/a	n/a	-999	12	[2, 8, 6]	16.0	FR1	0	R1118N
1277.998	0.02	1854029	STOP	n/a	n/a	n/a	-999	12	[-999, -999, -999]	n/a	FR1	0	R1118N
1278.018	1.085	1854049	DISTRACT_END	n/a	n/a	n/a	-999	12	[0, 0, 0]	n/a	FR1	0	R1118N
1279.103	9.153	1855134	REC_START	n/a	n/a	n/a	-999	12	[0, 0, 0]	n/a	FR1	0	R1118N
1288.256	3.846	1864286	REC_WORD	9.153	n/a	APE	-999	12	[0, 0, 0]	n/a	FR1	0	R1118N
1292.102	1.082	1868132	REC_WORD	12.999	n/a	MILK	-999	12	[0, 0, 0]	n/a	FR1	0	R1118N
1293.184	2.373	1869214	REC_WORD	14.081	n/a	CAT	-999	12	[0, 0, 0]	n/a	FR1	0	R1118N
1295.557	3.627	1871587	REC_WORD	16.454	n/a	TRASH	-999	12	[0, 0, 0]	n/a	FR1	0	R1118N
1299.184	2.389	1875214	REC_WORD	20.081	n/a	BEE	-999	12	[0, 0, 0]	n/a	FR1	0	R1118N
1301.573	7.539	1877603	REC_WORD	22.47	n/a	STORE	-999	12	[0, 0, 0]	n/a	FR1	0	R1118N
1309.112	2.278	1885142	REC_END	n/a	n/a	n/a	-999	12	[0, 0, 0]	n/a	FR1	0	R1118N
1311.39	10.0	1887420	COUNTDOWN_START	n/a	n/a	n/a	-999	13	[0, 0, 0]	n/a	FR1	0	R1118N
1311.39	10.428	1887420	TRIAL	n/a	n/a	n/a	-999	13	[0, 0, 0]	n/a	FR1	0	R1118N
1321.818	0.007	1897847	COUNTDOWN_END	n/a	n/a	n/a	-999	13	[0, 0, 0]	n/a	FR1	0	R1118N
1321.825	1.6	1897854	ORIENT	n/a	n/a	n/a	-999	13	[0, 0, 0]	n/a	FR1	0	R1118N
1324.359	1.6	1900388	WORD	n/a	wordpools/wordpool_EN.txt	TOAD	1	13	[0, 0, 0]	n/a	FR1	0	R1118N
1326.909	1.6	1902938	WORD	n/a	wordpools/wordpool_EN.txt	MUD	2	13	[0, 0, 0]	n/a	FR1	0	R1118N
1329.326	1.6	1905355	WORD	n/a	wordpools/wordpool_EN.txt	PLANT	3	13	[0, 0, 0]	n/a	FR1	0	R1118N
1331.726	1.6	1907755	WORD	n/a	wordpools/wordpool_EN.txt	FUDGE	4	13	[0, 0, 0]	n/a	FR1	0	R1118N
1334.277	1.6	1910306	WORD	n/a	wordpools/wordpool_EN.txt	TANK	5	13	[0, 0, 0]	n/a	FR1	0	R1118N
1336.694	1.6	1912723	WORD	n/a	wordpools/wordpool_EN.txt	BOARD	6	13	[0, 0, 0]	n/a	FR1	0	R1118N
1339.145	1.6	1915173	WORD	n/a	wordpools/wordpool_EN.txt	SAIL	7	13	[0, 0, 0]	n/a	FR1	0	R1118N
1341.745	1.6	1917773	WORD	n/a	wordpools/wordpool_EN.txt	SPONGE	8	13	[0, 0, 0]	n/a	FR1	0	R1118N
1344.18	1.6	1920208	WORD	n/a	wordpools/wordpool_EN.txt	JET	9	13	[0, 0, 0]	n/a	FR1	0	R1118N
1346.562	1.6	1922590	WORD	n/a	wordpools/wordpool_EN.txt	SPARK	10	13	[0, 0, 0]	n/a	FR1	0	R1118N
1349.046	1.6	1925074	WORD	n/a	wordpools/wordpool_EN.txt	SEA	11	13	[0, 0, 0]	n/a	FR1	0	R1118N
1351.463	1.6	1927491	WORD	n/a	wordpools/wordpool_EN.txt	STEAM	12	13	[0, 0, 0]	n/a	FR1	0	R1118N
1353.08	0.001	1929108	DISTRACT_START	n/a	n/a	n/a	-999	13	[0, 0, 0]	n/a	FR1	0	R1118N
1353.081	0.016	1929109	START	n/a	n/a	n/a	-999	13	[-999, -999, -999]	n/a	FR1	0	R1118N
1353.097	4.484	1929125	PROB	4.462	n/a	n/a	-999	13	[2, 9, 9]	20.0	FR1	0	R1118N
1357.581	3.3	1933609	PROB	3.265	n/a	n/a	-999	13	[6, 4, 6]	16.0	FR1	0	R1118N
1360.881	4.068	1936909	PROB	4.037	n/a	n/a	-999	13	[3, 4, 7]	14.0	FR1	0	R1118N
1364.949	4.984	1940976	PROB	4.953	n/a	n/a	-999	13	[8, 5, 2]	15.0	FR1	0	R1118N
1369.933	6.537	1945960	PROB	6.537	n/a	n/a	-999	13	[9, 2, 1]	13.0	FR1	0	R1118N
1376.47	0.014	1952497	STOP	n/a	n/a	n/a	-999	13	[-999, -999, -999]	n/a	FR1	0	R1118N
1376.484	1.217	1952511	DISTRACT_END	n/a	n/a	n/a	-999	13	[0, 0, 0]	n/a	FR1	0	R1118N
1377.701	4.59	1953728	REC_START	n/a	n/a	n/a	-999	13	[0, 0, 0]	n/a	FR1	0	R1118N
1382.291	2.454	1958318	REC_WORD	4.59	n/a	CART	-999	13	[0, 0, 0]	n/a	FR1	0	R1118N
1384.745	3.437	1960772	REC_WORD	7.044	n/a	SNOW	-999	13	[0, 0, 0]	n/a	FR1	0	R1118N
1388.182	5.184	1964209	REC_WORD	10.481	n/a	PLOW	-999	13	[0, 0, 0]	n/a	FR1	0	R1118N
1393.366	14.345	1969392	REC_WORD	15.665	n/a	PUSH	-999	13	[0, 0, 0]	n/a	FR1	0	R1118N
1407.711	2.645	1983737	REC_END	n/a	n/a	n/a	-999	13	[0, 0, 0]	n/a	FR1	0	R1118N
1410.356	0.0	1986382	TRIAL	n/a	n/a	n/a	-999	14	[0, 0, 0]	n/a	FR1	0	R1118N
1410.356	10.0	1986382	COUNTDOWN_START	n/a	n/a	n/a	-999	14	[0, 0, 0]	n/a	FR1	0	R1118N
1420.784	0.007	1996809	COUNTDOWN_END	n/a	n/a	n/a	-999	14	[0, 0, 0]	n/a	FR1	0	R1118N
1420.791	1.6	1996816	ORIENT	n/a	n/a	n/a	-999	14	[0, 0, 0]	n/a	FR1	0	R1118N
1423.275	1.6	1999300	WORD	n/a	wordpools/wordpool_EN.txt	CORN	1	14	[0, 0, 0]	n/a	FR1	0	R1118N
1425.725	1.6	2001750	WORD	n/a	wordpools/wordpool_EN.txt	SMILE	2	14	[0, 0, 0]	n/a	FR1	0	R1118N
1428.126	1.6	2004151	WORD	n/a	wordpools/wordpool_EN.txt	SKY	3	14	[0, 0, 0]	n/a	FR1	0	R1118N
1430.543	1.6	2006568	WORD	n/a	wordpools/wordpool_EN.txt	VASE	4	14	[0, 0, 0]	n/a	FR1	0	R1118N
1433.077	1.6	2009102	WORD	n/a	wordpools/wordpool_EN.txt	BOWL	5	14	[0, 0, 0]	n/a	FR1	0	R1118N
1435.643	1.6	2011668	WORD	n/a	wordpools/wordpool_EN.txt	BAND	6	14	[0, 0, 0]	n/a	FR1	0	R1118N
1438.162	1.6	2014187	WORD	n/a	wordpools/wordpool_EN.txt	OAR	7	14	[0, 0, 0]	n/a	FR1	0	R1118N
1440.594	1.6	2016619	WORD	n/a	wordpools/wordpool_EN.txt	CHAIR	8	14	[0, 0, 0]	n/a	FR1	0	R1118N
1443.062	1.6	2019086	WORD	n/a	wordpools/wordpool_EN.txt	STEAK	9	14	[0, 0, 0]	n/a	FR1	0	R1118N
1445.529	1.6	2021553	WORD	n/a	wordpools/wordpool_EN.txt	BENCH	10	14	[0, 0, 0]	n/a	FR1	0	R1118N
1448.147	1.6	2024171	WORD	n/a	wordpools/wordpool_EN.txt	LAMP	11	14	[0, 0, 0]	n/a	FR1	0	R1118N
1450.563	1.6	2026587	WORD	n/a	wordpools/wordpool_EN.txt	HOOK	12	14	[0, 0, 0]	n/a	FR1	0	R1118N
1452.164	0.001	2028188	DISTRACT_START	n/a	n/a	n/a	-999	14	[0, 0, 0]	n/a	FR1	0	R1118N
1452.165	0.016	2028189	START	n/a	n/a	n/a	-999	14	[-999, -999, -999]	n/a	FR1	0	R1118N
1452.181	11.217	2028205	PROB	11.185	n/a	n/a	-999	14	[6, 7, 9]	22.0	FR1	0	R1118N
1463.398	4.769	2039422	PROB	4.737	n/a	n/a	-999	14	[5, 7, 5]	17.0	FR1	0	R1118N
1468.167	3.549	2044190	PROB	3.527	n/a	n/a	-999	14	[8, 4, 4]	16.0	FR1	0	R1118N
1471.716	4.946	2047739	PROB	4.946	n/a	n/a	-999	14	[2, 8, 3]	13.0	FR1	0	R1118N
1476.662	0.005	2052685	STOP	n/a	n/a	n/a	-999	14	[-999, -999, -999]	n/a	FR1	0	R1118N
1476.667	1.084	2052690	DISTRACT_END	n/a	n/a	n/a	-999	14	[0, 0, 0]	n/a	FR1	0	R1118N
1477.751	6.759	2053774	REC_START	n/a	n/a	n/a	-999	14	[0, 0, 0]	n/a	FR1	0	R1118N
1484.51	6.844	2060533	REC_WORD	6.759	n/a	OAR	-999	14	[0, 0, 0]	n/a	FR1	0	R1118N
1491.354	4.438	2067377	REC_WORD	13.603	n/a	STEAK	-999	14	[0, 0, 0]	n/a	FR1	0	R1118N
1495.792	5.623	2071814	REC_WORD	18.041	n/a	CUBE	-999	14	[0, 0, 0]	n/a	FR1	0	R1118N
1501.415	1.046	2077437	REC_WORD	23.664	n/a	CORN	-999	14	[0, 0, 0]	n/a	FR1	0	R1118N
1502.461	5.304	2078483	REC_WORD	24.71	n/a	SMILE	-999	14	[0, 0, 0]	n/a	FR1	0	R1118N
1507.765	2.624	2083787	REC_END	n/a	n/a	n/a	-999	14	[0, 0, 0]	n/a	FR1	0	R1118N
1510.389	0.0	2086411	TRIAL	n/a	n/a	n/a	-999	15	[0, 0, 0]	n/a	FR1	0	R1118N
1510.389	10.0	2086411	COUNTDOWN_START	n/a	n/a	n/a	-999	15	[0, 0, 0]	n/a	FR1	0	R1118N
1520.817	0.007	2096838	COUNTDOWN_END	n/a	n/a	n/a	-999	15	[0, 0, 0]	n/a	FR1	0	R1118N
1520.824	1.6	2096845	ORIENT	n/a	n/a	n/a	-999	15	[0, 0, 0]	n/a	FR1	0	R1118N
1523.258	1.6	2099279	WORD	n/a	wordpools/wordpool_EN.txt	STAR	1	15	[0, 0, 0]	n/a	FR1	0	R1118N
1525.859	1.6	2101880	WORD	n/a	wordpools/wordpool_EN.txt	SCHOOL	2	15	[0, 0, 0]	n/a	FR1	0	R1118N
1528.459	1.6	2104480	WORD	n/a	wordpools/wordpool_EN.txt	FLAG	3	15	[0, 0, 0]	n/a	FR1	0	R1118N
1530.843	1.6	2106864	WORD	n/a	wordpools/wordpool_EN.txt	VEST	4	15	[0, 0, 0]	n/a	FR1	0	R1118N
1533.293	1.6	2109314	WORD	n/a	wordpools/wordpool_EN.txt	BRIDGE	5	15	[0, 0, 0]	n/a	FR1	0	R1118N
1535.744	1.6	2111765	WORD	n/a	wordpools/wordpool_EN.txt	CLIFF	6	15	[0, 0, 0]	n/a	FR1	0	R1118N
1538.127	1.6	2114148	WORD	n/a	wordpools/wordpool_EN.txt	FACE	7	15	[0, 0, 0]	n/a	FR1	0	R1118N
1540.628	1.6	2116649	WORD	n/a	wordpools/wordpool_EN.txt	FORT	8	15	[0, 0, 0]	n/a	FR1	0	R1118N
1543.128	1.6	2119149	WORD	n/a	wordpools/wordpool_EN.txt	LAND	9	15	[0, 0, 0]	n/a	FR1	0	R1118N
1545.595	1.6	2121616	WORD	n/a	wordpools/wordpool_EN.txt	CHIEF	10	15	[0, 0, 0]	n/a	FR1	0	R1118N
1547.995	1.6	2124015	WORD	n/a	wordpools/wordpool_EN.txt	PEA	11	15	[0, 0, 0]	n/a	FR1	0	R1118N
1550.496	1.6	2126516	WORD	n/a	wordpools/wordpool_EN.txt	ROAD	12	15	[0, 0, 0]	n/a	FR1	0	R1118N
1552.113	0.001	2128133	DISTRACT_START	n/a	n/a	n/a	-999	15	[0, 0, 0]	n/a	FR1	0	R1118N
1552.114	0.015	2128134	START	n/a	n/a	n/a	-999	15	[-999, -999, -999]	n/a	FR1	0	R1118N
1552.129	4.101	2128149	PROB	4.078	n/a	n/a	-999	15	[7, 1, 2]	10.0	FR1	0	R1118N
1556.23	4.568	2132250	PROB	4.544	n/a	n/a	-999	15	[5, 6, 2]	13.0	FR1	0	R1118N
1560.798	2.183	2136818	PROB	2.153	n/a	n/a	-999	15	[1, 4, 3]	8.0	FR1	0	R1118N
1562.981	3.384	2139001	PROB	3.353	n/a	n/a	-999	15	[6, 6, 2]	14.0	FR1	0	R1118N
1566.365	7.842	2142385	PROB	7.842	n/a	n/a	-999	15	[7, 9, 3]	12.0	FR1	0	R1118N
1574.207	0.009	2150226	STOP	n/a	n/a	n/a	-999	15	[-999, -999, -999]	n/a	FR1	0	R1118N
1574.216	1.035	2150235	DISTRACT_END	n/a	n/a	n/a	-999	15	[0, 0, 0]	n/a	FR1	0	R1118N
1575.251	12.077	2151270	REC_START	n/a	n/a	n/a	-999	15	[0, 0, 0]	n/a	FR1	0	R1118N
1587.328	5.199	2163347	REC_WORD	12.077	n/a	OAR	-999	15	[0, 0, 0]	n/a	FR1	0	R1118N
1592.527	1.184	2168546	REC_WORD	17.276	n/a	FROG	-999	15	[0, 0, 0]	n/a	FR1	0	R1118N
1593.711	2.807	2169730	REC_WORD	18.46	n/a	PLANT	-999	15	[0, 0, 0]	n/a	FR1	0	R1118N
1596.518	8.743	2172537	REC_WORD	21.267	n/a	SMILE	-999	15	[0, 0, 0]	n/a	FR1	0	R1118N
1605.261	2.578	2181279	REC_END	n/a	n/a	n/a	-999	15	[0, 0, 0]	n/a	FR1	0	R1118N
1607.839	0.0	2183857	TRIAL	n/a	n/a	n/a	-999	16	[0, 0, 0]	n/a	FR1	0	R1118N
1607.839	10.0	2183857	COUNTDOWN_START	n/a	n/a	n/a	-999	16	[0, 0, 0]	n/a	FR1	0	R1118N
1618.267	0.007	2194285	COUNTDOWN_END	n/a	n/a	n/a	-999	16	[0, 0, 0]	n/a	FR1	0	R1118N
1618.274	1.6	2194292	ORIENT	n/a	n/a	n/a	-999	16	[0, 0, 0]	n/a	FR1	0	R1118N
1620.657	1.6	2196675	WORD	n/a	wordpools/wordpool_EN.txt	CAVE	1	16	[0, 0, 0]	n/a	FR1	0	R1118N
1623.291	1.6	2199309	WORD	n/a	wordpools/wordpool_EN.txt	STAIR	2	16	[0, 0, 0]	n/a	FR1	0	R1118N
1625.858	1.6	2201875	WORD	n/a	wordpools/wordpool_EN.txt	SWAMP	3	16	[0, 0, 0]	n/a	FR1	0	R1118N
1628.425	1.6	2204442	WORD	n/a	wordpools/wordpool_EN.txt	WOOD	4	16	[0, 0, 0]	n/a	FR1	0	R1118N
1630.976	1.6	2206993	WORD	n/a	wordpools/wordpool_EN.txt	CRANE	5	16	[0, 0, 0]	n/a	FR1	0	R1118N
1633.526	1.6	2209543	WORD	n/a	wordpools/wordpool_EN.txt	RAKE	6	16	[0, 0, 0]	n/a	FR1	0	R1118N
1636.093	1.6	2212110	WORD	n/a	wordpools/wordpool_EN.txt	HAWK	7	16	[0, 0, 0]	n/a	FR1	0	R1118N
1638.677	1.6	2214694	WORD	n/a	wordpools/wordpool_EN.txt	PIPE	8	16	[0, 0, 0]	n/a	FR1	0	R1118N
1641.294	1.6	2217311	WORD	n/a	wordpools/wordpool_EN.txt	HORSE	9	16	[0, 0, 0]	n/a	FR1	0	R1118N
1643.761	1.6	2219778	WORD	n/a	wordpools/wordpool_EN.txt	TREE	10	16	[0, 0, 0]	n/a	FR1	0	R1118N
1646.312	1.6	2222329	WORD	n/a	wordpools/wordpool_EN.txt	DART	11	16	[0, 0, 0]	n/a	FR1	0	R1118N
1648.862	1.6	2224879	WORD	n/a	wordpools/wordpool_EN.txt	BOX	12	16	[0, 0, 0]	n/a	FR1	0	R1118N
1650.479	0.001	2226495	DISTRACT_START	n/a	n/a	n/a	-999	16	[0, 0, 0]	n/a	FR1	0	R1118N
1650.48	0.016	2226496	START	n/a	n/a	n/a	-999	16	[-999, -999, -999]	n/a	FR1	0	R1118N
1650.496	13.102	2226512	PROB	13.07	n/a	n/a	-999	16	[8, 6, 9]	17.0	FR1	0	R1118N
1663.598	2.967	2239614	PROB	2.936	n/a	n/a	-999	16	[1, 1, 8]	10.0	FR1	0	R1118N
1666.565	2.467	2242581	PROB	2.441	n/a	n/a	-999	16	[5, 5, 7]	17.0	FR1	0	R1118N
1669.032	3.63	2245048	PROB	3.63	n/a	n/a	-999	16	[5, 3, 8]	16.0	FR1	0	R1118N
1672.662	0.004	2248678	STOP	n/a	n/a	n/a	-999	16	[-999, -999, -999]	n/a	FR1	0	R1118N
1672.666	1.084	2248682	DISTRACT_END	n/a	n/a	n/a	-999	16	[0, 0, 0]	n/a	FR1	0	R1118N
1673.75	4.384	2249766	REC_START	n/a	n/a	n/a	-999	16	[0, 0, 0]	n/a	FR1	0	R1118N
1678.134	18.559	2254149	REC_WORD	4.384	n/a	RAKE	-999	16	[0, 0, 0]	n/a	FR1	0	R1118N
1696.693	7.071	2272708	REC_WORD	22.943	n/a	TIRE	-999	16	[0, 0, 0]	n/a	FR1	0	R1118N
1703.764	2.491	2279778	REC_END	n/a	n/a	n/a	-999	16	[0, 0, 0]	n/a	FR1	0	R1118N
1706.255	10.0	2282269	COUNTDOWN_START	n/a	n/a	n/a	-999	17	[0, 0, 0]	n/a	FR1	0	R1118N
1706.255	10.428	2282269	TRIAL	n/a	n/a	n/a	-999	17	[0, 0, 0]	n/a	FR1	0	R1118N
1716.683	0.007	2292697	COUNTDOWN_END	n/a	n/a	n/a	-999	17	[0, 0, 0]	n/a	FR1	0	R1118N
1716.69	1.6	2292704	ORIENT	n/a	n/a	n/a	-999	17	[0, 0, 0]	n/a	FR1	0	R1118N
1719.208	1.6	2295222	WORD	n/a	wordpools/wordpool_EN.txt	BAG	1	17	[0, 0, 0]	n/a	FR1	0	R1118N
1721.641	1.6	2297655	WORD	n/a	wordpools/wordpool_EN.txt	GOAT	2	17	[0, 0, 0]	n/a	FR1	0	R1118N
1724.058	1.6	2300072	WORD	n/a	wordpools/wordpool_EN.txt	YARD	3	17	[0, 0, 0]	n/a	FR1	0	R1118N
1726.458	1.6	2302472	WORD	n/a	wordpools/wordpool_EN.txt	SNAIL	4	17	[0, 0, 0]	n/a	FR1	0	R1118N
1729.075	1.6	2305088	WORD	n/a	wordpools/wordpool_EN.txt	SHOE	5	17	[0, 0, 0]	n/a	FR1	0	R1118N
1731.693	1.6	2307706	WORD	n/a	wordpools/wordpool_EN.txt	FLEA	6	17	[0, 0, 0]	n/a	FR1	0	R1118N
1734.194	1.6	2310207	WORD	n/a	wordpools/wordpool_EN.txt	DRUM	7	17	[0, 0, 0]	n/a	FR1	0	R1118N
1736.61	1.6	2312623	WORD	n/a	wordpools/wordpool_EN.txt	GLASS	8	17	[0, 0, 0]	n/a	FR1	0	R1118N
1739.211	1.6	2315224	WORD	n/a	wordpools/wordpool_EN.txt	NOSE	9	17	[0, 0, 0]	n/a	FR1	0	R1118N
1741.627	1.6	2317640	WORD	n/a	wordpools/wordpool_EN.txt	WEB	10	17	[0, 0, 0]	n/a	FR1	0	R1118N
1744.078	1.6	2320091	WORD	n/a	wordpools/wordpool_EN.txt	WORLD	11	17	[0, 0, 0]	n/a	FR1	0	R1118N
1746.545	1.6	2322558	WORD	n/a	wordpools/wordpool_EN.txt	PEN	12	17	[0, 0, 0]	n/a	FR1	0	R1118N
1748.163	0.001	2324176	DISTRACT_START	n/a	n/a	n/a	-999	17	[0, 0, 0]	n/a	FR1	0	R1118N
1748.164	0.016	2324177	START	n/a	n/a	n/a	-999	17	[-999, -999, -999]	n/a	FR1	0	R1118N
1748.18	4.749	2324193	PROB	4.715	n/a	n/a	-999	17	[4, 6, 7]	17.0	FR1	0	R1118N
1752.929	5.219	2328942	PROB	5.19	n/a	n/a	-999	17	[9, 9, 5]	23.0	FR1	0	R1118N
1758.148	3.583	2334160	PROB	3.554	n/a	n/a	-999	17	[9, 6, 3]	18.0	FR1	0	R1118N
1761.731	2.317	2337743	PROB	2.291	n/a	n/a	-999	17	[7, 2, 1]	10.0	FR1	0	R1118N
1764.048	6.406	2340060	PROB	6.406	n/a	n/a	-999	17	[4, 6, 3]	13.0	FR1	0	R1118N
1770.454	0.012	2346466	STOP	n/a	n/a	n/a	-999	17	[-999, -999, -999]	n/a	FR1	0	R1118N
1770.466	1.184	2346478	DISTRACT_END	n/a	n/a	n/a	-999	17	[0, 0, 0]	n/a	FR1	0	R1118N
1771.65	20.091	2347662	REC_START	n/a	n/a	n/a	-999	17	[0, 0, 0]	n/a	FR1	0	R1118N
1791.741	1.584	2367752	REC_WORD	20.091	n/a	OAR	-999	17	[0, 0, 0]	n/a	FR1	0	R1118N
1793.325	8.335	2369336	REC_WORD	21.675	n/a	BOAT	-999	17	[0, 0, 0]	n/a	FR1	0	R1118N
1801.66	2.778	2377671	REC_END	n/a	n/a	n/a	-999	17	[0, 0, 0]	n/a	FR1	0	R1118N
1804.438	0.0	2380449	TRIAL	n/a	n/a	n/a	-999	18	[0, 0, 0]	n/a	FR1	0	R1118N
1804.438	10.0	2380449	COUNTDOWN_START	n/a	n/a	n/a	-999	18	[0, 0, 0]	n/a	FR1	0	R1118N
1814.866	0.007	2390876	COUNTDOWN_END	n/a	n/a	n/a	-999	18	[0, 0, 0]	n/a	FR1	0	R1118N
1814.873	1.6	2390883	ORIENT	n/a	n/a	n/a	-999	18	[0, 0, 0]	n/a	FR1	0	R1118N
1817.373	1.6	2393383	WORD	n/a	wordpools/wordpool_EN.txt	DOCK	1	18	[0, 0, 0]	n/a	FR1	0	R1118N
1819.824	1.6	2395834	WORD	n/a	wordpools/wordpool_EN.txt	FOAM	2	18	[0, 0, 0]	n/a	FR1	0	R1118N
1822.241	1.6	2398251	WORD	n/a	wordpools/wordpool_EN.txt	DRESS	3	18	[0, 0, 0]	n/a	FR1	0	R1118N
1824.808	1.6	2400818	WORD	n/a	wordpools/wordpool_EN.txt	HOLE	4	18	[0, 0, 0]	n/a	FR1	0	R1118N
1827.325	1.6	2403335	WORD	n/a	wordpools/wordpool_EN.txt	SALT	5	18	[0, 0, 0]	n/a	FR1	0	R1118N
1829.709	1.6	2405719	WORD	n/a	wordpools/wordpool_EN.txt	JAR	6	18	[0, 0, 0]	n/a	FR1	0	R1118N
1832.259	1.6	2408269	WORD	n/a	wordpools/wordpool_EN.txt	ROSE	7	18	[0, 0, 0]	n/a	FR1	0	R1118N
1834.693	1.6	2410702	WORD	n/a	wordpools/wordpool_EN.txt	BEAK	8	18	[0, 0, 0]	n/a	FR1	0	R1118N
1837.26	1.6	2413269	WORD	n/a	wordpools/wordpool_EN.txt	SPOON	9	18	[0, 0, 0]	n/a	FR1	0	R1118N
1839.644	1.6	2415653	WORD	n/a	wordpools/wordpool_EN.txt	SINK	10	18	[0, 0, 0]	n/a	FR1	0	R1118N
1842.145	1.6	2418154	WORD	n/a	wordpools/wordpool_EN.txt	BATH	11	18	[0, 0, 0]	n/a	FR1	0	R1118N
1844.761	1.6	2420770	WORD	n/a	wordpools/wordpool_EN.txt	THREAD	12	18	[0, 0, 0]	n/a	FR1	0	R1118N
1846.378	0.001	2422387	DISTRACT_START	n/a	n/a	n/a	-999	18	[0, 0, 0]	n/a	FR1	0	R1118N
1846.379	0.016	2422388	START	n/a	n/a	n/a	-999	18	[-999, -999, -999]	n/a	FR1	0	R1118N
1846.395	7.118	2422404	PROB	7.091	n/a	n/a	-999	18	[2, 4, 8]	14.0	FR1	0	R1118N
1853.513	5.817	2429522	PROB	5.79	n/a	n/a	-999	18	[2, 1, 2]	5.0	FR1	0	R1118N
1859.33	2.184	2435338	PROB	2.156	n/a	n/a	-999	18	[1, 2, 2]	5.0	FR1	0	R1118N
1861.514	2.484	2437522	PROB	2.461	n/a	n/a	-999	18	[6, 9, 1]	16.0	FR1	0	R1118N
1863.998	3.976	2440006	PROB	3.976	n/a	n/a	-999	18	[2, 6, 9]	15.0	FR1	0	R1118N
1867.974	0.008	2443982	STOP	n/a	n/a	n/a	-999	18	[-999, -999, -999]	n/a	FR1	0	R1118N
1867.982	1.1	2443990	DISTRACT_END	n/a	n/a	n/a	-999	18	[0, 0, 0]	n/a	FR1	0	R1118N
1869.082	2.078	2445090	REC_START	n/a	n/a	n/a	-999	18	[0, 0, 0]	n/a	FR1	0	R1118N
1871.16	4.313	2447168	REC_WORD	2.078	n/a	DOCK	-999	18	[0, 0, 0]	n/a	FR1	0	R1118N
1875.473	1.527	2451481	REC_WORD	6.391	n/a	DRESS	-999	18	[0, 0, 0]	n/a	FR1	0	R1118N
1877.0	7.84	2453008	REC_WORD	7.918	n/a	SALT	-999	18	[0, 0, 0]	n/a	FR1	0	R1118N
1884.84	14.255	2460848	REC_WORD	15.758	n/a	BONE	-999	18	[0, 0, 0]	n/a	FR1	0	R1118N
1899.095	2.659	2475102	REC_END	n/a	n/a	n/a	-999	18	[0, 0, 0]	n/a	FR1	0	R1118N
1901.754	0.0	2477761	TRIAL	n/a	n/a	n/a	-999	19	[0, 0, 0]	n/a	FR1	0	R1118N
1901.754	10.0	2477761	COUNTDOWN_START	n/a	n/a	n/a	-999	19	[0, 0, 0]	n/a	FR1	0	R1118N
1912.182	0.008	2488188	COUNTDOWN_END	n/a	n/a	n/a	-999	19	[0, 0, 0]	n/a	FR1	0	R1118N
1912.19	1.6	2488196	ORIENT	n/a	n/a	n/a	-999	19	[0, 0, 0]	n/a	FR1	0	R1118N
1914.806	1.6	2490812	WORD	n/a	wordpools/wordpool_EN.txt	CAPE	1	19	[0, 0, 0]	n/a	FR1	0	R1118N
1917.223	1.6	2493229	WORD	n/a	wordpools/wordpool_EN.txt	FLOOR	2	19	[0, 0, 0]	n/a	FR1	0	R1118N
1919.707	1.6	2495713	WORD	n/a	wordpools/wordpool_EN.txt	ROCK	3	19	[0, 0, 0]	n/a	FR1	0	R1118N
1922.107	1.6	2498113	WORD	n/a	wordpools/wordpool_EN.txt	EEL	4	19	[0, 0, 0]	n/a	FR1	0	R1118N
1924.741	1.6	2500747	WORD	n/a	wordpools/wordpool_EN.txt	NEST	5	19	[0, 0, 0]	n/a	FR1	0	R1118N
1927.225	1.6	2503231	WORD	n/a	wordpools/wordpool_EN.txt	MOTH	6	19	[0, 0, 0]	n/a	FR1	0	R1118N
1929.809	1.6	2505815	WORD	n/a	wordpools/wordpool_EN.txt	WING	7	19	[0, 0, 0]	n/a	FR1	0	R1118N
1932.326	1.6	2508332	WORD	n/a	wordpools/wordpool_EN.txt	ROOM	8	19	[0, 0, 0]	n/a	FR1	0	R1118N
1934.759	1.6	2510765	WORD	n/a	wordpools/wordpool_EN.txt	BEACH	9	19	[0, 0, 0]	n/a	FR1	0	R1118N
1937.16	1.6	2513165	WORD	n/a	wordpools/wordpool_EN.txt	WHEEL	10	19	[0, 0, 0]	n/a	FR1	0	R1118N
1939.743	1.6	2515748	WORD	n/a	wordpools/wordpool_EN.txt	RAIN	11	19	[0, 0, 0]	n/a	FR1	0	R1118N
1942.127	1.6	2518132	WORD	n/a	wordpools/wordpool_EN.txt	GRASS	12	19	[0, 0, 0]	n/a	FR1	0	R1118N
1943.744	0.001	2519749	DISTRACT_START	n/a	n/a	n/a	-999	19	[0, 0, 0]	n/a	FR1	0	R1118N
1943.745	0.016	2519750	START	n/a	n/a	n/a	-999	19	[-999, -999, -999]	n/a	FR1	0	R1118N
1943.761	11.485	2519766	PROB	11.454	n/a	n/a	-999	19	[9, 7, 6]	22.0	FR1	0	R1118N
1955.246	2.734	2531251	PROB	2.704	n/a	n/a	-999	19	[4, 1, 6]	11.0	FR1	0	R1118N
1957.98	3.667	2533985	PROB	3.634	n/a	n/a	-999	19	[7, 1, 9]	17.0	FR1	0	R1118N
1961.647	13.16	2537652	PROB	13.16	n/a	n/a	-999	19	[7, 8, 5]	20.0	FR1	0	R1118N
1974.807	0.009	2550811	STOP	n/a	n/a	n/a	-999	19	[-999, -999, -999]	n/a	FR1	0	R1118N
1974.816	1.118	2550820	DISTRACT_END	n/a	n/a	n/a	-999	19	[0, 0, 0]	n/a	FR1	0	R1118N
1975.934	1.484	2551938	REC_START	n/a	n/a	n/a	-999	19	[0, 0, 0]	n/a	FR1	0	R1118N
1977.418	2.034	2553422	REC_WORD	1.484	n/a	CAPE	-999	19	[0, 0, 0]	n/a	FR1	0	R1118N
1979.452	4.764	2555456	REC_WORD	3.518	n/a	OAR	-999	19	[0, 0, 0]	n/a	FR1	0	R1118N
1984.216	3.278	2560220	REC_WORD	8.282	n/a	WING	-999	19	[0, 0, 0]	n/a	FR1	0	R1118N
1987.494	18.45	2563498	REC_WORD	11.56	n/a	DUNE	-999	19	[0, 0, 0]	n/a	FR1	0	R1118N
2005.944	2.161	2581947	REC_END	n/a	n/a	n/a	-999	19	[0, 0, 0]	n/a	FR1	0	R1118N
2008.105	0.0	2584108	TRIAL	n/a	n/a	n/a	-999	20	[0, 0, 0]	n/a	FR1	0	R1118N
2008.105	10.0	2584108	COUNTDOWN_START	n/a	n/a	n/a	-999	20	[0, 0, 0]	n/a	FR1	0	R1118N
2018.533	0.007	2594535	COUNTDOWN_END	n/a	n/a	n/a	-999	20	[0, 0, 0]	n/a	FR1	0	R1118N
2018.54	1.6	2594542	ORIENT	n/a	n/a	n/a	-999	20	[0, 0, 0]	n/a	FR1	0	R1118N
2021.158	1.6	2597160	WORD	n/a	wordpools/wordpool_EN.txt	AXE	1	20	[0, 0, 0]	n/a	FR1	0	R1118N
2023.791	1.6	2599793	WORD	n/a	wordpools/wordpool_EN.txt	ICE	2	20	[0, 0, 0]	n/a	FR1	0	R1118N
2026.358	1.6	2602360	WORD	n/a	wordpools/wordpool_EN.txt	PLATE	3	20	[0, 0, 0]	n/a	FR1	0	R1118N
2028.875	1.6	2604877	WORD	n/a	wordpools/wordpool_EN.txt	SHEET	4	20	[0, 0, 0]	n/a	FR1	0	R1118N
2031.259	1.6	2607261	WORD	n/a	wordpools/wordpool_EN.txt	JAIL	5	20	[0, 0, 0]	n/a	FR1	0	R1118N
2033.809	1.6	2609811	WORD	n/a	wordpools/wordpool_EN.txt	FILM	6	20	[0, 0, 0]	n/a	FR1	0	R1118N
2036.276	1.6	2612278	WORD	n/a	wordpools/wordpool_EN.txt	MOOSE	7	20	[0, 0, 0]	n/a	FR1	0	R1118N
2038.876	1.6	2614878	WORD	n/a	wordpools/wordpool_EN.txt	ROOT	8	20	[0, 0, 0]	n/a	FR1	0	R1118N
2041.46	1.6	2617461	WORD	n/a	wordpools/wordpool_EN.txt	CROWN	9	20	[0, 0, 0]	n/a	FR1	0	R1118N
2043.977	1.6	2619978	WORD	n/a	wordpools/wordpool_EN.txt	NAIL	10	20	[0, 0, 0]	n/a	FR1	0	R1118N
2046.494	1.6	2622495	WORD	n/a	wordpools/wordpool_EN.txt	TOOL	11	20	[0, 0, 0]	n/a	FR1	0	R1118N
2048.945	1.6	2624946	WORD	n/a	wordpools/wordpool_EN.txt	SEED	12	20	[0, 0, 0]	n/a	FR1	0	R1118N
2050.562	0.001	2626563	DISTRACT_START	n/a	n/a	n/a	-999	20	[0, 0, 0]	n/a	FR1	0	R1118N
2050.563	0.015	2626564	START	n/a	n/a	n/a	-999	20	[-999, -999, -999]	n/a	FR1	0	R1118N
2050.578	9.669	2626579	PROB	9.644	n/a	n/a	-999	20	[4, 7, 5]	16.0	FR1	0	R1118N
2060.247	9.001	2636248	PROB	8.976	n/a	n/a	-999	20	[6, 7, 4]	17.0	FR1	0	R1118N
2069.248	4.799	2645248	PROB	4.799	n/a	n/a	-999	20	[2, 8, 7]	17.0	FR1	0	R1118N
2074.047	0.019	2650047	STOP	n/a	n/a	n/a	-999	20	[-999, -999, -999]	n/a	FR1	0	R1118N
2074.066	1.102	2650066	DISTRACT_END	n/a	n/a	n/a	-999	20	[0, 0, 0]	n/a	FR1	0	R1118N
2075.168	7.845	2651168	REC_START	n/a	n/a	n/a	-999	20	[0, 0, 0]	n/a	FR1	0	R1118N
2083.013	3.643	2659013	REC_WORD	7.845	n/a	FLOOR	-999	20	[0, 0, 0]	n/a	FR1	0	R1118N
2086.656	1.851	2662656	REC_WORD	11.488	n/a	BOX	-999	20	[0, 0, 0]	n/a	FR1	0	R1118N
2088.507	7.692	2664507	REC_WORD	13.339	n/a	CAPE	-999	20	[0, 0, 0]	n/a	FR1	0	R1118N
2096.199	8.979	2672198	REC_WORD	21.031	n/a	DOOM	-999	20	[0, 0, 0]	n/a	FR1	0	R1118N
2105.178	3.477	2681177	REC_END	n/a	n/a	n/a	-999	20	[0, 0, 0]	n/a	FR1	0	R1118N
2108.655	0.0	2684654	TRIAL	n/a	n/a	n/a	-999	21	[0, 0, 0]	n/a	FR1	0	R1118N
2108.655	10.0	2684654	COUNTDOWN_START	n/a	n/a	n/a	-999	21	[0, 0, 0]	n/a	FR1	0	R1118N
2119.083	0.007	2695082	COUNTDOWN_END	n/a	n/a	n/a	-999	21	[0, 0, 0]	n/a	FR1	0	R1118N
2119.09	1.6	2695089	ORIENT	n/a	n/a	n/a	-999	21	[0, 0, 0]	n/a	FR1	0	R1118N
2121.707	1.6	2697705	WORD	n/a	wordpools/wordpool_EN.txt	MOLE	1	21	[0, 0, 0]	n/a	FR1	0	R1118N
2124.29	1.6	2700288	WORD	n/a	wordpools/wordpool_EN.txt	DUCK	2	21	[0, 0, 0]	n/a	FR1	0	R1118N
2126.691	1.6	2702689	WORD	n/a	wordpools/wordpool_EN.txt	TOOTH	3	21	[0, 0, 0]	n/a	FR1	0	R1118N
2129.241	1.6	2705239	WORD	n/a	wordpools/wordpool_EN.txt	SHIRT	4	21	[0, 0, 0]	n/a	FR1	0	R1118N
2131.709	1.6	2707707	WORD	n/a	wordpools/wordpool_EN.txt	BOAT	5	21	[0, 0, 0]	n/a	FR1	0	R1118N
2134.143	1.6	2710141	WORD	n/a	wordpools/wordpool_EN.txt	BOOT	6	21	[0, 0, 0]	n/a	FR1	0	R1118N
2136.693	1.6	2712691	WORD	n/a	wordpools/wordpool_EN.txt	SKUNK	7	21	[0, 0, 0]	n/a	FR1	0	R1118N
2139.11	1.6	2715108	WORD	n/a	wordpools/wordpool_EN.txt	TEETH	8	21	[0, 0, 0]	n/a	FR1	0	R1118N
2141.677	1.6	2717675	WORD	n/a	wordpools/wordpool_EN.txt	LOCK	9	21	[0, 0, 0]	n/a	FR1	0	R1118N
2144.26	1.6	2720258	WORD	n/a	wordpools/wordpool_EN.txt	SNAKE	10	21	[0, 0, 0]	n/a	FR1	0	R1118N
2146.661	1.6	2722658	WORD	n/a	wordpools/wordpool_EN.txt	ARK	11	21	[0, 0, 0]	n/a	FR1	0	R1118N
2149.061	1.6	2725058	WORD	n/a	wordpools/wordpool_EN.txt	CALF	12	21	[0, 0, 0]	n/a	FR1	0	R1118N
2150.678	0.001	2726675	DISTRACT_START	n/a	n/a	n/a	-999	21	[0, 0, 0]	n/a	FR1	0	R1118N
2150.679	0.016	2726676	START	n/a	n/a	n/a	-999	21	[-999, -999, -999]	n/a	FR1	0	R1118N
2150.695	7.134	2726692	PROB	7.104	n/a	n/a	-999	21	[7, 9, 2]	18.0	FR1	0	R1118N
2157.829	2.284	2733826	PROB	2.25	n/a	n/a	-999	21	[5, 5, 4]	14.0	FR1	0	R1118N
2160.113	2.167	2736110	PROB	2.133	n/a	n/a	-999	21	[1, 3, 4]	8.0	FR1	0	R1118N
2162.28	11.398	2738277	PROB	11.398	n/a	n/a	-999	21	[6, 8, 5]	19.0	FR1	0	R1118N
2173.678	0.004	2749674	STOP	n/a	n/a	n/a	-999	21	[-999, -999, -999]	n/a	FR1	0	R1118N
2173.682	1.068	2749678	DISTRACT_END	n/a	n/a	n/a	-999	21	[0, 0, 0]	n/a	FR1	0	R1118N
2174.75	17.003	2750746	REC_START	n/a	n/a	n/a	-999	21	[0, 0, 0]	n/a	FR1	0	R1118N
2191.753	3.846	2767749	REC_WORD	17.003	n/a	TOOTH	-999	21	[0, 0, 0]	n/a	FR1	0	R1118N
2195.599	4.463	2771595	REC_WORD	20.849	n/a	DRUM	-999	21	[0, 0, 0]	n/a	FR1	0	R1118N
2200.062	4.698	2776057	REC_WORD	25.312	n/a	MOLE	-999	21	[0, 0, 0]	n/a	FR1	0	R1118N
2204.76	2.678	2780755	REC_END	n/a	n/a	n/a	-999	21	[0, 0, 0]	n/a	FR1	0	R1118N
2207.438	0.0	2783433	TRIAL	n/a	n/a	n/a	-999	22	[0, 0, 0]	n/a	FR1	0	R1118N
2207.438	10.0	2783433	COUNTDOWN_START	n/a	n/a	n/a	-999	22	[0, 0, 0]	n/a	FR1	0	R1118N
2217.866	0.007	2793861	COUNTDOWN_END	n/a	n/a	n/a	-999	22	[0, 0, 0]	n/a	FR1	0	R1118N
2217.873	1.6	2793868	ORIENT	n/a	n/a	n/a	-999	22	[0, 0, 0]	n/a	FR1	0	R1118N
2220.256	1.6	2796251	WORD	n/a	wordpools/wordpool_EN.txt	ARM	1	22	[0, 0, 0]	n/a	FR1	0	R1118N
2222.673	1.6	2798668	WORD	n/a	wordpools/wordpool_EN.txt	CHEEK	2	22	[0, 0, 0]	n/a	FR1	0	R1118N
2225.224	1.6	2801218	WORD	n/a	wordpools/wordpool_EN.txt	TOE	3	22	[0, 0, 0]	n/a	FR1	0	R1118N
2227.691	1.6	2803685	WORD	n/a	wordpools/wordpool_EN.txt	PET	4	22	[0, 0, 0]	n/a	FR1	0	R1118N
2230.209	1.6	2806203	WORD	n/a	wordpools/wordpool_EN.txt	TENT	5	22	[0, 0, 0]	n/a	FR1	0	R1118N
2232.742	1.6	2808736	WORD	n/a	wordpools/wordpool_EN.txt	PURSE	6	22	[0, 0, 0]	n/a	FR1	0	R1118N
2235.292	1.6	2811286	WORD	n/a	wordpools/wordpool_EN.txt	CAGE	7	22	[0, 0, 0]	n/a	FR1	0	R1118N
2237.709	1.6	2813703	WORD	n/a	wordpools/wordpool_EN.txt	PALM	8	22	[0, 0, 0]	n/a	FR1	0	R1118N
2240.11	1.6	2816104	WORD	n/a	wordpools/wordpool_EN.txt	GUARD	9	22	[0, 0, 0]	n/a	FR1	0	R1118N
2242.56	1.6	2818554	WORD	n/a	wordpools/wordpool_EN.txt	HORN	10	22	[0, 0, 0]	n/a	FR1	0	R1118N
2245.077	1.6	2821071	WORD	n/a	wordpools/wordpool_EN.txt	TOY	11	22	[0, 0, 0]	n/a	FR1	0	R1118N
2247.628	1.6	2823622	WORD	n/a	wordpools/wordpool_EN.txt	TAIL	12	22	[0, 0, 0]	n/a	FR1	0	R1118N
2249.245	0.0	2825239	DISTRACT_START	n/a	n/a	n/a	-999	22	[0, 0, 0]	n/a	FR1	0	R1118N
2249.245	0.016	2825239	START	n/a	n/a	n/a	-999	22	[-999, -999, -999]	n/a	FR1	0	R1118N
2249.261	7.251	2825255	PROB	7.226	n/a	n/a	-999	22	[7, 1, 8]	16.0	FR1	0	R1118N
2256.512	3.234	2832505	PROB	3.199	n/a	n/a	-999	22	[4, 8, 2]	14.0	FR1	0	R1118N
2259.746	2.717	2835739	PROB	2.684	n/a	n/a	-999	22	[1, 3, 9]	13.0	FR1	0	R1118N
2262.463	2.567	2838456	PROB	2.544	n/a	n/a	-999	22	[6, 1, 4]	11.0	FR1	0	R1118N
2265.03	6.8	2841023	PROB	6.8	n/a	n/a	-999	22	[8, 2, 7]	17.0	FR1	0	R1118N
2271.83	0.018	2847823	STOP	n/a	n/a	n/a	-999	22	[-999, -999, -999]	n/a	FR1	0	R1118N
2271.848	1.035	2847841	DISTRACT_END	n/a	n/a	n/a	-999	22	[0, 0, 0]	n/a	FR1	0	R1118N
2272.883	3.419	2848876	REC_START	n/a	n/a	n/a	-999	22	[0, 0, 0]	n/a	FR1	0	R1118N
2276.302	1.084	2852294	REC_WORD	3.419	n/a	HORN	-999	22	[0, 0, 0]	n/a	FR1	0	R1118N
2277.386	8.194	2853378	REC_WORD	4.503	n/a	TOY	-999	22	[0, 0, 0]	n/a	FR1	0	R1118N
2285.58	17.312	2861572	REC_WORD	12.697	n/a	PALM	-999	22	[0, 0, 0]	n/a	FR1	0	R1118N
2302.892	3.246	2878883	REC_END	n/a	n/a	n/a	-999	22	[0, 0, 0]	n/a	FR1	0	R1118N
2306.138	0.0	2882129	TRIAL	n/a	n/a	n/a	-999	23	[0, 0, 0]	n/a	FR1	0	R1118N
2306.138	10.0	2882129	COUNTDOWN_START	n/a	n/a	n/a	-999	23	[0, 0, 0]	n/a	FR1	0	R1118N
2316.566	0.006	2892557	COUNTDOWN_END	n/a	n/a	n/a	-999	23	[0, 0, 0]	n/a	FR1	0	R1118N
2316.572	1.6	2892563	ORIENT	n/a	n/a	n/a	-999	23	[0, 0, 0]	n/a	FR1	0	R1118N
2319.072	1.6	2895063	WORD	n/a	wordpools/wordpool_EN.txt	COW	1	23	[0, 0, 0]	n/a	FR1	0	R1118N
2321.506	1.6	2897497	WORD	n/a	wordpools/wordpool_EN.txt	DOLL	2	23	[0, 0, 0]	n/a	FR1	0	R1118N
2323.973	1.6	2899964	WORD	n/a	wordpools/wordpool_EN.txt	HOOF	3	23	[0, 0, 0]	n/a	FR1	0	R1118N
2326.574	1.6	2902565	WORD	n/a	wordpools/wordpool_EN.txt	SOUP	4	23	[0, 0, 0]	n/a	FR1	0	R1118N
2329.041	1.6	2905031	WORD	n/a	wordpools/wordpool_EN.txt	STRAW	5	23	[0, 0, 0]	n/a	FR1	0	R1118N
2331.441	1.6	2907431	WORD	n/a	wordpools/wordpool_EN.txt	PASTE	6	23	[0, 0, 0]	n/a	FR1	0	R1118N
2333.858	1.6	2909848	WORD	n/a	wordpools/wordpool_EN.txt	OAK	7	23	[0, 0, 0]	n/a	FR1	0	R1118N
2336.292	1.6	2912282	WORD	n/a	wordpools/wordpool_EN.txt	CUP	8	23	[0, 0, 0]	n/a	FR1	0	R1118N
2338.826	1.6	2914816	WORD	n/a	wordpools/wordpool_EN.txt	TOAST	9	23	[0, 0, 0]	n/a	FR1	0	R1118N
2341.443	1.6	2917433	WORD	n/a	wordpools/wordpool_EN.txt	VINE	10	23	[0, 0, 0]	n/a	FR1	0	R1118N
2343.927	1.6	2919917	WORD	n/a	wordpools/wordpool_EN.txt	DOOR	11	23	[0, 0, 0]	n/a	FR1	0	R1118N
2346.444	1.6	2922434	WORD	n/a	wordpools/wordpool_EN.txt	PEAR	12	23	[0, 0, 0]	n/a	FR1	0	R1118N
2348.061	0.001	2924051	DISTRACT_START	n/a	n/a	n/a	-999	23	[0, 0, 0]	n/a	FR1	0	R1118N
2348.062	0.016	2924052	START	n/a	n/a	n/a	-999	23	[-999, -999, -999]	n/a	FR1	0	R1118N
2348.078	3.9	2924068	PROB	3.873	n/a	n/a	-999	23	[2, 1, 4]	7.0	FR1	0	R1118N
2351.978	3.684	2927968	PROB	3.661	n/a	n/a	-999	23	[4, 2, 1]	7.0	FR1	0	R1118N
2355.662	9.486	2931651	PROB	9.456	n/a	n/a	-999	23	[8, 5, 1]	14.0	FR1	0	R1118N
2365.148	2.116	2941137	PROB	2.083	n/a	n/a	-999	23	[1, 4, 1]	6.0	FR1	0	R1118N
2367.264	10.23	2943253	PROB	10.23	n/a	n/a	-999	23	[2, 5, 9]	16.0	FR1	0	R1118N
2377.494	0.005	2953483	STOP	n/a	n/a	n/a	-999	23	[-999, -999, -999]	n/a	FR1	0	R1118N
2377.499	1.067	2953488	DISTRACT_END	n/a	n/a	n/a	-999	23	[0, 0, 0]	n/a	FR1	0	R1118N
2378.566	3.194	2954555	REC_START	n/a	n/a	n/a	-999	23	[0, 0, 0]	n/a	FR1	0	R1118N
2381.76	1.412	2957748	REC_WORD	3.194	n/a	COW	-999	23	[0, 0, 0]	n/a	FR1	0	R1118N
2383.172	2.594	2959160	REC_WORD	4.606	n/a	MILK	-999	23	[0, 0, 0]	n/a	FR1	0	R1118N
2385.766	3.245	2961754	REC_WORD	7.2	n/a	PASTE	-999	23	[0, 0, 0]	n/a	FR1	0	R1118N
2389.011	2.015	2964999	REC_WORD	10.445	n/a	STRAW	-999	23	[0, 0, 0]	n/a	FR1	0	R1118N
2391.026	17.554	2967014	REC_WORD	12.46	n/a	CALF	-999	23	[0, 0, 0]	n/a	FR1	0	R1118N
2408.58	2.908	2984567	REC_END	n/a	n/a	n/a	-999	23	[0, 0, 0]	n/a	FR1	0	R1118N
2411.488	0.0	2987475	TRIAL	n/a	n/a	n/a	-999	24	[0, 0, 0]	n/a	FR1	0	R1118N
2411.488	10.0	2987475	COUNTDOWN_START	n/a	n/a	n/a	-999	24	[0, 0, 0]	n/a	FR1	0	R1118N
2421.916	0.007	2997903	COUNTDOWN_END	n/a	n/a	n/a	-999	24	[0, 0, 0]	n/a	FR1	0	R1118N
2421.923	1.6	2997910	ORIENT	n/a	n/a	n/a	-999	24	[0, 0, 0]	n/a	FR1	0	R1118N
2424.373	1.6	3000360	WORD	n/a	wordpools/wordpool_EN.txt	SLEEVE	1	24	[0, 0, 0]	n/a	FR1	0	R1118N
2426.84	1.6	3002827	WORD	n/a	wordpools/wordpool_EN.txt	TIE	2	24	[0, 0, 0]	n/a	FR1	0	R1118N
2429.274	1.6	3005261	WORD	n/a	wordpools/wordpool_EN.txt	HOSE	3	24	[0, 0, 0]	n/a	FR1	0	R1118N
2431.891	1.6	3007878	WORD	n/a	wordpools/wordpool_EN.txt	CANE	4	24	[0, 0, 0]	n/a	FR1	0	R1118N
2434.325	1.6	3010311	WORD	n/a	wordpools/wordpool_EN.txt	TRAY	5	24	[0, 0, 0]	n/a	FR1	0	R1118N
2436.959	1.6	3012945	WORD	n/a	wordpools/wordpool_EN.txt	FARM	6	24	[0, 0, 0]	n/a	FR1	0	R1118N
2439.443	1.6	3015429	WORD	n/a	wordpools/wordpool_EN.txt	WEED	7	24	[0, 0, 0]	n/a	FR1	0	R1118N
2441.843	1.6	3017829	WORD	n/a	wordpools/wordpool_EN.txt	CAKE	8	24	[0, 0, 0]	n/a	FR1	0	R1118N
2444.343	1.6	3020329	WORD	n/a	wordpools/wordpool_EN.txt	STICK	9	24	[0, 0, 0]	n/a	FR1	0	R1118N
2446.76	1.6	3022746	WORD	n/a	wordpools/wordpool_EN.txt	SEAL	10	24	[0, 0, 0]	n/a	FR1	0	R1118N
2449.294	1.6	3025280	WORD	n/a	wordpools/wordpool_EN.txt	LAMB	11	24	[0, 0, 0]	n/a	FR1	0	R1118N
2451.861	1.6	3027847	WORD	n/a	wordpools/wordpool_EN.txt	POOL	12	24	[0, 0, 0]	n/a	FR1	0	R1118N
2453.478	0.001	3029464	DISTRACT_START	n/a	n/a	n/a	-999	24	[0, 0, 0]	n/a	FR1	0	R1118N
2453.479	0.016	3029465	START	n/a	n/a	n/a	-999	24	[-999, -999, -999]	n/a	FR1	0	R1118N
2453.495	7.685	3029481	PROB	7.656	n/a	n/a	-999	24	[6, 2, 3]	11.0	FR1	0	R1118N
2461.18	2.517	3037165	PROB	2.491	n/a	n/a	-999	24	[8, 2, 6]	16.0	FR1	0	R1118N
2463.697	2.267	3039682	PROB	2.245	n/a	n/a	-999	24	[2, 2, 8]	12.0	FR1	0	R1118N
2465.964	6.917	3041949	PROB	6.882	n/a	n/a	-999	24	[7, 5, 8]	17.0	FR1	0	R1118N
2472.881	5.837	3048866	PROB	5.837	n/a	n/a	-999	24	[9, 5, 1]	15.0	FR1	0	R1118N
2478.718	0.014	3054703	STOP	n/a	n/a	n/a	-999	24	[-999, -999, -999]	n/a	FR1	0	R1118N
2478.732	1.152	3054717	DISTRACT_END	n/a	n/a	n/a	-999	24	[0, 0, 0]	n/a	FR1	0	R1118N
2479.884	6.927	3055869	REC_START	n/a	n/a	n/a	-999	24	[0, 0, 0]	n/a	FR1	0	R1118N
2486.811	1.592	3062795	REC_WORD	6.927	n/a	TOE	-999	24	[0, 0, 0]	n/a	FR1	0	R1118N
2488.403	4.128	3064387	REC_WORD	8.519	n/a	CALF	-999	24	[0, 0, 0]	n/a	FR1	0	R1118N
2492.531	3.587	3068515	REC_WORD	12.647	n/a	LEFT	-999	24	[0, 0, 0]	n/a	FR1	0	R1118N
2496.118	13.777	3072102	REC_WORD	16.234	n/a	HOOF	-999	24	[0, 0, 0]	n/a	FR1	0	R1118N
2509.895	3.86	3085879	REC_END	n/a	n/a	n/a	-999	24	[0, 0, 0]	n/a	FR1	0	R1118N
2513.755	0.0	3089738	TRIAL	n/a	n/a	n/a	-999	25	[0, 0, 0]	n/a	FR1	0	R1118N
2513.755	10.0	3089738	COUNTDOWN_START	n/a	n/a	n/a	-999	25	[0, 0, 0]	n/a	FR1	0	R1118N
2524.183	0.008	3100166	COUNTDOWN_END	n/a	n/a	n/a	-999	25	[0, 0, 0]	n/a	FR1	0	R1118N
2524.191	1.6	3100174	ORIENT	n/a	n/a	n/a	-999	25	[0, 0, 0]	n/a	FR1	0	R1118N
2526.574	1.6	3102557	WORD	n/a	wordpools/wordpool_EN.txt	INK	1	25	[0, 0, 0]	n/a	FR1	0	R1118N
2529.158	1.6	3105141	WORD	n/a	wordpools/wordpool_EN.txt	BREAD	2	25	[0, 0, 0]	n/a	FR1	0	R1118N
2531.558	1.6	3107541	WORD	n/a	wordpools/wordpool_EN.txt	PEACH	3	25	[0, 0, 0]	n/a	FR1	0	R1118N
2533.958	1.6	3109941	WORD	n/a	wordpools/wordpool_EN.txt	CART	4	25	[0, 0, 0]	n/a	FR1	0	R1118N
2536.542	1.6	3112524	WORD	n/a	wordpools/wordpool_EN.txt	SIGN	5	25	[0, 0, 0]	n/a	FR1	0	R1118N
2539.126	1.6	3115108	WORD	n/a	wordpools/wordpool_EN.txt	LAWN	6	25	[0, 0, 0]	n/a	FR1	0	R1118N
2541.659	1.6	3117641	WORD	n/a	wordpools/wordpool_EN.txt	WHALE	7	25	[0, 0, 0]	n/a	FR1	0	R1118N
2544.161	1.6	3120143	WORD	n/a	wordpools/wordpool_EN.txt	STREET	8	25	[0, 0, 0]	n/a	FR1	0	R1118N
2546.66	1.6	3122642	WORD	n/a	wordpools/wordpool_EN.txt	STOVE	9	25	[0, 0, 0]	n/a	FR1	0	R1118N
2549.244	1.6	3125226	WORD	n/a	wordpools/wordpool_EN.txt	GOLD	10	25	[0, 0, 0]	n/a	FR1	0	R1118N
2551.678	1.6	3127660	WORD	n/a	wordpools/wordpool_EN.txt	STONE	11	25	[0, 0, 0]	n/a	FR1	0	R1118N
2554.245	1.6	3130227	WORD	n/a	wordpools/wordpool_EN.txt	COIN	12	25	[0, 0, 0]	n/a	FR1	0	R1118N
2555.862	0.001	3131844	DISTRACT_START	n/a	n/a	n/a	-999	25	[0, 0, 0]	n/a	FR1	0	R1118N
2555.863	0.015	3131845	START	n/a	n/a	n/a	-999	25	[-999, -999, -999]	n/a	FR1	0	R1118N
2555.878	3.851	3131860	PROB	3.816	n/a	n/a	-999	25	[4, 4, 6]	14.0	FR1	0	R1118N
2559.729	7.201	3135711	PROB	7.173	n/a	n/a	-999	25	[6, 9, 2]	17.0	FR1	0	R1118N
2566.93	3.218	3142911	PROB	3.196	n/a	n/a	-999	25	[3, 1, 5]	9.0	FR1	0	R1118N
2570.148	4.684	3146129	PROB	4.658	n/a	n/a	-999	25	[3, 9, 5]	17.0	FR1	0	R1118N
2574.832	5.638	3150813	PROB	5.638	n/a	n/a	-999	25	[9, 5, 2]	16.0	FR1	0	R1118N
2580.47	0.012	3156451	STOP	n/a	n/a	n/a	-999	25	[-999, -999, -999]	n/a	FR1	0	R1118N
2580.482	1.151	3156463	DISTRACT_END	n/a	n/a	n/a	-999	25	[0, 0, 0]	n/a	FR1	0	R1118N
2581.633	2.352	3157614	REC_START	n/a	n/a	n/a	-999	25	[0, 0, 0]	n/a	FR1	0	R1118N
2583.985	1.228	3159966	REC_WORD	2.352	n/a	LAWN	-999	25	[0, 0, 0]	n/a	FR1	0	R1118N
2585.213	9.876	3161194	REC_WORD	3.58	n/a	ARCH	-999	25	[0, 0, 0]	n/a	FR1	0	R1118N
2595.089	16.558	3171069	REC_WORD	13.456	n/a	TAIL	-999	25	[0, 0, 0]	n/a	FR1	0	R1118N
2611.647	3.625	3187627	REC_END	n/a	n/a	n/a	-999	25	[0, 0, 0]	n/a	FR1	0	R1118N
2615.272	0.0	3191251	SESS_END	n/a	n/a	n/a	-999	25	[0, 0, 0]	n/a	FR1	0	R1118N
