onset	duration	sample	trial_type	response_time	stim_file	item_name	serialpos	list	test	answer	experiment	session	subject
0.0	20.734	48786	SESS_START	n/a	n/a	n/a	-999	-999	[0, 0, 0]	n/a	FR1	1	R1130M
20.734	10.0	59153	COUNTDOWN_START	n/a	n/a	n/a	-999	-999	[0, 0, 0]	n/a	FR1	1	R1130M
31.162	3.725	64366	COUNTDOWN_END	n/a	n/a	n/a	-999	-999	[0, 0, 0]	n/a	FR1	1	R1130M
34.887	1.6	66229	PRACTICE_WORD	n/a	n/a	BEAM	1	-1	[0, 0, 0]	n/a	FR1	1	R1130M
37.371	1.6	67471	PRACTICE_WORD	n/a	n/a	FLOOD	2	-1	[0, 0, 0]	n/a	FR1	1	R1130M
39.838	1.6	68704	PRACTICE_WORD	n/a	n/a	CHEST	3	-1	[0, 0, 0]	n/a	FR1	1	R1130M
42.422	1.6	69996	PRACTICE_WORD	n/a	n/a	CAMEL	4	-1	[0, 0, 0]	n/a	FR1	1	R1130M
44.972	1.6	71271	PRACTICE_WORD	n/a	n/a	TONGUE	5	-1	[0, 0, 0]	n/a	FR1	1	R1130M
47.456	1.6	72513	PRACTICE_WORD	n/a	n/a	RHINO	6	-1	[0, 0, 0]	n/a	FR1	1	R1130M
49.857	1.6	73713	PRACTICE_WORD	n/a	n/a	ATTIC	7	-1	[0, 0, 0]	n/a	FR1	1	R1130M
52.34	1.6	74955	PRACTICE_WORD	n/a	n/a	WAGON	8	-1	[0, 0, 0]	n/a	FR1	1	R1130M
54.874	1.6	76222	PRACTICE_WORD	n/a	n/a	IRON	9	-1	[0, 0, 0]	n/a	FR1	1	R1130M
57.391	1.6	77480	PRACTICE_WORD	n/a	n/a	RING	10	-1	[0, 0, 0]	n/a	FR1	1	R1130M
59.809	1.6	78689	PRACTICE_WORD	n/a	n/a	COTTON	11	-1	[0, 0, 0]	n/a	FR1	1	R1130M
62.392	1.6	79980	PRACTICE_WORD	n/a	n/a	WATCH	12	-1	[0, 0, 0]	n/a	FR1	1	R1130M
64.009	0.001	80789	PRACTICE_DISTRACT_START	n/a	n/a	n/a	-999	-1	[0, 0, 0]	n/a	FR1	1	R1130M
64.01	0.016	80789	START	n/a	n/a	n/a	-999	-1	[-999, -999, -999]	n/a	FR1	1	R1130M
64.026	13.736	80797	PROB	13.701	n/a	n/a	-999	-1	[2, 3, 3]	8.0	FR1	1	R1130M
77.762	9.517	87665	PROB	9.517	n/a	n/a	-999	-1	[1, 8, 3]	12.0	FR1	1	R1130M
87.279	0.018	92423	STOP	n/a	n/a	n/a	-999	-1	[-999, -999, -999]	n/a	FR1	1	R1130M
87.297	0.619	92432	PRACTICE_DISTRACT_END	n/a	n/a	n/a	-999	-1	[0, 0, 0]	n/a	FR1	1	R1130M
87.916	30.515	92742	PRACTICE_REC_START	n/a	n/a	n/a	-999	-1	[0, 0, 0]	n/a	FR1	1	R1130M
118.431	14.191	107998	PRACTICE_REC_END	n/a	n/a	n/a	-999	-1	[0, 0, 0]	n/a	FR1	1	R1130M
132.622	10.0	115094	COUNTDOWN_START	n/a	n/a	n/a	-999	1	[0, 0, 0]	n/a	FR1	1	R1130M
132.622	10.428	115094	TRIAL	n/a	n/a	n/a	-999	1	[0, 0, 0]	n/a	FR1	1	R1130M
143.05	0.008	120307	COUNTDOWN_END	n/a	n/a	n/a	-999	1	[0, 0, 0]	n/a	FR1	1	R1130M
143.058	1.6	120311	ORIENT	n/a	n/a	n/a	-999	1	[0, 0, 0]	n/a	FR1	1	R1130M
145.492	1.6	121528	WORD	n/a	wordpools/wordpool_EN.txt	SALT	1	1	[0, 0, 0]	n/a	FR1	1	R1130M
147.993	1.6	122779	WORD	n/a	wordpools/wordpool_EN.txt	TRASH	2	1	[0, 0, 0]	n/a	FR1	1	R1130M
150.493	1.6	124029	WORD	n/a	wordpools/wordpool_EN.txt	MAP	3	1	[0, 0, 0]	n/a	FR1	1	R1130M
152.91	1.6	125237	WORD	n/a	wordpools/wordpool_EN.txt	ICE	4	1	[0, 0, 0]	n/a	FR1	1	R1130M
155.294	1.6	126429	WORD	n/a	wordpools/wordpool_EN.txt	SNOW	5	1	[0, 0, 0]	n/a	FR1	1	R1130M
157.911	1.6	127737	WORD	n/a	wordpools/wordpool_EN.txt	STEAM	6	1	[0, 0, 0]	n/a	FR1	1	R1130M
160.428	1.6	128996	WORD	n/a	wordpools/wordpool_EN.txt	BOMB	7	1	[0, 0, 0]	n/a	FR1	1	R1130M
163.046	1.6	130305	WORD	n/a	wordpools/wordpool_EN.txt	ROCK	8	1	[0, 0, 0]	n/a	FR1	1	R1130M
165.595	1.6	131579	WORD	n/a	wordpools/wordpool_EN.txt	TANK	9	1	[0, 0, 0]	n/a	FR1	1	R1130M
167.997	1.6	132780	WORD	n/a	wordpools/wordpool_EN.txt	LAKE	10	1	[0, 0, 0]	n/a	FR1	1	R1130M
170.414	1.6	133988	WORD	n/a	wordpools/wordpool_EN.txt	MOOSE	11	1	[0, 0, 0]	n/a	FR1	1	R1130M
172.864	1.6	135213	WORD	n/a	wordpools/wordpool_EN.txt	STONE	12	1	[0, 0, 0]	n/a	FR1	1	R1130M
174.481	0.001	136022	DISTRACT_START	n/a	n/a	n/a	-999	1	[0, 0, 0]	n/a	FR1	1	R1130M
174.482	0.016	136022	START	n/a	n/a	n/a	-999	1	[-999, -999, -999]	n/a	FR1	1	R1130M
174.498	12.586	136030	PROB	12.549	n/a	n/a	-999	1	[6, 1, 7]	14.0	FR1	1	R1130M
187.084	8.203	142323	PROB	8.203	n/a	n/a	-999	1	[7, 7, 4]	18.0	FR1	1	R1130M
195.287	0.015	146424	STOP	n/a	n/a	n/a	-999	1	[-999, -999, -999]	n/a	FR1	1	R1130M
195.302	1.034	146432	DISTRACT_END	n/a	n/a	n/a	-999	1	[0, 0, 0]	n/a	FR1	1	R1130M
196.336	3.431	146949	REC_START	n/a	n/a	n/a	-999	1	[0, 0, 0]	n/a	FR1	1	R1130M
199.767	10.44	148664	REC_WORD	3.431	n/a	ICE	4	1	[0, 0, 0]	n/a	FR1	1	R1130M
210.207	7.944	153884	REC_WORD	13.871	n/a	SALT	1	1	[0, 0, 0]	n/a	FR1	1	R1130M
218.151	8.195	157856	REC_WORD	21.815	n/a	TRASH	2	1	[0, 0, 0]	n/a	FR1	1	R1130M
226.346	4.228	161953	REC_END	n/a	n/a	n/a	-999	1	[0, 0, 0]	n/a	FR1	1	R1130M
230.574	10.0	164067	COUNTDOWN_START	n/a	n/a	n/a	-999	2	[0, 0, 0]	n/a	FR1	1	R1130M
230.575	10.427	164067	TRIAL	n/a	n/a	n/a	-999	2	[0, 0, 0]	n/a	FR1	1	R1130M
241.002	0.009	169280	COUNTDOWN_END	n/a	n/a	n/a	-999	2	[0, 0, 0]	n/a	FR1	1	R1130M
241.011	1.6	169285	ORIENT	n/a	n/a	n/a	-999	2	[0, 0, 0]	n/a	FR1	1	R1130M
243.461	1.6	170510	WORD	n/a	wordpools/wordpool_EN.txt	CALF	1	2	[0, 0, 0]	n/a	FR1	1	R1130M
246.012	1.6	171785	WORD	n/a	wordpools/wordpool_EN.txt	DITCH	2	2	[0, 0, 0]	n/a	FR1	1	R1130M
248.479	1.6	173019	WORD	n/a	wordpools/wordpool_EN.txt	BEACH	3	2	[0, 0, 0]	n/a	FR1	1	R1130M
250.946	1.6	174252	WORD	n/a	wordpools/wordpool_EN.txt	OWL	4	2	[0, 0, 0]	n/a	FR1	1	R1130M
253.48	1.6	175519	WORD	n/a	wordpools/wordpool_EN.txt	SEA	5	2	[0, 0, 0]	n/a	FR1	1	R1130M
256.013	1.6	176786	WORD	n/a	wordpools/wordpool_EN.txt	SHELL	6	2	[0, 0, 0]	n/a	FR1	1	R1130M
258.58	1.6	178069	WORD	n/a	wordpools/wordpool_EN.txt	PEA	7	2	[0, 0, 0]	n/a	FR1	1	R1130M
261.131	1.6	179344	WORD	n/a	wordpools/wordpool_EN.txt	HORSE	8	2	[0, 0, 0]	n/a	FR1	1	R1130M
263.597	1.6	180577	WORD	n/a	wordpools/wordpool_EN.txt	SOCK	9	2	[0, 0, 0]	n/a	FR1	1	R1130M
266.199	1.6	181878	WORD	n/a	wordpools/wordpool_EN.txt	MULE	10	2	[0, 0, 0]	n/a	FR1	1	R1130M
268.8	1.6	183179	WORD	n/a	wordpools/wordpool_EN.txt	SKUNK	11	2	[0, 0, 0]	n/a	FR1	1	R1130M
271.333	1.6	184445	WORD	n/a	wordpools/wordpool_EN.txt	CLAY	12	2	[0, 0, 0]	n/a	FR1	1	R1130M
272.95	0.001	185254	DISTRACT_START	n/a	n/a	n/a	-999	2	[0, 0, 0]	n/a	FR1	1	R1130M
272.951	0.016	185254	START	n/a	n/a	n/a	-999	2	[-999, -999, -999]	n/a	FR1	1	R1130M
272.967	10.618	185262	PROB	10.583	n/a	n/a	-999	2	[5, 6, 3]	14.0	FR1	1	R1130M
283.585	8.001	190571	PROB	7.973	n/a	n/a	-999	2	[8, 1, 9]	18.0	FR1	1	R1130M
291.586	8.972	194571	PROB	8.972	n/a	n/a	-999	2	[5, 4, 8]	17.0	FR1	1	R1130M
300.558	0.013	199057	STOP	n/a	n/a	n/a	-999	2	[-999, -999, -999]	n/a	FR1	1	R1130M
300.571	1.186	199063	DISTRACT_END	n/a	n/a	n/a	-999	2	[0, 0, 0]	n/a	FR1	1	R1130M
301.757	0.0	199656	REC_START	n/a	n/a	n/a	-999	2	[0, 0, 0]	n/a	FR1	1	R1130M
301.757	30.009	199656	REC_WORD_VV	0.0	n/a	<>	-999	2	[0, 0, 0]	n/a	FR1	1	R1130M
331.766	3.463	214660	REC_END	n/a	n/a	n/a	-999	2	[0, 0, 0]	n/a	FR1	1	R1130M
335.229	0.0	216391	TRIAL	n/a	n/a	n/a	-999	3	[0, 0, 0]	n/a	FR1	1	R1130M
335.229	10.0	216391	COUNTDOWN_START	n/a	n/a	n/a	-999	3	[0, 0, 0]	n/a	FR1	1	R1130M
345.657	0.007	221605	COUNTDOWN_END	n/a	n/a	n/a	-999	3	[0, 0, 0]	n/a	FR1	1	R1130M
345.664	1.6	221609	ORIENT	n/a	n/a	n/a	-999	3	[0, 0, 0]	n/a	FR1	1	R1130M
348.265	1.6	222909	WORD	n/a	wordpools/wordpool_EN.txt	JET	1	3	[0, 0, 0]	n/a	FR1	1	R1130M
350.799	1.6	224176	WORD	n/a	wordpools/wordpool_EN.txt	SAIL	2	3	[0, 0, 0]	n/a	FR1	1	R1130M
353.266	1.6	225409	WORD	n/a	wordpools/wordpool_EN.txt	CLOCK	3	3	[0, 0, 0]	n/a	FR1	1	R1130M
355.883	1.6	226718	WORD	n/a	wordpools/wordpool_EN.txt	SPARK	4	3	[0, 0, 0]	n/a	FR1	1	R1130M
358.4	1.6	227976	WORD	n/a	wordpools/wordpool_EN.txt	EAR	5	3	[0, 0, 0]	n/a	FR1	1	R1130M
360.867	1.6	229210	WORD	n/a	wordpools/wordpool_EN.txt	SHIP	6	3	[0, 0, 0]	n/a	FR1	1	R1130M
363.401	1.6	230477	WORD	n/a	wordpools/wordpool_EN.txt	BLUSH	7	3	[0, 0, 0]	n/a	FR1	1	R1130M
365.802	1.6	231677	WORD	n/a	wordpools/wordpool_EN.txt	PLANE	8	3	[0, 0, 0]	n/a	FR1	1	R1130M
368.352	1.6	232952	WORD	n/a	wordpools/wordpool_EN.txt	LAMP	9	3	[0, 0, 0]	n/a	FR1	1	R1130M
370.953	1.6	234252	WORD	n/a	wordpools/wordpool_EN.txt	PHONE	10	3	[0, 0, 0]	n/a	FR1	1	R1130M
373.487	1.6	235519	WORD	n/a	wordpools/wordpool_EN.txt	CAR	11	3	[0, 0, 0]	n/a	FR1	1	R1130M
376.104	1.6	236828	WORD	n/a	wordpools/wordpool_EN.txt	DOG	12	3	[0, 0, 0]	n/a	FR1	1	R1130M
377.721	0.001	237636	DISTRACT_START	n/a	n/a	n/a	-999	3	[0, 0, 0]	n/a	FR1	1	R1130M
377.722	0.016	237637	START	n/a	n/a	n/a	-999	3	[-999, -999, -999]	n/a	FR1	1	R1130M
377.738	14.186	237645	PROB	14.157	n/a	n/a	-999	3	[9, 1, 4]	14.0	FR1	1	R1130M
391.924	8.067	244737	PROB	8.067	n/a	n/a	-999	3	[5, 7, 2]	14.0	FR1	1	R1130M
399.991	0.017	248771	STOP	n/a	n/a	n/a	-999	3	[-999, -999, -999]	n/a	FR1	1	R1130M
400.008	1.235	248779	DISTRACT_END	n/a	n/a	n/a	-999	3	[0, 0, 0]	n/a	FR1	1	R1130M
401.243	0.0	249397	REC_START	n/a	n/a	n/a	-999	3	[0, 0, 0]	n/a	FR1	1	R1130M
401.243	30.01	249397	REC_WORD_VV	0.0	n/a	<>	-999	3	[0, 0, 0]	n/a	FR1	1	R1130M
431.253	4.196	264401	REC_END	n/a	n/a	n/a	-999	3	[0, 0, 0]	n/a	FR1	1	R1130M
435.449	0.0	266499	TRIAL	n/a	n/a	n/a	-999	4	[0, 0, 0]	n/a	FR1	1	R1130M
435.449	10.0	266499	COUNTDOWN_START	n/a	n/a	n/a	-999	4	[0, 0, 0]	n/a	FR1	1	R1130M
445.877	0.007	271712	COUNTDOWN_END	n/a	n/a	n/a	-999	4	[0, 0, 0]	n/a	FR1	1	R1130M
445.884	1.6	271716	ORIENT	n/a	n/a	n/a	-999	4	[0, 0, 0]	n/a	FR1	1	R1130M
448.318	1.6	272933	WORD	n/a	wordpools/wordpool_EN.txt	MOLE	1	4	[0, 0, 0]	n/a	FR1	1	R1130M
450.735	1.6	274141	WORD	n/a	wordpools/wordpool_EN.txt	SNAIL	2	4	[0, 0, 0]	n/a	FR1	1	R1130M
453.302	1.6	275425	WORD	n/a	wordpools/wordpool_EN.txt	CAVE	3	4	[0, 0, 0]	n/a	FR1	1	R1130M
455.836	1.6	276691	WORD	n/a	wordpools/wordpool_EN.txt	BEAR	4	4	[0, 0, 0]	n/a	FR1	1	R1130M
458.37	1.6	277958	WORD	n/a	wordpools/wordpool_EN.txt	JEEP	5	4	[0, 0, 0]	n/a	FR1	1	R1130M
460.82	1.6	279183	WORD	n/a	wordpools/wordpool_EN.txt	SEAL	6	4	[0, 0, 0]	n/a	FR1	1	R1130M
463.221	1.6	280384	WORD	n/a	wordpools/wordpool_EN.txt	WEED	7	4	[0, 0, 0]	n/a	FR1	1	R1130M
465.738	1.6	281642	WORD	n/a	wordpools/wordpool_EN.txt	LOCK	8	4	[0, 0, 0]	n/a	FR1	1	R1130M
468.238	1.6	282892	WORD	n/a	wordpools/wordpool_EN.txt	WHEEL	9	4	[0, 0, 0]	n/a	FR1	1	R1130M
470.655	1.6	284101	WORD	n/a	wordpools/wordpool_EN.txt	FLEA	10	4	[0, 0, 0]	n/a	FR1	1	R1130M
473.156	1.6	285351	WORD	n/a	wordpools/wordpool_EN.txt	GATE	11	4	[0, 0, 0]	n/a	FR1	1	R1130M
475.773	1.6	286659	WORD	n/a	wordpools/wordpool_EN.txt	KEY	12	4	[0, 0, 0]	n/a	FR1	1	R1130M
477.39	0.001	287468	DISTRACT_START	n/a	n/a	n/a	-999	4	[0, 0, 0]	n/a	FR1	1	R1130M
477.391	0.016	287468	START	n/a	n/a	n/a	-999	4	[-999, -999, -999]	n/a	FR1	1	R1130M
477.407	4.667	287476	PROB	4.632	n/a	n/a	-999	4	[2, 8, 1]	11.0	FR1	1	R1130M
482.074	16.397	289810	PROB	16.397	n/a	n/a	-999	4	[3, 2, 9]	14.0	FR1	1	R1130M
498.471	0.007	298008	STOP	n/a	n/a	n/a	-999	4	[-999, -999, -999]	n/a	FR1	1	R1130M
498.478	1.183	298011	DISTRACT_END	n/a	n/a	n/a	-999	4	[0, 0, 0]	n/a	FR1	1	R1130M
499.661	2.554	298603	REC_START	n/a	n/a	n/a	-999	4	[0, 0, 0]	n/a	FR1	1	R1130M
502.215	1.846	299880	REC_WORD	2.554	n/a	MOLE	1	4	[0, 0, 0]	n/a	FR1	1	R1130M
504.061	1.95	300803	REC_WORD	4.4	n/a	SNAIL	2	4	[0, 0, 0]	n/a	FR1	1	R1130M
506.011	3.037	301778	REC_WORD	6.35	n/a	BEAR	4	4	[0, 0, 0]	n/a	FR1	1	R1130M
509.048	20.623	303296	REC_WORD	9.387	n/a	CAVE	3	4	[0, 0, 0]	n/a	FR1	1	R1130M
529.671	9.415	313607	REC_END	n/a	n/a	n/a	-999	4	[0, 0, 0]	n/a	FR1	1	R1130M
539.086	0.0	318314	TRIAL	n/a	n/a	n/a	-999	5	[0, 0, 0]	n/a	FR1	1	R1130M
539.086	10.0	318314	COUNTDOWN_START	n/a	n/a	n/a	-999	5	[0, 0, 0]	n/a	FR1	1	R1130M
549.514	0.006	323528	COUNTDOWN_END	n/a	n/a	n/a	-999	5	[0, 0, 0]	n/a	FR1	1	R1130M
549.52	1.6	323531	ORIENT	n/a	n/a	n/a	-999	5	[0, 0, 0]	n/a	FR1	1	R1130M
552.005	1.6	324773	WORD	n/a	wordpools/wordpool_EN.txt	SINK	1	5	[0, 0, 0]	n/a	FR1	1	R1130M
554.405	1.6	325973	WORD	n/a	wordpools/wordpool_EN.txt	RAIN	2	5	[0, 0, 0]	n/a	FR1	1	R1130M
556.789	1.6	327165	WORD	n/a	wordpools/wordpool_EN.txt	PURSE	3	5	[0, 0, 0]	n/a	FR1	1	R1130M
559.206	1.6	328374	WORD	n/a	wordpools/wordpool_EN.txt	BAG	4	5	[0, 0, 0]	n/a	FR1	1	R1130M
561.605	1.6	329573	WORD	n/a	wordpools/wordpool_EN.txt	NOSE	5	5	[0, 0, 0]	n/a	FR1	1	R1130M
563.974	1.6	330757	WORD	n/a	wordpools/wordpool_EN.txt	FENCE	6	5	[0, 0, 0]	n/a	FR1	1	R1130M
566.59	1.6	332065	WORD	n/a	wordpools/wordpool_EN.txt	PIPE	7	5	[0, 0, 0]	n/a	FR1	1	R1130M
569.141	1.6	333341	WORD	n/a	wordpools/wordpool_EN.txt	HAND	8	5	[0, 0, 0]	n/a	FR1	1	R1130M
571.591	1.6	334566	WORD	n/a	wordpools/wordpool_EN.txt	SUIT	9	5	[0, 0, 0]	n/a	FR1	1	R1130M
574.009	1.6	335775	WORD	n/a	wordpools/wordpool_EN.txt	BOY	10	5	[0, 0, 0]	n/a	FR1	1	R1130M
576.609	1.6	337075	WORD	n/a	wordpools/wordpool_EN.txt	FLUTE	11	5	[0, 0, 0]	n/a	FR1	1	R1130M
579.043	1.6	338292	WORD	n/a	wordpools/wordpool_EN.txt	SHIRT	12	5	[0, 0, 0]	n/a	FR1	1	R1130M
580.659	0.001	339100	DISTRACT_START	n/a	n/a	n/a	-999	5	[0, 0, 0]	n/a	FR1	1	R1130M
580.66	0.017	339100	START	n/a	n/a	n/a	-999	5	[-999, -999, -999]	n/a	FR1	1	R1130M
580.677	11.586	339109	PROB	11.554	n/a	n/a	-999	5	[5, 6, 9]	20.0	FR1	1	R1130M
592.263	8.35	344901	PROB	8.319	n/a	n/a	-999	5	[6, 9, 6]	21.0	FR1	1	R1130M
600.613	8.642	349076	PROB	8.642	n/a	n/a	-999	5	[8, 2, 7]	17.0	FR1	1	R1130M
609.255	0.011	353397	STOP	n/a	n/a	n/a	-999	5	[-999, -999, -999]	n/a	FR1	1	R1130M
609.266	1.051	353402	DISTRACT_END	n/a	n/a	n/a	-999	5	[0, 0, 0]	n/a	FR1	1	R1130M
610.317	19.326	353928	REC_START	n/a	n/a	n/a	-999	5	[0, 0, 0]	n/a	FR1	1	R1130M
629.643	10.684	363590	REC_WORD	19.326	n/a	POLE	-999	5	[0, 0, 0]	n/a	FR1	1	R1130M
640.327	13.848	368932	REC_END	n/a	n/a	n/a	-999	5	[0, 0, 0]	n/a	FR1	1	R1130M
654.175	0.0	375855	TRIAL	n/a	n/a	n/a	-999	6	[0, 0, 0]	n/a	FR1	1	R1130M
654.175	10.0	375855	COUNTDOWN_START	n/a	n/a	n/a	-999	6	[0, 0, 0]	n/a	FR1	1	R1130M
664.603	0.006	381069	COUNTDOWN_END	n/a	n/a	n/a	-999	6	[0, 0, 0]	n/a	FR1	1	R1130M
664.609	1.6	381072	ORIENT	n/a	n/a	n/a	-999	6	[0, 0, 0]	n/a	FR1	1	R1130M
666.994	1.6	382265	WORD	n/a	wordpools/wordpool_EN.txt	STREET	1	6	[0, 0, 0]	n/a	FR1	1	R1130M
669.56	1.6	383548	WORD	n/a	wordpools/wordpool_EN.txt	PARK	2	6	[0, 0, 0]	n/a	FR1	1	R1130M
672.178	1.6	384856	WORD	n/a	wordpools/wordpool_EN.txt	CLOWN	3	6	[0, 0, 0]	n/a	FR1	1	R1130M
674.695	1.6	386115	WORD	n/a	wordpools/wordpool_EN.txt	TREE	4	6	[0, 0, 0]	n/a	FR1	1	R1130M
677.296	1.6	387415	WORD	n/a	wordpools/wordpool_EN.txt	BLOOM	5	6	[0, 0, 0]	n/a	FR1	1	R1130M
679.88	1.6	388707	WORD	n/a	wordpools/wordpool_EN.txt	VASE	6	6	[0, 0, 0]	n/a	FR1	1	R1130M
682.347	1.6	389941	WORD	n/a	wordpools/wordpool_EN.txt	HILL	7	6	[0, 0, 0]	n/a	FR1	1	R1130M
684.981	1.6	391258	WORD	n/a	wordpools/wordpool_EN.txt	PIE	8	6	[0, 0, 0]	n/a	FR1	1	R1130M
687.597	1.6	392566	WORD	n/a	wordpools/wordpool_EN.txt	BEE	9	6	[0, 0, 0]	n/a	FR1	1	R1130M
689.998	1.6	393766	WORD	n/a	wordpools/wordpool_EN.txt	JUICE	10	6	[0, 0, 0]	n/a	FR1	1	R1130M
692.382	1.6	394958	WORD	n/a	wordpools/wordpool_EN.txt	ELF	11	6	[0, 0, 0]	n/a	FR1	1	R1130M
694.966	1.6	396250	WORD	n/a	wordpools/wordpool_EN.txt	BREAD	12	6	[0, 0, 0]	n/a	FR1	1	R1130M
696.582	0.001	397058	DISTRACT_START	n/a	n/a	n/a	-999	6	[0, 0, 0]	n/a	FR1	1	R1130M
696.583	0.016	397058	START	n/a	n/a	n/a	-999	6	[-999, -999, -999]	n/a	FR1	1	R1130M
696.599	7.385	397066	PROB	7.36	n/a	n/a	-999	6	[1, 7, 3]	11.0	FR1	1	R1130M
703.984	10.752	400759	PROB	10.711	n/a	n/a	-999	6	[8, 9, 5]	22.0	FR1	1	R1130M
714.736	5.481	406134	PROB	5.481	n/a	n/a	-999	6	[1, 5, 6]	12.0	FR1	1	R1130M
720.217	0.004	408875	STOP	n/a	n/a	n/a	-999	6	[-999, -999, -999]	n/a	FR1	1	R1130M
720.221	1.134	408877	DISTRACT_END	n/a	n/a	n/a	-999	6	[0, 0, 0]	n/a	FR1	1	R1130M
721.355	1.909	409444	REC_START	n/a	n/a	n/a	-999	6	[0, 0, 0]	n/a	FR1	1	R1130M
723.264	2.381	410398	REC_WORD	1.909	n/a	STREET	1	6	[0, 0, 0]	n/a	FR1	1	R1130M
725.645	2.526	411588	REC_WORD	4.29	n/a	HILL	7	6	[0, 0, 0]	n/a	FR1	1	R1130M
728.171	1.608	412851	REC_WORD	6.816	n/a	BEE	9	6	[0, 0, 0]	n/a	FR1	1	R1130M
729.779	9.502	413655	REC_WORD	8.424	n/a	PARK	2	6	[0, 0, 0]	n/a	FR1	1	R1130M
739.281	12.085	418406	REC_WORD	17.926	n/a	TREE	4	6	[0, 0, 0]	n/a	FR1	1	R1130M
751.366	9.379	424448	REC_END	n/a	n/a	n/a	-999	6	[0, 0, 0]	n/a	FR1	1	R1130M
760.745	10.0	429137	COUNTDOWN_START	n/a	n/a	n/a	-999	7	[0, 0, 0]	n/a	FR1	1	R1130M
760.746	10.427	429138	TRIAL	n/a	n/a	n/a	-999	7	[0, 0, 0]	n/a	FR1	1	R1130M
771.173	0.008	434351	COUNTDOWN_END	n/a	n/a	n/a	-999	7	[0, 0, 0]	n/a	FR1	1	R1130M
771.181	1.6	434355	ORIENT	n/a	n/a	n/a	-999	7	[0, 0, 0]	n/a	FR1	1	R1130M
773.58	1.6	435555	WORD	n/a	wordpools/wordpool_EN.txt	COUCH	1	7	[0, 0, 0]	n/a	FR1	1	R1130M
775.998	1.6	436764	WORD	n/a	wordpools/wordpool_EN.txt	HORN	2	7	[0, 0, 0]	n/a	FR1	1	R1130M
778.531	1.6	438030	WORD	n/a	wordpools/wordpool_EN.txt	JUDGE	3	7	[0, 0, 0]	n/a	FR1	1	R1130M
780.983	1.6	439256	WORD	n/a	wordpools/wordpool_EN.txt	OAK	4	7	[0, 0, 0]	n/a	FR1	1	R1130M
783.4	1.6	440464	WORD	n/a	wordpools/wordpool_EN.txt	MUD	5	7	[0, 0, 0]	n/a	FR1	1	R1130M
786.0	1.6	441764	WORD	n/a	wordpools/wordpool_EN.txt	STRAW	6	7	[0, 0, 0]	n/a	FR1	1	R1130M
788.6	1.6	443064	WORD	n/a	wordpools/wordpool_EN.txt	APE	7	7	[0, 0, 0]	n/a	FR1	1	R1130M
791.168	1.6	444348	WORD	n/a	wordpools/wordpool_EN.txt	ARM	8	7	[0, 0, 0]	n/a	FR1	1	R1130M
793.634	1.6	445581	WORD	n/a	wordpools/wordpool_EN.txt	MOUTH	9	7	[0, 0, 0]	n/a	FR1	1	R1130M
796.086	1.6	446807	WORD	n/a	wordpools/wordpool_EN.txt	JAIL	10	7	[0, 0, 0]	n/a	FR1	1	R1130M
798.703	1.6	448115	WORD	n/a	wordpools/wordpool_EN.txt	SNAKE	11	7	[0, 0, 0]	n/a	FR1	1	R1130M
801.187	1.6	449357	WORD	n/a	wordpools/wordpool_EN.txt	BATH	12	7	[0, 0, 0]	n/a	FR1	1	R1130M
802.804	0.001	450166	DISTRACT_START	n/a	n/a	n/a	-999	7	[0, 0, 0]	n/a	FR1	1	R1130M
802.805	0.015	450166	START	n/a	n/a	n/a	-999	7	[-999, -999, -999]	n/a	FR1	1	R1130M
802.82	9.701	450174	PROB	9.667	n/a	n/a	-999	7	[5, 5, 6]	16.0	FR1	1	R1130M
812.521	6.452	455024	PROB	6.43	n/a	n/a	-999	7	[2, 9, 2]	13.0	FR1	1	R1130M
818.973	3.922	458250	PROB	3.922	n/a	n/a	-999	7	[5, 3, 1]	9.0	FR1	1	R1130M
822.895	0.012	460211	STOP	n/a	n/a	n/a	-999	7	[-999, -999, -999]	n/a	FR1	1	R1130M
822.907	1.052	460217	DISTRACT_END	n/a	n/a	n/a	-999	7	[0, 0, 0]	n/a	FR1	1	R1130M
823.959	12.719	460743	REC_START	n/a	n/a	n/a	-999	7	[0, 0, 0]	n/a	FR1	1	R1130M
836.678	11.078	467102	REC_WORD	12.719	n/a	COUCH	1	7	[0, 0, 0]	n/a	FR1	1	R1130M
847.756	6.213	472641	REC_WORD	23.797	n/a	LAMP	-999	7	[0, 0, 0]	n/a	FR1	1	R1130M
853.969	18.515	475747	REC_END	n/a	n/a	n/a	-999	7	[0, 0, 0]	n/a	FR1	1	R1130M
872.484	0.0	485004	TRIAL	n/a	n/a	n/a	-999	8	[0, 0, 0]	n/a	FR1	1	R1130M
872.484	10.0	485004	COUNTDOWN_START	n/a	n/a	n/a	-999	8	[0, 0, 0]	n/a	FR1	1	R1130M
882.912	0.007	490218	COUNTDOWN_END	n/a	n/a	n/a	-999	8	[0, 0, 0]	n/a	FR1	1	R1130M
882.919	1.6	490221	ORIENT	n/a	n/a	n/a	-999	8	[0, 0, 0]	n/a	FR1	1	R1130M
885.353	1.6	491438	WORD	n/a	wordpools/wordpool_EN.txt	CHIEF	1	8	[0, 0, 0]	n/a	FR1	1	R1130M
887.837	1.6	492680	WORD	n/a	wordpools/wordpool_EN.txt	BENCH	2	8	[0, 0, 0]	n/a	FR1	1	R1130M
890.287	1.6	493905	WORD	n/a	wordpools/wordpool_EN.txt	PALM	3	8	[0, 0, 0]	n/a	FR1	1	R1130M
892.754	1.6	495138	WORD	n/a	wordpools/wordpool_EN.txt	SHIELD	4	8	[0, 0, 0]	n/a	FR1	1	R1130M
895.205	1.6	496364	WORD	n/a	wordpools/wordpool_EN.txt	CAKE	5	8	[0, 0, 0]	n/a	FR1	1	R1130M
897.621	1.6	497572	WORD	n/a	wordpools/wordpool_EN.txt	COIN	6	8	[0, 0, 0]	n/a	FR1	1	R1130M
900.223	1.6	498873	WORD	n/a	wordpools/wordpool_EN.txt	ROSE	7	8	[0, 0, 0]	n/a	FR1	1	R1130M
902.74	1.6	500131	WORD	n/a	wordpools/wordpool_EN.txt	RICE	8	8	[0, 0, 0]	n/a	FR1	1	R1130M
905.14	1.6	501331	WORD	n/a	wordpools/wordpool_EN.txt	CHAIR	9	8	[0, 0, 0]	n/a	FR1	1	R1130M
907.606	1.6	502564	WORD	n/a	wordpools/wordpool_EN.txt	CUP	10	8	[0, 0, 0]	n/a	FR1	1	R1130M
909.974	1.6	503748	WORD	n/a	wordpools/wordpool_EN.txt	DRUM	11	8	[0, 0, 0]	n/a	FR1	1	R1130M
912.508	1.6	505015	WORD	n/a	wordpools/wordpool_EN.txt	FROG	12	8	[0, 0, 0]	n/a	FR1	1	R1130M
914.125	0.001	505823	DISTRACT_START	n/a	n/a	n/a	-999	8	[0, 0, 0]	n/a	FR1	1	R1130M
914.126	0.016	505824	START	n/a	n/a	n/a	-999	8	[-999, -999, -999]	n/a	FR1	1	R1130M
914.142	6.818	505832	PROB	6.793	n/a	n/a	-999	8	[2, 5, 5]	12.0	FR1	1	R1130M
920.96	5.534	509241	PROB	5.511	n/a	n/a	-999	8	[1, 9, 6]	16.0	FR1	1	R1130M
926.494	5.285	512007	PROB	5.249	n/a	n/a	-999	8	[4, 2, 5]	11.0	FR1	1	R1130M
931.779	11.98	514650	PROB	11.98	n/a	n/a	-999	8	[6, 8, 7]	21.0	FR1	1	R1130M
943.759	0.005	520639	STOP	n/a	n/a	n/a	-999	8	[-999, -999, -999]	n/a	FR1	1	R1130M
943.764	1.051	520642	DISTRACT_END	n/a	n/a	n/a	-999	8	[0, 0, 0]	n/a	FR1	1	R1130M
944.815	5.056	521167	REC_START	n/a	n/a	n/a	-999	8	[0, 0, 0]	n/a	FR1	1	R1130M
949.871	1.928	523695	REC_WORD	5.056	n/a	CHIEF	1	8	[0, 0, 0]	n/a	FR1	1	R1130M
951.799	1.509	524659	REC_WORD	6.984	n/a	COIN	6	8	[0, 0, 0]	n/a	FR1	1	R1130M
953.308	1.743	525414	REC_WORD	8.493	n/a	CAKE	5	8	[0, 0, 0]	n/a	FR1	1	R1130M
955.051	19.776	526285	REC_WORD	10.236	n/a	CUP	10	8	[0, 0, 0]	n/a	FR1	1	R1130M
974.827	13.812	536173	REC_END	n/a	n/a	n/a	-999	8	[0, 0, 0]	n/a	FR1	1	R1130M
988.639	10.0	543078	COUNTDOWN_START	n/a	n/a	n/a	-999	9	[0, 0, 0]	n/a	FR1	1	R1130M
988.639	10.428	543078	TRIAL	n/a	n/a	n/a	-999	9	[0, 0, 0]	n/a	FR1	1	R1130M
999.067	0.008	548292	COUNTDOWN_END	n/a	n/a	n/a	-999	9	[0, 0, 0]	n/a	FR1	1	R1130M
999.075	1.6	548296	ORIENT	n/a	n/a	n/a	-999	9	[0, 0, 0]	n/a	FR1	1	R1130M
1001.541	1.6	549529	WORD	n/a	wordpools/wordpool_EN.txt	WALL	1	9	[0, 0, 0]	n/a	FR1	1	R1130M
1004.093	1.6	550805	WORD	n/a	wordpools/wordpool_EN.txt	VEST	2	9	[0, 0, 0]	n/a	FR1	1	R1130M
1006.542	1.6	552029	WORD	n/a	wordpools/wordpool_EN.txt	SLUSH	3	9	[0, 0, 0]	n/a	FR1	1	R1130M
1008.91	1.6	553213	WORD	n/a	wordpools/wordpool_EN.txt	BOX	4	9	[0, 0, 0]	n/a	FR1	1	R1130M
1011.478	1.6	554497	WORD	n/a	wordpools/wordpool_EN.txt	THREAD	5	9	[0, 0, 0]	n/a	FR1	1	R1130M
1013.945	1.6	555730	WORD	n/a	wordpools/wordpool_EN.txt	PASTE	6	9	[0, 0, 0]	n/a	FR1	1	R1130M
1016.412	1.6	556964	WORD	n/a	wordpools/wordpool_EN.txt	WOOD	7	9	[0, 0, 0]	n/a	FR1	1	R1130M
1018.962	1.6	558239	WORD	n/a	wordpools/wordpool_EN.txt	PIN	8	9	[0, 0, 0]	n/a	FR1	1	R1130M
1021.512	1.6	559514	WORD	n/a	wordpools/wordpool_EN.txt	SQUARE	9	9	[0, 0, 0]	n/a	FR1	1	R1130M
1023.963	1.6	560739	WORD	n/a	wordpools/wordpool_EN.txt	DOCK	10	9	[0, 0, 0]	n/a	FR1	1	R1130M
1026.48	1.6	561998	WORD	n/a	wordpools/wordpool_EN.txt	BOARD	11	9	[0, 0, 0]	n/a	FR1	1	R1130M
1028.931	1.6	563223	WORD	n/a	wordpools/wordpool_EN.txt	YARD	12	9	[0, 0, 0]	n/a	FR1	1	R1130M
1030.547	0.001	564031	DISTRACT_START	n/a	n/a	n/a	-999	9	[0, 0, 0]	n/a	FR1	1	R1130M
1030.548	0.016	564031	START	n/a	n/a	n/a	-999	9	[-999, -999, -999]	n/a	FR1	1	R1130M
1030.564	8.235	564039	PROB	8.211	n/a	n/a	-999	9	[6, 9, 2]	17.0	FR1	1	R1130M
1038.799	6.585	568157	PROB	6.552	n/a	n/a	-999	9	[4, 2, 4]	10.0	FR1	1	R1130M
1045.384	11.127	571449	PROB	11.127	n/a	n/a	-999	9	[3, 4, 9]	16.0	FR1	1	R1130M
1056.511	0.008	577012	STOP	n/a	n/a	n/a	-999	9	[-999, -999, -999]	n/a	FR1	1	R1130M
1056.519	1.134	577016	DISTRACT_END	n/a	n/a	n/a	-999	9	[0, 0, 0]	n/a	FR1	1	R1130M
1057.653	5.448	577583	REC_START	n/a	n/a	n/a	-999	9	[0, 0, 0]	n/a	FR1	1	R1130M
1063.101	3.269	580307	REC_WORD	5.448	n/a	THREAD	5	9	[0, 0, 0]	n/a	FR1	1	R1130M
1066.37	21.293	581941	REC_WORD	8.717	n/a	WALL	1	9	[0, 0, 0]	n/a	FR1	1	R1130M
1087.663	21.067	592587	REC_END	n/a	n/a	n/a	-999	9	[0, 0, 0]	n/a	FR1	1	R1130M
1108.73	10.0	603120	COUNTDOWN_START	n/a	n/a	n/a	-999	10	[0, 0, 0]	n/a	FR1	1	R1130M
1108.73	10.428	603120	TRIAL	n/a	n/a	n/a	-999	10	[0, 0, 0]	n/a	FR1	1	R1130M
1119.158	0.007	608334	COUNTDOWN_END	n/a	n/a	n/a	-999	10	[0, 0, 0]	n/a	FR1	1	R1130M
1119.165	1.6	608337	ORIENT	n/a	n/a	n/a	-999	10	[0, 0, 0]	n/a	FR1	1	R1130M
1121.565	1.6	609537	WORD	n/a	wordpools/wordpool_EN.txt	BOOT	1	10	[0, 0, 0]	n/a	FR1	1	R1130M
1124.016	1.6	610763	WORD	n/a	wordpools/wordpool_EN.txt	CROW	2	10	[0, 0, 0]	n/a	FR1	1	R1130M
1126.515	1.6	612012	WORD	n/a	wordpools/wordpool_EN.txt	CANE	3	10	[0, 0, 0]	n/a	FR1	1	R1130M
1128.9	1.6	613205	WORD	n/a	wordpools/wordpool_EN.txt	BOWL	4	10	[0, 0, 0]	n/a	FR1	1	R1130M
1131.434	1.6	614472	WORD	n/a	wordpools/wordpool_EN.txt	SPRING	5	10	[0, 0, 0]	n/a	FR1	1	R1130M
1133.835	1.6	615672	WORD	n/a	wordpools/wordpool_EN.txt	COW	6	10	[0, 0, 0]	n/a	FR1	1	R1130M
1136.252	1.6	616881	WORD	n/a	wordpools/wordpool_EN.txt	GRASS	7	10	[0, 0, 0]	n/a	FR1	1	R1130M
1138.786	1.6	618147	WORD	n/a	wordpools/wordpool_EN.txt	BROOM	8	10	[0, 0, 0]	n/a	FR1	1	R1130M
1141.319	1.6	619414	WORD	n/a	wordpools/wordpool_EN.txt	BUSH	9	10	[0, 0, 0]	n/a	FR1	1	R1130M
1143.87	1.6	620689	WORD	n/a	wordpools/wordpool_EN.txt	STOVE	10	10	[0, 0, 0]	n/a	FR1	1	R1130M
1146.287	1.6	621898	WORD	n/a	wordpools/wordpool_EN.txt	CUBE	11	10	[0, 0, 0]	n/a	FR1	1	R1130M
1148.704	1.6	623106	WORD	n/a	wordpools/wordpool_EN.txt	HEN	12	10	[0, 0, 0]	n/a	FR1	1	R1130M
1150.321	0.001	623915	DISTRACT_START	n/a	n/a	n/a	-999	10	[0, 0, 0]	n/a	FR1	1	R1130M
1150.322	0.016	623915	START	n/a	n/a	n/a	-999	10	[-999, -999, -999]	n/a	FR1	1	R1130M
1150.338	11.519	623923	PROB	11.485	n/a	n/a	-999	10	[7, 4, 2]	13.0	FR1	1	R1130M
1161.857	5.201	629682	PROB	5.174	n/a	n/a	-999	10	[8, 2, 1]	11.0	FR1	1	R1130M
1167.058	12.309	632283	PROB	12.309	n/a	n/a	-999	10	[3, 5, 6]	14.0	FR1	1	R1130M
1179.367	0.01	638437	STOP	n/a	n/a	n/a	-999	10	[-999, -999, -999]	n/a	FR1	1	R1130M
1179.377	1.15	638442	DISTRACT_END	n/a	n/a	n/a	-999	10	[0, 0, 0]	n/a	FR1	1	R1130M
1180.527	4.073	639017	REC_START	n/a	n/a	n/a	-999	10	[0, 0, 0]	n/a	FR1	1	R1130M
1184.6	2.328	641053	REC_WORD	4.073	n/a	BOOT	1	10	[0, 0, 0]	n/a	FR1	1	R1130M
1186.928	4.232	642217	REC_WORD	6.401	n/a	COW	6	10	[0, 0, 0]	n/a	FR1	1	R1130M
1191.16	3.153	644333	REC_WORD	10.633	n/a	CANE	3	10	[0, 0, 0]	n/a	FR1	1	R1130M
1194.313	15.344	645909	REC_WORD	13.786	n/a	BROOM	8	10	[0, 0, 0]	n/a	FR1	1	R1130M
1209.657	0.881	653581	REC_WORD	29.13	n/a	BOX	-999	10	[0, 0, 0]	n/a	FR1	1	R1130M
1210.538	32.801	654021	REC_END	n/a	n/a	n/a	-999	10	[0, 0, 0]	n/a	FR1	1	R1130M
1243.339	0.0	670421	TRIAL	n/a	n/a	n/a	-999	11	[0, 0, 0]	n/a	FR1	1	R1130M
1243.339	10.0	670421	COUNTDOWN_START	n/a	n/a	n/a	-999	11	[0, 0, 0]	n/a	FR1	1	R1130M
1253.767	0.008	675635	COUNTDOWN_END	n/a	n/a	n/a	-999	11	[0, 0, 0]	n/a	FR1	1	R1130M
1253.775	1.6	675639	ORIENT	n/a	n/a	n/a	-999	11	[0, 0, 0]	n/a	FR1	1	R1130M
1256.325	1.6	676914	WORD	n/a	wordpools/wordpool_EN.txt	WEB	1	11	[0, 0, 0]	n/a	FR1	1	R1130M
1258.776	1.6	678139	WORD	n/a	wordpools/wordpool_EN.txt	SHOE	2	11	[0, 0, 0]	n/a	FR1	1	R1130M
1261.259	1.6	679381	WORD	n/a	wordpools/wordpool_EN.txt	WHALE	3	11	[0, 0, 0]	n/a	FR1	1	R1130M
1263.81	1.6	680656	WORD	n/a	wordpools/wordpool_EN.txt	TENT	4	11	[0, 0, 0]	n/a	FR1	1	R1130M
1266.444	1.6	681973	WORD	n/a	wordpools/wordpool_EN.txt	FUR	5	11	[0, 0, 0]	n/a	FR1	1	R1130M
1268.927	1.6	683214	WORD	n/a	wordpools/wordpool_EN.txt	STOOL	6	11	[0, 0, 0]	n/a	FR1	1	R1130M
1271.378	1.6	684440	WORD	n/a	wordpools/wordpool_EN.txt	PANTS	7	11	[0, 0, 0]	n/a	FR1	1	R1130M
1273.929	1.6	685715	WORD	n/a	wordpools/wordpool_EN.txt	TOE	8	11	[0, 0, 0]	n/a	FR1	1	R1130M
1276.545	1.6	687023	WORD	n/a	wordpools/wordpool_EN.txt	GOAT	9	11	[0, 0, 0]	n/a	FR1	1	R1130M
1279.063	1.6	688282	WORD	n/a	wordpools/wordpool_EN.txt	ROOF	10	11	[0, 0, 0]	n/a	FR1	1	R1130M
1281.662	1.6	689581	WORD	n/a	wordpools/wordpool_EN.txt	FAN	11	11	[0, 0, 0]	n/a	FR1	1	R1130M
1284.181	1.6	690841	WORD	n/a	wordpools/wordpool_EN.txt	FACE	12	11	[0, 0, 0]	n/a	FR1	1	R1130M
1285.797	0.001	691649	DISTRACT_START	n/a	n/a	n/a	-999	11	[0, 0, 0]	n/a	FR1	1	R1130M
1285.798	0.016	691649	START	n/a	n/a	n/a	-999	11	[-999, -999, -999]	n/a	FR1	1	R1130M
1285.814	8.485	691657	PROB	8.457	n/a	n/a	-999	11	[1, 4, 5]	10.0	FR1	1	R1130M
1294.299	6.051	695900	PROB	6.02	n/a	n/a	-999	11	[9, 6, 4]	19.0	FR1	1	R1130M
1300.35	6.393	698925	PROB	6.393	n/a	n/a	-999	11	[1, 2, 4]	7.0	FR1	1	R1130M
1306.743	0.009	702121	STOP	n/a	n/a	n/a	-999	11	[-999, -999, -999]	n/a	FR1	1	R1130M
1306.752	1.184	702126	DISTRACT_END	n/a	n/a	n/a	-999	11	[0, 0, 0]	n/a	FR1	1	R1130M
1307.936	1.885	702718	REC_START	n/a	n/a	n/a	-999	11	[0, 0, 0]	n/a	FR1	1	R1130M
1309.821	0.799	703660	REC_WORD	1.885	n/a	WEB	1	11	[0, 0, 0]	n/a	FR1	1	R1130M
1310.62	16.932	704060	REC_WORD	2.684	n/a	WHALE	3	11	[0, 0, 0]	n/a	FR1	1	R1130M
1327.552	10.394	712525	REC_WORD	19.616	n/a	TENT	4	11	[0, 0, 0]	n/a	FR1	1	R1130M
1337.946	8.73	717722	REC_END	n/a	n/a	n/a	-999	11	[0, 0, 0]	n/a	FR1	1	R1130M
1346.676	0.0	722087	TRIAL	n/a	n/a	n/a	-999	12	[0, 0, 0]	n/a	FR1	1	R1130M
1346.676	10.0	722087	COUNTDOWN_START	n/a	n/a	n/a	-999	12	[0, 0, 0]	n/a	FR1	1	R1130M
1357.104	0.007	727300	COUNTDOWN_END	n/a	n/a	n/a	-999	12	[0, 0, 0]	n/a	FR1	1	R1130M
1357.111	1.6	727304	ORIENT	n/a	n/a	n/a	-999	12	[0, 0, 0]	n/a	FR1	1	R1130M
1359.729	1.6	728613	WORD	n/a	wordpools/wordpool_EN.txt	STICK	1	12	[0, 0, 0]	n/a	FR1	1	R1130M
1362.112	1.6	729804	WORD	n/a	wordpools/wordpool_EN.txt	MUG	2	12	[0, 0, 0]	n/a	FR1	1	R1130M
1364.662	1.6	731079	WORD	n/a	wordpools/wordpool_EN.txt	FOOT	3	12	[0, 0, 0]	n/a	FR1	1	R1130M
1367.113	1.6	732305	WORD	n/a	wordpools/wordpool_EN.txt	CHEEK	4	12	[0, 0, 0]	n/a	FR1	1	R1130M
1369.73	1.6	733613	WORD	n/a	wordpools/wordpool_EN.txt	RUG	5	12	[0, 0, 0]	n/a	FR1	1	R1130M
1372.298	1.6	734897	WORD	n/a	wordpools/wordpool_EN.txt	DOOR	6	12	[0, 0, 0]	n/a	FR1	1	R1130M
1374.815	1.6	736155	WORD	n/a	wordpools/wordpool_EN.txt	THUMB	7	12	[0, 0, 0]	n/a	FR1	1	R1130M
1377.299	1.6	737397	WORD	n/a	wordpools/wordpool_EN.txt	EEL	8	12	[0, 0, 0]	n/a	FR1	1	R1130M
1379.916	1.6	738706	WORD	n/a	wordpools/wordpool_EN.txt	CHIN	9	12	[0, 0, 0]	n/a	FR1	1	R1130M
1382.366	1.6	739931	WORD	n/a	wordpools/wordpool_EN.txt	LIP	10	12	[0, 0, 0]	n/a	FR1	1	R1130M
1384.867	1.6	741181	WORD	n/a	wordpools/wordpool_EN.txt	SIGN	11	12	[0, 0, 0]	n/a	FR1	1	R1130M
1387.417	1.6	742456	WORD	n/a	wordpools/wordpool_EN.txt	BED	12	12	[0, 0, 0]	n/a	FR1	1	R1130M
1389.034	0.001	743264	DISTRACT_START	n/a	n/a	n/a	-999	12	[0, 0, 0]	n/a	FR1	1	R1130M
1389.035	0.016	743265	START	n/a	n/a	n/a	-999	12	[-999, -999, -999]	n/a	FR1	1	R1130M
1389.051	6.885	743273	PROB	6.852	n/a	n/a	-999	12	[3, 6, 9]	18.0	FR1	1	R1130M
1395.936	12.819	746715	PROB	12.791	n/a	n/a	-999	12	[9, 7, 3]	19.0	FR1	1	R1130M
1408.755	7.236	753124	PROB	7.236	n/a	n/a	-999	12	[8, 7, 6]	21.0	FR1	1	R1130M
1415.991	0.015	756742	STOP	n/a	n/a	n/a	-999	12	[-999, -999, -999]	n/a	FR1	1	R1130M
1416.006	1.151	756750	DISTRACT_END	n/a	n/a	n/a	-999	12	[0, 0, 0]	n/a	FR1	1	R1130M
1417.157	9.324	757325	REC_START	n/a	n/a	n/a	-999	12	[0, 0, 0]	n/a	FR1	1	R1130M
1426.481	20.685	761987	REC_WORD	9.324	n/a	STICK	1	12	[0, 0, 0]	n/a	FR1	1	R1130M
1447.166	4.914	772329	REC_END	n/a	n/a	n/a	-999	12	[0, 0, 0]	n/a	FR1	1	R1130M
1452.08	0.0	774786	TRIAL	n/a	n/a	n/a	-999	13	[0, 0, 0]	n/a	FR1	1	R1130M
1452.08	10.0	774786	COUNTDOWN_START	n/a	n/a	n/a	-999	13	[0, 0, 0]	n/a	FR1	1	R1130M
1462.508	0.006	779999	COUNTDOWN_END	n/a	n/a	n/a	-999	13	[0, 0, 0]	n/a	FR1	1	R1130M
1462.514	1.6	780002	ORIENT	n/a	n/a	n/a	-999	13	[0, 0, 0]	n/a	FR1	1	R1130M
1465.116	1.6	781303	WORD	n/a	wordpools/wordpool_EN.txt	CLOTH	1	13	[0, 0, 0]	n/a	FR1	1	R1130M
1467.499	1.6	782495	WORD	n/a	wordpools/wordpool_EN.txt	ZOO	2	13	[0, 0, 0]	n/a	FR1	1	R1130M
1469.933	1.6	783712	WORD	n/a	wordpools/wordpool_EN.txt	GUARD	3	13	[0, 0, 0]	n/a	FR1	1	R1130M
1472.533	1.6	785012	WORD	n/a	wordpools/wordpool_EN.txt	DEER	4	13	[0, 0, 0]	n/a	FR1	1	R1130M
1475.051	1.6	786271	WORD	n/a	wordpools/wordpool_EN.txt	INK	5	13	[0, 0, 0]	n/a	FR1	1	R1130M
1477.651	1.6	787570	WORD	n/a	wordpools/wordpool_EN.txt	MAIL	6	13	[0, 0, 0]	n/a	FR1	1	R1130M
1480.035	1.6	788762	WORD	n/a	wordpools/wordpool_EN.txt	FOAM	7	13	[0, 0, 0]	n/a	FR1	1	R1130M
1482.535	1.6	790012	WORD	n/a	wordpools/wordpool_EN.txt	PIT	8	13	[0, 0, 0]	n/a	FR1	1	R1130M
1484.986	1.6	791238	WORD	n/a	wordpools/wordpool_EN.txt	BADGE	9	13	[0, 0, 0]	n/a	FR1	1	R1130M
1487.569	1.6	792529	WORD	n/a	wordpools/wordpool_EN.txt	CAGE	10	13	[0, 0, 0]	n/a	FR1	1	R1130M
1489.971	1.6	793730	WORD	n/a	wordpools/wordpool_EN.txt	BEAK	11	13	[0, 0, 0]	n/a	FR1	1	R1130M
1492.438	1.6	794964	WORD	n/a	wordpools/wordpool_EN.txt	SHEET	12	13	[0, 0, 0]	n/a	FR1	1	R1130M
1494.055	0.001	795772	DISTRACT_START	n/a	n/a	n/a	-999	13	[0, 0, 0]	n/a	FR1	1	R1130M
1494.056	0.015	795773	START	n/a	n/a	n/a	-999	13	[-999, -999, -999]	n/a	FR1	1	R1130M
1494.071	10.386	795780	PROB	10.36	n/a	n/a	-999	13	[2, 5, 8]	15.0	FR1	1	R1130M
1504.457	4.334	800973	PROB	4.294	n/a	n/a	-999	13	[8, 2, 2]	12.0	FR1	1	R1130M
1508.791	6.52	803140	PROB	6.52	n/a	n/a	-999	13	[9, 6, 7]	22.0	FR1	1	R1130M
1515.311	0.014	806399	STOP	n/a	n/a	n/a	-999	13	[-999, -999, -999]	n/a	FR1	1	R1130M
1515.325	1.185	806406	DISTRACT_END	n/a	n/a	n/a	-999	13	[0, 0, 0]	n/a	FR1	1	R1130M
1516.51	30.0	806999	REC_START	n/a	n/a	n/a	-999	13	[0, 0, 0]	n/a	FR1	1	R1130M
1546.51	0.01	821998	REC_WORD_VV	30.0	n/a	<>	-999	13	[0, 0, 0]	n/a	FR1	1	R1130M
1546.52	43.002	822003	REC_END	n/a	n/a	n/a	-999	13	[0, 0, 0]	n/a	FR1	1	R1130M
1589.522	10.0	843503	COUNTDOWN_START	n/a	n/a	n/a	-999	14	[0, 0, 0]	n/a	FR1	1	R1130M
1589.522	10.428	843503	TRIAL	n/a	n/a	n/a	-999	14	[0, 0, 0]	n/a	FR1	1	R1130M
1599.95	0.009	848717	COUNTDOWN_END	n/a	n/a	n/a	-999	14	[0, 0, 0]	n/a	FR1	1	R1130M
1599.959	1.6	848721	ORIENT	n/a	n/a	n/a	-999	14	[0, 0, 0]	n/a	FR1	1	R1130M
1602.442	1.6	849962	WORD	n/a	wordpools/wordpool_EN.txt	TEA	1	14	[0, 0, 0]	n/a	FR1	1	R1130M
1604.926	1.6	851204	WORD	n/a	wordpools/wordpool_EN.txt	FARM	2	14	[0, 0, 0]	n/a	FR1	1	R1130M
1607.393	1.6	852438	WORD	n/a	wordpools/wordpool_EN.txt	SEAT	3	14	[0, 0, 0]	n/a	FR1	1	R1130M
1609.861	1.6	853672	WORD	n/a	wordpools/wordpool_EN.txt	BRUSH	4	14	[0, 0, 0]	n/a	FR1	1	R1130M
1612.378	1.6	854930	WORD	n/a	wordpools/wordpool_EN.txt	AXE	5	14	[0, 0, 0]	n/a	FR1	1	R1130M
1614.945	1.6	856214	WORD	n/a	wordpools/wordpool_EN.txt	SLEEVE	6	14	[0, 0, 0]	n/a	FR1	1	R1130M
1617.495	1.6	857489	WORD	n/a	wordpools/wordpool_EN.txt	CORN	7	14	[0, 0, 0]	n/a	FR1	1	R1130M
1619.879	1.6	858681	WORD	n/a	wordpools/wordpool_EN.txt	HOSE	8	14	[0, 0, 0]	n/a	FR1	1	R1130M
1622.329	1.6	859905	WORD	n/a	wordpools/wordpool_EN.txt	SMILE	9	14	[0, 0, 0]	n/a	FR1	1	R1130M
1624.78	1.6	861131	WORD	n/a	wordpools/wordpool_EN.txt	POLE	10	14	[0, 0, 0]	n/a	FR1	1	R1130M
1627.297	1.6	862389	WORD	n/a	wordpools/wordpool_EN.txt	DART	11	14	[0, 0, 0]	n/a	FR1	1	R1130M
1629.731	1.6	863606	WORD	n/a	wordpools/wordpool_EN.txt	HAT	12	14	[0, 0, 0]	n/a	FR1	1	R1130M
1631.348	0.001	864415	DISTRACT_START	n/a	n/a	n/a	-999	14	[0, 0, 0]	n/a	FR1	1	R1130M
1631.349	0.016	864415	START	n/a	n/a	n/a	-999	14	[-999, -999, -999]	n/a	FR1	1	R1130M
1631.365	7.118	864423	PROB	7.09	n/a	n/a	-999	14	[8, 4, 6]	18.0	FR1	1	R1130M
1638.483	6.468	867982	PROB	6.436	n/a	n/a	-999	14	[2, 2, 6]	10.0	FR1	1	R1130M
1644.951	5.451	871216	PROB	5.416	n/a	n/a	-999	14	[9, 1, 3]	13.0	FR1	1	R1130M
1650.402	6.309	873941	PROB	6.309	n/a	n/a	-999	14	[1, 3, 7]	11.0	FR1	1	R1130M
1656.711	0.009	877095	STOP	n/a	n/a	n/a	-999	14	[-999, -999, -999]	n/a	FR1	1	R1130M
1656.72	1.034	877100	DISTRACT_END	n/a	n/a	n/a	-999	14	[0, 0, 0]	n/a	FR1	1	R1130M
1657.754	1.493	877617	REC_START	n/a	n/a	n/a	-999	14	[0, 0, 0]	n/a	FR1	1	R1130M
1659.247	13.706	878363	REC_WORD	1.493	n/a	POLE	10	14	[0, 0, 0]	n/a	FR1	1	R1130M
1672.953	14.812	885216	REC_WORD	15.199	n/a	SMILE	9	14	[0, 0, 0]	n/a	FR1	1	R1130M
1687.765	11.396	892622	REC_END	n/a	n/a	n/a	-999	14	[0, 0, 0]	n/a	FR1	1	R1130M
1699.161	10.0	898319	COUNTDOWN_START	n/a	n/a	n/a	-999	15	[0, 0, 0]	n/a	FR1	1	R1130M
1699.162	10.427	898320	TRIAL	n/a	n/a	n/a	-999	15	[0, 0, 0]	n/a	FR1	1	R1130M
1709.589	0.007	903533	COUNTDOWN_END	n/a	n/a	n/a	-999	15	[0, 0, 0]	n/a	FR1	1	R1130M
1709.596	1.6	903537	ORIENT	n/a	n/a	n/a	-999	15	[0, 0, 0]	n/a	FR1	1	R1130M
1712.047	1.6	904762	WORD	n/a	wordpools/wordpool_EN.txt	TAIL	1	15	[0, 0, 0]	n/a	FR1	1	R1130M
1714.447	1.6	905962	WORD	n/a	wordpools/wordpool_EN.txt	WOLF	2	15	[0, 0, 0]	n/a	FR1	1	R1130M
1717.081	1.6	907279	WORD	n/a	wordpools/wordpool_EN.txt	NEST	3	15	[0, 0, 0]	n/a	FR1	1	R1130M
1719.531	1.6	908504	WORD	n/a	wordpools/wordpool_EN.txt	KITE	4	15	[0, 0, 0]	n/a	FR1	1	R1130M
1721.916	1.6	909696	WORD	n/a	wordpools/wordpool_EN.txt	DUCK	5	15	[0, 0, 0]	n/a	FR1	1	R1130M
1724.366	1.6	910921	WORD	n/a	wordpools/wordpool_EN.txt	RAT	6	15	[0, 0, 0]	n/a	FR1	1	R1130M
1726.75	1.6	912113	WORD	n/a	wordpools/wordpool_EN.txt	HOLE	7	15	[0, 0, 0]	n/a	FR1	1	R1130M
1729.217	1.6	913346	WORD	n/a	wordpools/wordpool_EN.txt	PIG	8	15	[0, 0, 0]	n/a	FR1	1	R1130M
1731.616	1.6	914546	WORD	n/a	wordpools/wordpool_EN.txt	PRINCE	9	15	[0, 0, 0]	n/a	FR1	1	R1130M
1734.085	1.6	915780	WORD	n/a	wordpools/wordpool_EN.txt	RAKE	10	15	[0, 0, 0]	n/a	FR1	1	R1130M
1736.485	1.6	916980	WORD	n/a	wordpools/wordpool_EN.txt	BARN	11	15	[0, 0, 0]	n/a	FR1	1	R1130M
1738.902	1.6	918189	WORD	n/a	wordpools/wordpool_EN.txt	PEN	12	15	[0, 0, 0]	n/a	FR1	1	R1130M
1740.518	0.001	918997	DISTRACT_START	n/a	n/a	n/a	-999	15	[0, 0, 0]	n/a	FR1	1	R1130M
1740.519	0.016	918997	START	n/a	n/a	n/a	-999	15	[-999, -999, -999]	n/a	FR1	1	R1130M
1740.535	10.002	919005	PROB	9.976	n/a	n/a	-999	15	[6, 8, 6]	20.0	FR1	1	R1130M
1750.537	6.084	924006	PROB	6.061	n/a	n/a	-999	15	[2, 6, 6]	14.0	FR1	1	R1130M
1756.621	4.57	927048	PROB	4.57	n/a	n/a	-999	15	[4, 3, 1]	8.0	FR1	1	R1130M
1761.191	0.016	929333	STOP	n/a	n/a	n/a	-999	15	[-999, -999, -999]	n/a	FR1	1	R1130M
1761.207	1.217	929341	DISTRACT_END	n/a	n/a	n/a	-999	15	[0, 0, 0]	n/a	FR1	1	R1130M
1762.424	2.805	929949	REC_START	n/a	n/a	n/a	-999	15	[0, 0, 0]	n/a	FR1	1	R1130M
1765.229	6.179	931351	REC_WORD	2.805	n/a	RAKE	10	15	[0, 0, 0]	n/a	FR1	1	R1130M
1771.408	21.031	934441	REC_WORD	8.984	n/a	BARN	11	15	[0, 0, 0]	n/a	FR1	1	R1130M
1792.439	26.144	944956	REC_END	n/a	n/a	n/a	-999	15	[0, 0, 0]	n/a	FR1	1	R1130M
1818.583	10.0	958027	COUNTDOWN_START	n/a	n/a	n/a	-999	16	[0, 0, 0]	n/a	FR1	1	R1130M
1818.584	0.0	958027	TRIAL	n/a	n/a	n/a	-999	16	[0, 0, 0]	n/a	FR1	1	R1130M
