onset	duration	sample	trial_type	response_time	stim_file	item_name	serialpos	list	test	answer	experiment	session	subject
0.0	22.933	111027	SESS_START	n/a	n/a	n/a	-999	-999	[0, 0, 0]	n/a	FR1	0	R1155D
22.933	10.0	147718	COUNTDOWN_START	n/a	n/a	n/a	-999	-999	[0, 0, 0]	n/a	FR1	0	R1155D
33.361	3.79	164402	COUNTDOWN_END	n/a	n/a	n/a	-999	-999	[0, 0, 0]	n/a	FR1	0	R1155D
37.151	1.6	170466	PRACTICE_WORD	n/a	n/a	TONGUE	1	-1	[0, 0, 0]	n/a	FR1	0	R1155D
39.602	1.6	174387	PRACTICE_WORD	n/a	n/a	BEAM	2	-1	[0, 0, 0]	n/a	FR1	0	R1155D
42.02	1.6	178256	PRACTICE_WORD	n/a	n/a	ATTIC	3	-1	[0, 0, 0]	n/a	FR1	0	R1155D
44.419	1.6	182094	PRACTICE_WORD	n/a	n/a	CAMEL	4	-1	[0, 0, 0]	n/a	FR1	0	R1155D
46.803	1.6	185908	PRACTICE_WORD	n/a	n/a	WAGON	5	-1	[0, 0, 0]	n/a	FR1	0	R1155D
49.287	1.6	189883	PRACTICE_WORD	n/a	n/a	CHEST	6	-1	[0, 0, 0]	n/a	FR1	0	R1155D
51.872	1.6	194018	PRACTICE_WORD	n/a	n/a	COTTON	7	-1	[0, 0, 0]	n/a	FR1	0	R1155D
54.371	1.6	198017	PRACTICE_WORD	n/a	n/a	IRON	8	-1	[0, 0, 0]	n/a	FR1	0	R1155D
56.772	1.6	201858	PRACTICE_WORD	n/a	n/a	RHINO	9	-1	[0, 0, 0]	n/a	FR1	0	R1155D
59.155	1.6	205671	PRACTICE_WORD	n/a	n/a	RING	10	-1	[0, 0, 0]	n/a	FR1	0	R1155D
61.706	1.6	209752	PRACTICE_WORD	n/a	n/a	WATCH	11	-1	[0, 0, 0]	n/a	FR1	0	R1155D
64.189	1.6	213725	PRACTICE_WORD	n/a	n/a	FLOOD	12	-1	[0, 0, 0]	n/a	FR1	0	R1155D
65.79	0.0	216286	PRACTICE_DISTRACT_START	n/a	n/a	n/a	-999	-1	[0, 0, 0]	n/a	FR1	0	R1155D
65.79	0.017	216286	START	n/a	n/a	n/a	-999	-1	[-999, -999, -999]	n/a	FR1	0	R1155D
65.807	14.22	216313	PROB	14.198	n/a	n/a	-999	-1	[8, 3, 7]	18.0	FR1	0	R1155D
80.027	13.601	239064	PROB	13.601	n/a	n/a	-999	-1	[9, 3, 6]	18.0	FR1	0	R1155D
93.628	0.017	260825	STOP	n/a	n/a	n/a	-999	-1	[-999, -999, -999]	n/a	FR1	0	R1155D
93.645	0.552	260852	PRACTICE_DISTRACT_END	n/a	n/a	n/a	-999	-1	[0, 0, 0]	n/a	FR1	0	R1155D
94.197	30.515	261735	PRACTICE_REC_START	n/a	n/a	n/a	-999	-1	[0, 0, 0]	n/a	FR1	0	R1155D
124.712	40.68	310556	PRACTICE_REC_END	n/a	n/a	n/a	-999	-1	[0, 0, 0]	n/a	FR1	0	R1155D
165.392	0.0	375641	TRIAL	n/a	n/a	n/a	-999	1	[0, 0, 0]	n/a	FR1	0	R1155D
165.392	10.0	375641	COUNTDOWN_START	n/a	n/a	n/a	-999	1	[0, 0, 0]	n/a	FR1	0	R1155D
175.82	0.008	392325	COUNTDOWN_END	n/a	n/a	n/a	-999	1	[0, 0, 0]	n/a	FR1	0	R1155D
175.828	1.6	392338	ORIENT	n/a	n/a	n/a	-999	1	[0, 0, 0]	n/a	FR1	0	R1155D
178.361	1.6	396390	WORD	n/a	wordpools/wordpool_EN.txt	TRAY	1	1	[0, 0, 0]	n/a	FR1	0	R1155D
180.912	1.6	400472	WORD	n/a	wordpools/wordpool_EN.txt	SPOON	2	1	[0, 0, 0]	n/a	FR1	0	R1155D
183.511	1.6	404630	WORD	n/a	wordpools/wordpool_EN.txt	TIE	3	1	[0, 0, 0]	n/a	FR1	0	R1155D
185.946	1.6	408526	WORD	n/a	wordpools/wordpool_EN.txt	FROG	4	1	[0, 0, 0]	n/a	FR1	0	R1155D
188.462	1.6	412551	WORD	n/a	wordpools/wordpool_EN.txt	SMILE	5	1	[0, 0, 0]	n/a	FR1	0	R1155D
190.914	1.6	416474	WORD	n/a	wordpools/wordpool_EN.txt	FORK	6	1	[0, 0, 0]	n/a	FR1	0	R1155D
193.297	1.6	420287	WORD	n/a	wordpools/wordpool_EN.txt	VEST	7	1	[0, 0, 0]	n/a	FR1	0	R1155D
195.68	1.6	424099	WORD	n/a	wordpools/wordpool_EN.txt	ARM	8	1	[0, 0, 0]	n/a	FR1	0	R1155D
198.231	1.6	428181	WORD	n/a	wordpools/wordpool_EN.txt	BREAD	9	1	[0, 0, 0]	n/a	FR1	0	R1155D
200.731	1.6	432181	WORD	n/a	wordpools/wordpool_EN.txt	GOAT	10	1	[0, 0, 0]	n/a	FR1	0	R1155D
203.132	1.6	436022	WORD	n/a	wordpools/wordpool_EN.txt	PIE	11	1	[0, 0, 0]	n/a	FR1	0	R1155D
205.649	1.6	440049	WORD	n/a	wordpools/wordpool_EN.txt	STEAK	12	1	[0, 0, 0]	n/a	FR1	0	R1155D
207.266	0.001	442636	DISTRACT_START	n/a	n/a	n/a	-999	1	[0, 0, 0]	n/a	FR1	0	R1155D
207.267	0.015	442638	START	n/a	n/a	n/a	-999	1	[-999, -999, -999]	n/a	FR1	0	R1155D
207.282	8.919	442662	PROB	8.898	n/a	n/a	-999	1	[2, 9, 7]	20.0	FR1	0	R1155D
216.201	7.184	456931	PROB	7.155	n/a	n/a	-999	1	[4, 2, 1]	7.0	FR1	0	R1155D
223.385	11.995	468425	PROB	11.995	n/a	n/a	-999	1	[7, 8, 2]	17.0	FR1	0	R1155D
235.38	0.008	487616	STOP	n/a	n/a	n/a	-999	1	[-999, -999, -999]	n/a	FR1	0	R1155D
235.388	1.104	487629	DISTRACT_END	n/a	n/a	n/a	-999	1	[0, 0, 0]	n/a	FR1	0	R1155D
236.492	6.268	489395	REC_START	n/a	n/a	n/a	-999	1	[0, 0, 0]	n/a	FR1	0	R1155D
242.76	6.438	499424	REC_WORD	6.268	n/a	BREAD	9	1	[0, 0, 0]	n/a	FR1	0	R1155D
249.198	1.381	509724	REC_WORD	12.706	n/a	FORK	6	1	[0, 0, 0]	n/a	FR1	0	R1155D
250.579	1.922	511933	REC_WORD	14.087	n/a	PIE	11	1	[0, 0, 0]	n/a	FR1	0	R1155D
252.501	6.51	515008	REC_WORD	16.009	n/a	ARM	8	1	[0, 0, 0]	n/a	FR1	0	R1155D
259.011	7.489	525424	REC_WORD	22.519	n/a	STEAK	12	1	[0, 0, 0]	n/a	FR1	0	R1155D
266.5	4.328	537406	REC_END	n/a	n/a	n/a	-999	1	[0, 0, 0]	n/a	FR1	0	R1155D
270.828	10.0	544330	COUNTDOWN_START	n/a	n/a	n/a	-999	2	[0, 0, 0]	n/a	FR1	0	R1155D
270.829	10.427	544332	TRIAL	n/a	n/a	n/a	-999	2	[0, 0, 0]	n/a	FR1	0	R1155D
281.256	0.007	561014	COUNTDOWN_END	n/a	n/a	n/a	-999	2	[0, 0, 0]	n/a	FR1	0	R1155D
281.263	1.6	561025	ORIENT	n/a	n/a	n/a	-999	2	[0, 0, 0]	n/a	FR1	0	R1155D
283.713	1.6	564945	WORD	n/a	wordpools/wordpool_EN.txt	DUCK	1	2	[0, 0, 0]	n/a	FR1	0	R1155D
286.28	1.6	569052	WORD	n/a	wordpools/wordpool_EN.txt	ZOO	2	2	[0, 0, 0]	n/a	FR1	0	R1155D
288.781	1.6	573053	WORD	n/a	wordpools/wordpool_EN.txt	SOUP	3	2	[0, 0, 0]	n/a	FR1	0	R1155D
291.248	1.6	577000	WORD	n/a	wordpools/wordpool_EN.txt	CLAY	4	2	[0, 0, 0]	n/a	FR1	0	R1155D
293.849	1.6	581162	WORD	n/a	wordpools/wordpool_EN.txt	MOUSE	5	2	[0, 0, 0]	n/a	FR1	0	R1155D
296.232	1.6	584974	WORD	n/a	wordpools/wordpool_EN.txt	SKUNK	6	2	[0, 0, 0]	n/a	FR1	0	R1155D
298.732	1.6	588974	WORD	n/a	wordpools/wordpool_EN.txt	ANT	7	2	[0, 0, 0]	n/a	FR1	0	R1155D
301.2	1.6	592923	WORD	n/a	wordpools/wordpool_EN.txt	MOOSE	8	2	[0, 0, 0]	n/a	FR1	0	R1155D
303.783	1.6	597055	WORD	n/a	wordpools/wordpool_EN.txt	ROCK	9	2	[0, 0, 0]	n/a	FR1	0	R1155D
306.2	1.6	600922	WORD	n/a	wordpools/wordpool_EN.txt	SPONGE	10	2	[0, 0, 0]	n/a	FR1	0	R1155D
308.601	1.6	604764	WORD	n/a	wordpools/wordpool_EN.txt	TENT	11	2	[0, 0, 0]	n/a	FR1	0	R1155D
311.069	1.6	608712	WORD	n/a	wordpools/wordpool_EN.txt	SNAKE	12	2	[0, 0, 0]	n/a	FR1	0	R1155D
312.685	0.001	611298	DISTRACT_START	n/a	n/a	n/a	-999	2	[0, 0, 0]	n/a	FR1	0	R1155D
312.686	0.016	611299	START	n/a	n/a	n/a	-999	2	[-999, -999, -999]	n/a	FR1	0	R1155D
312.702	7.034	611325	PROB	6.998	n/a	n/a	-999	2	[8, 1, 3]	12.0	FR1	0	R1155D
319.736	9.086	622579	PROB	9.06	n/a	n/a	-999	2	[4, 3, 3]	10.0	FR1	0	R1155D
328.822	15.111	637116	PROB	15.111	n/a	n/a	-999	2	[9, 4, 8]	21.0	FR1	0	R1155D
343.933	0.009	661292	STOP	n/a	n/a	n/a	-999	2	[-999, -999, -999]	n/a	FR1	0	R1155D
343.942	1.034	661306	DISTRACT_END	n/a	n/a	n/a	-999	2	[0, 0, 0]	n/a	FR1	0	R1155D
344.976	4.871	662961	REC_START	n/a	n/a	n/a	-999	2	[0, 0, 0]	n/a	FR1	0	R1155D
349.847	1.068	670754	REC_WORD	4.871	n/a	SKUNK	6	2	[0, 0, 0]	n/a	FR1	0	R1155D
350.915	2.397	672463	REC_WORD	5.939	n/a	SNAKE	12	2	[0, 0, 0]	n/a	FR1	0	R1155D
353.312	21.674	676298	REC_WORD	8.336	n/a	ZOO	2	2	[0, 0, 0]	n/a	FR1	0	R1155D
374.986	4.544	710974	REC_END	n/a	n/a	n/a	-999	2	[0, 0, 0]	n/a	FR1	0	R1155D
379.53	10.0	718244	COUNTDOWN_START	n/a	n/a	n/a	-999	3	[0, 0, 0]	n/a	FR1	0	R1155D
379.531	10.427	718246	TRIAL	n/a	n/a	n/a	-999	3	[0, 0, 0]	n/a	FR1	0	R1155D
389.958	0.009	734928	COUNTDOWN_END	n/a	n/a	n/a	-999	3	[0, 0, 0]	n/a	FR1	0	R1155D
389.967	1.6	734943	ORIENT	n/a	n/a	n/a	-999	3	[0, 0, 0]	n/a	FR1	0	R1155D
392.516	1.6	739021	WORD	n/a	wordpools/wordpool_EN.txt	PASTE	1	3	[0, 0, 0]	n/a	FR1	0	R1155D
394.984	1.6	742969	WORD	n/a	wordpools/wordpool_EN.txt	PEAR	2	3	[0, 0, 0]	n/a	FR1	0	R1155D
397.434	1.6	746889	WORD	n/a	wordpools/wordpool_EN.txt	LEG	3	3	[0, 0, 0]	n/a	FR1	0	R1155D
400.052	1.6	751078	WORD	n/a	wordpools/wordpool_EN.txt	APE	4	3	[0, 0, 0]	n/a	FR1	0	R1155D
402.535	1.6	755050	WORD	n/a	wordpools/wordpool_EN.txt	CONE	5	3	[0, 0, 0]	n/a	FR1	0	R1155D
405.019	1.6	759025	WORD	n/a	wordpools/wordpool_EN.txt	SEED	6	3	[0, 0, 0]	n/a	FR1	0	R1155D
407.569	1.6	763104	WORD	n/a	wordpools/wordpool_EN.txt	CLOTH	7	3	[0, 0, 0]	n/a	FR1	0	R1155D
410.136	1.6	767211	WORD	n/a	wordpools/wordpool_EN.txt	LEAF	8	3	[0, 0, 0]	n/a	FR1	0	R1155D
412.686	1.6	771291	WORD	n/a	wordpools/wordpool_EN.txt	RAT	9	3	[0, 0, 0]	n/a	FR1	0	R1155D
415.303	1.6	775478	WORD	n/a	wordpools/wordpool_EN.txt	WING	10	3	[0, 0, 0]	n/a	FR1	0	R1155D
417.754	1.6	779400	WORD	n/a	wordpools/wordpool_EN.txt	CHIEF	11	3	[0, 0, 0]	n/a	FR1	0	R1155D
420.238	1.6	783374	WORD	n/a	wordpools/wordpool_EN.txt	PLANT	12	3	[0, 0, 0]	n/a	FR1	0	R1155D
421.856	0.001	785962	DISTRACT_START	n/a	n/a	n/a	-999	3	[0, 0, 0]	n/a	FR1	0	R1155D
421.857	0.015	785964	START	n/a	n/a	n/a	-999	3	[-999, -999, -999]	n/a	FR1	0	R1155D
421.872	11.818	785988	PROB	11.788	n/a	n/a	-999	3	[6, 4, 9]	19.0	FR1	0	R1155D
433.69	14.682	804896	PROB	14.682	n/a	n/a	-999	3	[6, 4, 3]	13.0	FR1	0	R1155D
448.372	0.021	828386	STOP	n/a	n/a	n/a	-999	3	[-999, -999, -999]	n/a	FR1	0	R1155D
448.393	1.167	828420	DISTRACT_END	n/a	n/a	n/a	-999	3	[0, 0, 0]	n/a	FR1	0	R1155D
449.56	3.756	830287	REC_START	n/a	n/a	n/a	-999	3	[0, 0, 0]	n/a	FR1	0	R1155D
453.316	4.758	836296	REC_WORD	3.756	n/a	CHIEF	11	3	[0, 0, 0]	n/a	FR1	0	R1155D
458.074	21.501	843908	REC_WORD	8.514	n/a	CLOTH	7	3	[0, 0, 0]	n/a	FR1	0	R1155D
479.575	5.376	878308	REC_END	n/a	n/a	n/a	-999	3	[0, 0, 0]	n/a	FR1	0	R1155D
484.951	0.0	886909	TRIAL	n/a	n/a	n/a	-999	4	[0, 0, 0]	n/a	FR1	0	R1155D
484.951	10.0	886909	COUNTDOWN_START	n/a	n/a	n/a	-999	4	[0, 0, 0]	n/a	FR1	0	R1155D
495.379	0.006	903593	COUNTDOWN_END	n/a	n/a	n/a	-999	4	[0, 0, 0]	n/a	FR1	0	R1155D
495.385	1.6	903603	ORIENT	n/a	n/a	n/a	-999	4	[0, 0, 0]	n/a	FR1	0	R1155D
498.003	1.6	907791	WORD	n/a	wordpools/wordpool_EN.txt	HAWK	1	4	[0, 0, 0]	n/a	FR1	0	R1155D
500.452	1.6	911710	WORD	n/a	wordpools/wordpool_EN.txt	BEE	2	4	[0, 0, 0]	n/a	FR1	0	R1155D
503.004	1.6	915793	WORD	n/a	wordpools/wordpool_EN.txt	SEAT	3	4	[0, 0, 0]	n/a	FR1	0	R1155D
505.387	1.6	919605	WORD	n/a	wordpools/wordpool_EN.txt	CORN	4	4	[0, 0, 0]	n/a	FR1	0	R1155D
507.905	1.6	923634	WORD	n/a	wordpools/wordpool_EN.txt	COW	5	4	[0, 0, 0]	n/a	FR1	0	R1155D
510.504	1.6	927792	WORD	n/a	wordpools/wordpool_EN.txt	BARN	6	4	[0, 0, 0]	n/a	FR1	0	R1155D
513.089	1.6	931928	WORD	n/a	wordpools/wordpool_EN.txt	OWL	7	4	[0, 0, 0]	n/a	FR1	0	R1155D
515.488	1.6	935766	WORD	n/a	wordpools/wordpool_EN.txt	PET	8	4	[0, 0, 0]	n/a	FR1	0	R1155D
518.09	1.6	939929	WORD	n/a	wordpools/wordpool_EN.txt	LAMB	9	4	[0, 0, 0]	n/a	FR1	0	R1155D
520.706	1.6	944114	WORD	n/a	wordpools/wordpool_EN.txt	SKY	10	4	[0, 0, 0]	n/a	FR1	0	R1155D
523.273	1.6	948221	WORD	n/a	wordpools/wordpool_EN.txt	FLEA	11	4	[0, 0, 0]	n/a	FR1	0	R1155D
525.774	1.6	952223	WORD	n/a	wordpools/wordpool_EN.txt	EEL	12	4	[0, 0, 0]	n/a	FR1	0	R1155D
527.391	0.001	954810	DISTRACT_START	n/a	n/a	n/a	-999	4	[0, 0, 0]	n/a	FR1	0	R1155D
527.392	0.015	954811	START	n/a	n/a	n/a	-999	4	[-999, -999, -999]	n/a	FR1	0	R1155D
527.407	7.885	954835	PROB	7.853	n/a	n/a	-999	4	[9, 3, 6]	18.0	FR1	0	R1155D
535.292	22.04	967451	PROB	22.04	n/a	n/a	-999	4	[9, 9, 6]	24.0	FR1	0	R1155D
557.332	0.014	1002713	STOP	n/a	n/a	n/a	-999	4	[-999, -999, -999]	n/a	FR1	0	R1155D
557.346	1.151	1002735	DISTRACT_END	n/a	n/a	n/a	-999	4	[0, 0, 0]	n/a	FR1	0	R1155D
558.497	2.51	1004577	REC_START	n/a	n/a	n/a	-999	4	[0, 0, 0]	n/a	FR1	0	R1155D
561.007	1.565	1008593	REC_WORD	2.51	n/a	BARN	6	4	[0, 0, 0]	n/a	FR1	0	R1155D
562.572	3.506	1011097	REC_WORD	4.075	n/a	EEL	12	4	[0, 0, 0]	n/a	FR1	0	R1155D
566.078	5.742	1016706	REC_WORD	7.581	n/a	COW	5	4	[0, 0, 0]	n/a	FR1	0	R1155D
571.82	7.855	1025893	REC_WORD	13.323	n/a	HAWK	1	4	[0, 0, 0]	n/a	FR1	0	R1155D
579.675	8.833	1038460	REC_WORD	21.178	n/a	FLEA	11	4	[0, 0, 0]	n/a	FR1	0	R1155D
588.508	3.627	1052592	REC_END	n/a	n/a	n/a	-999	4	[0, 0, 0]	n/a	FR1	0	R1155D
592.135	10.0	1058395	COUNTDOWN_START	n/a	n/a	n/a	-999	5	[0, 0, 0]	n/a	FR1	0	R1155D
592.136	10.427	1058397	TRIAL	n/a	n/a	n/a	-999	5	[0, 0, 0]	n/a	FR1	0	R1155D
602.563	0.008	1075079	COUNTDOWN_END	n/a	n/a	n/a	-999	5	[0, 0, 0]	n/a	FR1	0	R1155D
602.571	1.6	1075092	ORIENT	n/a	n/a	n/a	-999	5	[0, 0, 0]	n/a	FR1	0	R1155D
605.022	1.6	1079013	WORD	n/a	wordpools/wordpool_EN.txt	EAR	1	5	[0, 0, 0]	n/a	FR1	0	R1155D
607.505	1.6	1082986	WORD	n/a	wordpools/wordpool_EN.txt	HOUSE	2	5	[0, 0, 0]	n/a	FR1	0	R1155D
609.873	1.6	1086774	WORD	n/a	wordpools/wordpool_EN.txt	DOOR	3	5	[0, 0, 0]	n/a	FR1	0	R1155D
612.306	1.6	1090667	WORD	n/a	wordpools/wordpool_EN.txt	STREET	4	5	[0, 0, 0]	n/a	FR1	0	R1155D
614.807	1.6	1094668	WORD	n/a	wordpools/wordpool_EN.txt	DIME	5	5	[0, 0, 0]	n/a	FR1	0	R1155D
617.24	1.6	1098561	WORD	n/a	wordpools/wordpool_EN.txt	BED	6	5	[0, 0, 0]	n/a	FR1	0	R1155D
619.641	1.6	1102402	WORD	n/a	wordpools/wordpool_EN.txt	CAKE	7	5	[0, 0, 0]	n/a	FR1	0	R1155D
622.026	1.6	1106218	WORD	n/a	wordpools/wordpool_EN.txt	CART	8	5	[0, 0, 0]	n/a	FR1	0	R1155D
624.542	1.6	1110244	WORD	n/a	wordpools/wordpool_EN.txt	FENCE	9	5	[0, 0, 0]	n/a	FR1	0	R1155D
626.926	1.6	1114058	WORD	n/a	wordpools/wordpool_EN.txt	CUP	10	5	[0, 0, 0]	n/a	FR1	0	R1155D
629.459	1.6	1118110	WORD	n/a	wordpools/wordpool_EN.txt	SLUSH	11	5	[0, 0, 0]	n/a	FR1	0	R1155D
631.994	1.6	1122166	WORD	n/a	wordpools/wordpool_EN.txt	STAIR	12	5	[0, 0, 0]	n/a	FR1	0	R1155D
633.61	0.001	1124752	DISTRACT_START	n/a	n/a	n/a	-999	5	[0, 0, 0]	n/a	FR1	0	R1155D
633.611	0.016	1124753	START	n/a	n/a	n/a	-999	5	[-999, -999, -999]	n/a	FR1	0	R1155D
633.627	6.668	1124779	PROB	6.641	n/a	n/a	-999	5	[2, 1, 6]	9.0	FR1	0	R1155D
640.295	25.997	1135447	PROB	25.997	n/a	n/a	-999	5	[1, 7, 3]	11.0	FR1	0	R1155D
666.292	0.007	1177040	STOP	n/a	n/a	n/a	-999	5	[-999, -999, -999]	n/a	FR1	0	R1155D
666.299	1.151	1177051	DISTRACT_END	n/a	n/a	n/a	-999	5	[0, 0, 0]	n/a	FR1	0	R1155D
667.45	2.049	1178893	REC_START	n/a	n/a	n/a	-999	5	[0, 0, 0]	n/a	FR1	0	R1155D
669.499	1.086	1182171	REC_WORD	2.049	n/a	SLUSH	11	5	[0, 0, 0]	n/a	FR1	0	R1155D
670.585	1.745	1183909	REC_WORD	3.135	n/a	CART	8	5	[0, 0, 0]	n/a	FR1	0	R1155D
672.33	25.131	1186700	REC_WORD	4.88	n/a	FENCE	9	5	[0, 0, 0]	n/a	FR1	0	R1155D
697.461	4.295	1226908	REC_END	n/a	n/a	n/a	-999	5	[0, 0, 0]	n/a	FR1	0	R1155D
701.756	0.0	1233780	TRIAL	n/a	n/a	n/a	-999	6	[0, 0, 0]	n/a	FR1	0	R1155D
701.756	10.0	1233780	COUNTDOWN_START	n/a	n/a	n/a	-999	6	[0, 0, 0]	n/a	FR1	0	R1155D
712.184	0.007	1250464	COUNTDOWN_END	n/a	n/a	n/a	-999	6	[0, 0, 0]	n/a	FR1	0	R1155D
712.191	1.6	1250475	ORIENT	n/a	n/a	n/a	-999	6	[0, 0, 0]	n/a	FR1	0	R1155D
714.758	1.6	1254582	WORD	n/a	wordpools/wordpool_EN.txt	STONE	1	6	[0, 0, 0]	n/a	FR1	0	R1155D
717.192	1.6	1258476	WORD	n/a	wordpools/wordpool_EN.txt	FOAM	2	6	[0, 0, 0]	n/a	FR1	0	R1155D
719.742	1.6	1262556	WORD	n/a	wordpools/wordpool_EN.txt	CUBE	3	6	[0, 0, 0]	n/a	FR1	0	R1155D
722.209	1.6	1266503	WORD	n/a	wordpools/wordpool_EN.txt	BEACH	4	6	[0, 0, 0]	n/a	FR1	0	R1155D
724.61	1.6	1270344	WORD	n/a	wordpools/wordpool_EN.txt	ROOF	5	6	[0, 0, 0]	n/a	FR1	0	R1155D
727.078	1.6	1274293	WORD	n/a	wordpools/wordpool_EN.txt	CAVE	6	6	[0, 0, 0]	n/a	FR1	0	R1155D
729.494	1.6	1278158	WORD	n/a	wordpools/wordpool_EN.txt	WEB	7	6	[0, 0, 0]	n/a	FR1	0	R1155D
731.912	1.6	1282027	WORD	n/a	wordpools/wordpool_EN.txt	HOLE	8	6	[0, 0, 0]	n/a	FR1	0	R1155D
734.312	1.6	1285867	WORD	n/a	wordpools/wordpool_EN.txt	BUSH	9	6	[0, 0, 0]	n/a	FR1	0	R1155D
736.83	1.6	1289895	WORD	n/a	wordpools/wordpool_EN.txt	SNAIL	10	6	[0, 0, 0]	n/a	FR1	0	R1155D
739.362	1.6	1293946	WORD	n/a	wordpools/wordpool_EN.txt	LAKE	11	6	[0, 0, 0]	n/a	FR1	0	R1155D
741.813	1.6	1297868	WORD	n/a	wordpools/wordpool_EN.txt	SPEAR	12	6	[0, 0, 0]	n/a	FR1	0	R1155D
743.43	0.001	1300455	DISTRACT_START	n/a	n/a	n/a	-999	6	[0, 0, 0]	n/a	FR1	0	R1155D
743.431	0.016	1300456	START	n/a	n/a	n/a	-999	6	[-999, -999, -999]	n/a	FR1	0	R1155D
743.447	10.985	1300482	PROB	10.965	n/a	n/a	-999	6	[6, 9, 6]	21.0	FR1	0	R1155D
754.432	14.732	1318057	PROB	14.732	n/a	n/a	-999	6	[2, 2, 3]	7.0	FR1	0	R1155D
769.164	0.004	1341627	STOP	n/a	n/a	n/a	-999	6	[-999, -999, -999]	n/a	FR1	0	R1155D
769.168	1.201	1341633	DISTRACT_END	n/a	n/a	n/a	-999	6	[0, 0, 0]	n/a	FR1	0	R1155D
770.369	4.621	1343555	REC_START	n/a	n/a	n/a	-999	6	[0, 0, 0]	n/a	FR1	0	R1155D
774.99	1.77	1350948	REC_WORD	4.621	n/a	CAVE	6	6	[0, 0, 0]	n/a	FR1	0	R1155D
776.76	5.532	1353780	REC_WORD	6.391	n/a	HOLE	8	6	[0, 0, 0]	n/a	FR1	0	R1155D
782.292	2.52	1362631	REC_WORD_VV	11.923	n/a	<>	-999	6	[0, 0, 0]	n/a	FR1	0	R1155D
784.812	10.177	1366662	REC_WORD_VV	14.443	n/a	<>	-999	6	[0, 0, 0]	n/a	FR1	0	R1155D
794.989	5.39	1382945	REC_WORD	24.62	n/a	CART	-999	6	[0, 0, 0]	n/a	FR1	0	R1155D
800.379	3.395	1391568	REC_END	n/a	n/a	n/a	-999	6	[0, 0, 0]	n/a	FR1	0	R1155D
803.774	0.0	1397000	TRIAL	n/a	n/a	n/a	-999	7	[0, 0, 0]	n/a	FR1	0	R1155D
803.774	10.0	1397000	COUNTDOWN_START	n/a	n/a	n/a	-999	7	[0, 0, 0]	n/a	FR1	0	R1155D
814.202	0.007	1413684	COUNTDOWN_END	n/a	n/a	n/a	-999	7	[0, 0, 0]	n/a	FR1	0	R1155D
814.209	1.6	1413695	ORIENT	n/a	n/a	n/a	-999	7	[0, 0, 0]	n/a	FR1	0	R1155D
816.677	1.6	1417644	WORD	n/a	wordpools/wordpool_EN.txt	MUG	1	7	[0, 0, 0]	n/a	FR1	0	R1155D
819.177	1.6	1421644	WORD	n/a	wordpools/wordpool_EN.txt	TRUCK	2	7	[0, 0, 0]	n/a	FR1	0	R1155D
821.644	1.6	1425591	WORD	n/a	wordpools/wordpool_EN.txt	STOOL	3	7	[0, 0, 0]	n/a	FR1	0	R1155D
824.245	1.6	1429752	WORD	n/a	wordpools/wordpool_EN.txt	PURSE	4	7	[0, 0, 0]	n/a	FR1	0	R1155D
826.678	1.6	1433645	WORD	n/a	wordpools/wordpool_EN.txt	SHELL	5	7	[0, 0, 0]	n/a	FR1	0	R1155D
829.295	1.6	1437832	WORD	n/a	wordpools/wordpool_EN.txt	PEARL	6	7	[0, 0, 0]	n/a	FR1	0	R1155D
831.663	1.6	1441620	WORD	n/a	wordpools/wordpool_EN.txt	MAZE	7	7	[0, 0, 0]	n/a	FR1	0	R1155D
834.064	1.6	1445462	WORD	n/a	wordpools/wordpool_EN.txt	FLOOR	8	7	[0, 0, 0]	n/a	FR1	0	R1155D
836.613	1.6	1449540	WORD	n/a	wordpools/wordpool_EN.txt	VAN	9	7	[0, 0, 0]	n/a	FR1	0	R1155D
839.032	1.6	1453410	WORD	n/a	wordpools/wordpool_EN.txt	HOOK	10	7	[0, 0, 0]	n/a	FR1	0	R1155D
841.548	1.6	1457435	WORD	n/a	wordpools/wordpool_EN.txt	PEA	11	7	[0, 0, 0]	n/a	FR1	0	R1155D
844.083	1.6	1461491	WORD	n/a	wordpools/wordpool_EN.txt	CLOWN	12	7	[0, 0, 0]	n/a	FR1	0	R1155D
845.699	0.0	1464077	DISTRACT_START	n/a	n/a	n/a	-999	7	[0, 0, 0]	n/a	FR1	0	R1155D
845.699	0.016	1464077	START	n/a	n/a	n/a	-999	7	[-999, -999, -999]	n/a	FR1	0	R1155D
845.715	6.102	1464102	PROB	6.081	n/a	n/a	-999	7	[8, 4, 4]	12.0	FR1	0	R1155D
851.817	6.617	1473865	PROB	6.595	n/a	n/a	-999	7	[9, 9, 2]	20.0	FR1	0	R1155D
858.434	9.954	1484452	PROB	9.954	n/a	n/a	-999	7	[4, 7, 1]	12.0	FR1	0	R1155D
868.388	0.015	1500377	STOP	n/a	n/a	n/a	-999	7	[-999, -999, -999]	n/a	FR1	0	R1155D
868.403	1.155	1500401	DISTRACT_END	n/a	n/a	n/a	-999	7	[0, 0, 0]	n/a	FR1	0	R1155D
869.558	1.816	1502249	REC_START	n/a	n/a	n/a	-999	7	[0, 0, 0]	n/a	FR1	0	R1155D
871.374	0.711	1505155	REC_WORD	1.816	n/a	CLOWN	12	7	[0, 0, 0]	n/a	FR1	0	R1155D
872.085	1.638	1506292	REC_WORD	2.527	n/a	PEA	11	7	[0, 0, 0]	n/a	FR1	0	R1155D
873.723	12.431	1508913	REC_WORD	4.165	n/a	PURSE	4	7	[0, 0, 0]	n/a	FR1	0	R1155D
886.154	4.617	1528801	REC_WORD_VV	16.596	n/a	<>	-999	7	[0, 0, 0]	n/a	FR1	0	R1155D
890.771	1.954	1536188	REC_WORD	21.213	n/a	SPOON	-999	7	[0, 0, 0]	n/a	FR1	0	R1155D
892.725	4.672	1539314	REC_WORD	23.167	n/a	STOOL	3	7	[0, 0, 0]	n/a	FR1	0	R1155D
897.397	2.168	1546789	REC_WORD	27.839	n/a	PEA	11	7	[0, 0, 0]	n/a	FR1	0	R1155D
899.565	3.894	1550258	REC_END	n/a	n/a	n/a	-999	7	[0, 0, 0]	n/a	FR1	0	R1155D
903.459	10.0	1556488	COUNTDOWN_START	n/a	n/a	n/a	-999	8	[0, 0, 0]	n/a	FR1	0	R1155D
903.46	10.427	1556490	TRIAL	n/a	n/a	n/a	-999	8	[0, 0, 0]	n/a	FR1	0	R1155D
913.887	0.008	1573172	COUNTDOWN_END	n/a	n/a	n/a	-999	8	[0, 0, 0]	n/a	FR1	0	R1155D
913.895	1.6	1573185	ORIENT	n/a	n/a	n/a	-999	8	[0, 0, 0]	n/a	FR1	0	R1155D
916.528	1.6	1577397	WORD	n/a	wordpools/wordpool_EN.txt	RUG	1	8	[0, 0, 0]	n/a	FR1	0	R1155D
918.913	1.6	1581213	WORD	n/a	wordpools/wordpool_EN.txt	YARD	2	8	[0, 0, 0]	n/a	FR1	0	R1155D
921.496	1.6	1585346	WORD	n/a	wordpools/wordpool_EN.txt	STOVE	3	8	[0, 0, 0]	n/a	FR1	0	R1155D
923.914	1.6	1589214	WORD	n/a	wordpools/wordpool_EN.txt	LOCK	4	8	[0, 0, 0]	n/a	FR1	0	R1155D
926.296	1.6	1593025	WORD	n/a	wordpools/wordpool_EN.txt	FACE	5	8	[0, 0, 0]	n/a	FR1	0	R1155D
928.73	1.6	1596919	WORD	n/a	wordpools/wordpool_EN.txt	BOARD	6	8	[0, 0, 0]	n/a	FR1	0	R1155D
931.164	1.6	1600814	WORD	n/a	wordpools/wordpool_EN.txt	CAGE	7	8	[0, 0, 0]	n/a	FR1	0	R1155D
933.681	1.6	1604841	WORD	n/a	wordpools/wordpool_EN.txt	HORN	8	8	[0, 0, 0]	n/a	FR1	0	R1155D
936.165	1.6	1608815	WORD	n/a	wordpools/wordpool_EN.txt	DRESS	9	8	[0, 0, 0]	n/a	FR1	0	R1155D
938.715	1.6	1612895	WORD	n/a	wordpools/wordpool_EN.txt	DOCK	10	8	[0, 0, 0]	n/a	FR1	0	R1155D
941.232	1.6	1616922	WORD	n/a	wordpools/wordpool_EN.txt	WOOD	11	8	[0, 0, 0]	n/a	FR1	0	R1155D
943.733	1.6	1620923	WORD	n/a	wordpools/wordpool_EN.txt	TOY	12	8	[0, 0, 0]	n/a	FR1	0	R1155D
945.35	0.001	1623510	DISTRACT_START	n/a	n/a	n/a	-999	8	[0, 0, 0]	n/a	FR1	0	R1155D
945.351	0.016	1623512	START	n/a	n/a	n/a	-999	8	[-999, -999, -999]	n/a	FR1	0	R1155D
945.367	8.552	1623537	PROB	8.526	n/a	n/a	-999	8	[6, 3, 4]	13.0	FR1	0	R1155D
953.919	9.534	1637220	PROB	9.509	n/a	n/a	-999	8	[4, 5, 3]	12.0	FR1	0	R1155D
963.453	6.111	1652473	PROB	6.111	n/a	n/a	-999	8	[7, 3, 1]	11.0	FR1	0	R1155D
969.564	0.007	1662251	STOP	n/a	n/a	n/a	-999	8	[-999, -999, -999]	n/a	FR1	0	R1155D
969.571	1.184	1662262	DISTRACT_END	n/a	n/a	n/a	-999	8	[0, 0, 0]	n/a	FR1	0	R1155D
970.755	2.124	1664156	REC_START	n/a	n/a	n/a	-999	8	[0, 0, 0]	n/a	FR1	0	R1155D
972.879	0.499	1667554	REC_WORD	2.124	n/a	RUG	1	8	[0, 0, 0]	n/a	FR1	0	R1155D
973.378	2.163	1668353	REC_WORD	2.623	n/a	BOARD	6	8	[0, 0, 0]	n/a	FR1	0	R1155D
975.541	3.859	1671813	REC_WORD	4.786	n/a	CAGE	7	8	[0, 0, 0]	n/a	FR1	0	R1155D
979.4	16.389	1677987	REC_WORD	8.645	n/a	LOCK	4	8	[0, 0, 0]	n/a	FR1	0	R1155D
995.789	1.955	1704208	REC_WORD_VV	25.034	n/a	<>	-999	8	[0, 0, 0]	n/a	FR1	0	R1155D
997.744	3.019	1707336	REC_WORD_VV	26.989	n/a	<>	-999	8	[0, 0, 0]	n/a	FR1	0	R1155D
1000.763	3.232	1712166	REC_END	n/a	n/a	n/a	-999	8	[0, 0, 0]	n/a	FR1	0	R1155D
1003.995	10.0	1717337	COUNTDOWN_START	n/a	n/a	n/a	-999	9	[0, 0, 0]	n/a	FR1	0	R1155D
1003.995	10.428	1717337	TRIAL	n/a	n/a	n/a	-999	9	[0, 0, 0]	n/a	FR1	0	R1155D
1014.423	0.006	1734021	COUNTDOWN_END	n/a	n/a	n/a	-999	9	[0, 0, 0]	n/a	FR1	0	R1155D
1014.429	1.6	1734031	ORIENT	n/a	n/a	n/a	-999	9	[0, 0, 0]	n/a	FR1	0	R1155D
1016.881	1.6	1737954	WORD	n/a	wordpools/wordpool_EN.txt	SEAL	1	9	[0, 0, 0]	n/a	FR1	0	R1155D
1019.447	1.6	1742059	WORD	n/a	wordpools/wordpool_EN.txt	GOLD	2	9	[0, 0, 0]	n/a	FR1	0	R1155D
1021.965	1.6	1746088	WORD	n/a	wordpools/wordpool_EN.txt	GUARD	3	9	[0, 0, 0]	n/a	FR1	0	R1155D
1024.581	1.6	1750273	WORD	n/a	wordpools/wordpool_EN.txt	NAIL	4	9	[0, 0, 0]	n/a	FR1	0	R1155D
1027.016	1.6	1754169	WORD	n/a	wordpools/wordpool_EN.txt	SQUARE	5	9	[0, 0, 0]	n/a	FR1	0	R1155D
1029.482	1.6	1758114	WORD	n/a	wordpools/wordpool_EN.txt	CAPE	6	9	[0, 0, 0]	n/a	FR1	0	R1155D
1031.933	1.6	1762036	WORD	n/a	wordpools/wordpool_EN.txt	TOOL	7	9	[0, 0, 0]	n/a	FR1	0	R1155D
1034.316	1.6	1765848	WORD	n/a	wordpools/wordpool_EN.txt	CROWN	8	9	[0, 0, 0]	n/a	FR1	0	R1155D
1036.834	1.6	1769877	WORD	n/a	wordpools/wordpool_EN.txt	SWORD	9	9	[0, 0, 0]	n/a	FR1	0	R1155D
1039.234	1.6	1773717	WORD	n/a	wordpools/wordpool_EN.txt	HAND	10	9	[0, 0, 0]	n/a	FR1	0	R1155D
1041.734	1.6	1777717	WORD	n/a	wordpools/wordpool_EN.txt	BLUSH	11	9	[0, 0, 0]	n/a	FR1	0	R1155D
1044.268	1.6	1781771	WORD	n/a	wordpools/wordpool_EN.txt	PIT	12	9	[0, 0, 0]	n/a	FR1	0	R1155D
1045.886	0.001	1784359	DISTRACT_START	n/a	n/a	n/a	-999	9	[0, 0, 0]	n/a	FR1	0	R1155D
1045.887	0.016	1784361	START	n/a	n/a	n/a	-999	9	[-999, -999, -999]	n/a	FR1	0	R1155D
1045.903	8.433	1784387	PROB	8.405	n/a	n/a	-999	9	[4, 8, 3]	15.0	FR1	0	R1155D
1054.336	10.336	1797879	PROB	10.308	n/a	n/a	-999	9	[2, 6, 3]	11.0	FR1	0	R1155D
1064.672	16.293	1814416	PROB	16.293	n/a	n/a	-999	9	[3, 5, 6]	14.0	FR1	0	R1155D
1080.965	0.01	1840483	STOP	n/a	n/a	n/a	-999	9	[-999, -999, -999]	n/a	FR1	0	R1155D
1080.975	1.173	1840499	DISTRACT_END	n/a	n/a	n/a	-999	9	[0, 0, 0]	n/a	FR1	0	R1155D
1082.148	2.45	1842376	REC_START	n/a	n/a	n/a	-999	9	[0, 0, 0]	n/a	FR1	0	R1155D
1084.598	0.765	1846296	REC_WORD	2.45	n/a	PIT	12	9	[0, 0, 0]	n/a	FR1	0	R1155D
1085.363	1.852	1847519	REC_WORD	3.215	n/a	NAIL	4	9	[0, 0, 0]	n/a	FR1	0	R1155D
1087.215	6.759	1850483	REC_WORD_VV	5.067	n/a	<>	-999	9	[0, 0, 0]	n/a	FR1	0	R1155D
1093.974	6.16	1861296	REC_WORD	11.826	n/a	HAWK	-999	9	[0, 0, 0]	n/a	FR1	0	R1155D
1100.134	0.681	1871152	REC_WORD_VV	17.986	n/a	<>	-999	9	[0, 0, 0]	n/a	FR1	0	R1155D
1100.815	4.262	1872241	REC_WORD	18.667	n/a	SWORD	9	9	[0, 0, 0]	n/a	FR1	0	R1155D
1105.077	7.076	1879060	REC_WORD	22.929	n/a	CAGE	-999	9	[0, 0, 0]	n/a	FR1	0	R1155D
1112.153	3.978	1890381	REC_END	n/a	n/a	n/a	-999	9	[0, 0, 0]	n/a	FR1	0	R1155D
1116.131	0.0	1896746	TRIAL	n/a	n/a	n/a	-999	10	[0, 0, 0]	n/a	FR1	0	R1155D
1116.131	10.0	1896746	COUNTDOWN_START	n/a	n/a	n/a	-999	10	[0, 0, 0]	n/a	FR1	0	R1155D
1126.559	0.007	1913430	COUNTDOWN_END	n/a	n/a	n/a	-999	10	[0, 0, 0]	n/a	FR1	0	R1155D
1126.566	1.6	1913441	ORIENT	n/a	n/a	n/a	-999	10	[0, 0, 0]	n/a	FR1	0	R1155D
1129.15	1.6	1917575	WORD	n/a	wordpools/wordpool_EN.txt	MULE	1	10	[0, 0, 0]	n/a	FR1	0	R1155D
1131.717	1.6	1921682	WORD	n/a	wordpools/wordpool_EN.txt	STORM	2	10	[0, 0, 0]	n/a	FR1	0	R1155D
1134.134	1.6	1925549	WORD	n/a	wordpools/wordpool_EN.txt	HEN	3	10	[0, 0, 0]	n/a	FR1	0	R1155D
1136.568	1.6	1929443	WORD	n/a	wordpools/wordpool_EN.txt	EGG	4	10	[0, 0, 0]	n/a	FR1	0	R1155D
1139.168	1.6	1933603	WORD	n/a	wordpools/wordpool_EN.txt	SKI	5	10	[0, 0, 0]	n/a	FR1	0	R1155D
1141.652	1.6	1937577	WORD	n/a	wordpools/wordpool_EN.txt	PEN	6	10	[0, 0, 0]	n/a	FR1	0	R1155D
1144.169	1.6	1941604	WORD	n/a	wordpools/wordpool_EN.txt	FORT	7	10	[0, 0, 0]	n/a	FR1	0	R1155D
1146.653	1.6	1945578	WORD	n/a	wordpools/wordpool_EN.txt	BEAK	8	10	[0, 0, 0]	n/a	FR1	0	R1155D
1149.038	1.6	1949394	WORD	n/a	wordpools/wordpool_EN.txt	SAIL	9	10	[0, 0, 0]	n/a	FR1	0	R1155D
1151.487	1.6	1953312	WORD	n/a	wordpools/wordpool_EN.txt	FARM	10	10	[0, 0, 0]	n/a	FR1	0	R1155D
1154.022	1.6	1957368	WORD	n/a	wordpools/wordpool_EN.txt	FUR	11	10	[0, 0, 0]	n/a	FR1	0	R1155D
1156.488	1.6	1961314	WORD	n/a	wordpools/wordpool_EN.txt	TRAIN	12	10	[0, 0, 0]	n/a	FR1	0	R1155D
1158.089	0.001	1963875	DISTRACT_START	n/a	n/a	n/a	-999	10	[0, 0, 0]	n/a	FR1	0	R1155D
1158.09	0.016	1963877	START	n/a	n/a	n/a	-999	10	[-999, -999, -999]	n/a	FR1	0	R1155D
1158.106	8.051	1963902	PROB	8.018	n/a	n/a	-999	10	[2, 5, 2]	9.0	FR1	0	R1155D
1166.157	8.251	1976783	PROB	8.231	n/a	n/a	-999	10	[4, 4, 1]	9.0	FR1	0	R1155D
1174.408	11.52	1989984	PROB	11.501	n/a	n/a	-999	10	[1, 9, 6]	16.0	FR1	0	R1155D
1185.928	1.084	2008415	DISTRACT_END	n/a	n/a	n/a	-999	10	[0, 0, 0]	n/a	FR1	0	R1155D
1187.012	2.822	2010150	REC_START	n/a	n/a	n/a	-999	10	[0, 0, 0]	n/a	FR1	0	R1155D
1189.834	0.674	2014665	REC_WORD	2.822	n/a	BEAK	8	10	[0, 0, 0]	n/a	FR1	0	R1155D
1190.508	3.755	2015743	REC_WORD	3.496	n/a	MULE	1	10	[0, 0, 0]	n/a	FR1	0	R1155D
1194.263	21.234	2021751	REC_WORD_VV	7.251	n/a	<>	-999	10	[0, 0, 0]	n/a	FR1	0	R1155D
1215.497	1.525	2055723	REC_WORD_VV	28.485	n/a	<>	-999	10	[0, 0, 0]	n/a	FR1	0	R1155D
1217.022	12.646	2058163	REC_END	n/a	n/a	n/a	-999	10	[0, 0, 0]	n/a	FR1	0	R1155D
1229.668	0.0	2078396	TRIAL	n/a	n/a	n/a	-999	11	[0, 0, 0]	n/a	FR1	0	R1155D
