onset	duration	sample	trial_type	response_time	stim_file	item_name	serialpos	list	test	answer	experiment	session	subject
0.0	13.253	255450	SESS_START	n/a	n/a	n/a	-999	-999	[0, 0, 0]	n/a	FR1	0	R1565T
13.253	10.0	268702	COUNTDOWN_START	n/a	n/a	n/a	-999	-999	[0, 0, 0]	n/a	FR1	0	R1565T
23.681	3.574	279130	COUNTDOWN_END	n/a	n/a	n/a	-999	-999	[0, 0, 0]	n/a	FR1	0	R1565T
27.255	1.6	282704	PRACTICE_WORD	n/a	n/a	FLOOD	1	-1	[0, 0, 0]	n/a	FR1	0	R1565T
29.772	1.6	285221	PRACTICE_WORD	n/a	n/a	RHINO	2	-1	[0, 0, 0]	n/a	FR1	0	R1565T
32.373	1.6	287822	PRACTICE_WORD	n/a	n/a	RING	3	-1	[0, 0, 0]	n/a	FR1	0	R1565T
34.939	1.6	290387	PRACTICE_WORD	n/a	n/a	IRON	4	-1	[0, 0, 0]	n/a	FR1	0	R1565T
37.407	1.6	292855	PRACTICE_WORD	n/a	n/a	COTTON	5	-1	[0, 0, 0]	n/a	FR1	0	R1565T
39.94	1.6	295388	PRACTICE_WORD	n/a	n/a	ATTIC	6	-1	[0, 0, 0]	n/a	FR1	0	R1565T
42.475	1.6	297923	PRACTICE_WORD	n/a	n/a	WAGON	7	-1	[0, 0, 0]	n/a	FR1	0	R1565T
44.891	1.6	300339	PRACTICE_WORD	n/a	n/a	CAMEL	8	-1	[0, 0, 0]	n/a	FR1	0	R1565T
47.258	1.6	302706	PRACTICE_WORD	n/a	n/a	WATCH	9	-1	[0, 0, 0]	n/a	FR1	0	R1565T
49.825	1.6	305273	PRACTICE_WORD	n/a	n/a	TONGUE	10	-1	[0, 0, 0]	n/a	FR1	0	R1565T
52.443	1.6	307891	PRACTICE_WORD	n/a	n/a	BEAM	11	-1	[0, 0, 0]	n/a	FR1	0	R1565T
54.909	1.6	310357	PRACTICE_WORD	n/a	n/a	CHEST	12	-1	[0, 0, 0]	n/a	FR1	0	R1565T
56.51	0.001	311958	PRACTICE_DISTRACT_START	n/a	n/a	n/a	-999	-1	[0, 0, 0]	n/a	FR1	0	R1565T
56.511	0.016	311959	START	n/a	n/a	n/a	-999	-1	[-999, -999, -999]	n/a	FR1	0	R1565T
56.527	25.839	311975	PROB	25.839	n/a	n/a	-999	-1	[8, 5, 5]	18.0	FR1	0	R1565T
82.366	0.015	337813	STOP	n/a	n/a	n/a	-999	-1	[-999, -999, -999]	n/a	FR1	0	R1565T
82.381	0.551	337828	PRACTICE_DISTRACT_END	n/a	n/a	n/a	-999	-1	[0, 0, 0]	n/a	FR1	0	R1565T
82.932	30.516	338379	PRACTICE_REC_START	n/a	n/a	n/a	-999	-1	[0, 0, 0]	n/a	FR1	0	R1565T
113.448	26.875	368894	PRACTICE_REC_END	n/a	n/a	n/a	-999	-1	[0, 0, 0]	n/a	FR1	0	R1565T
140.323	0.0	395768	TRIAL	n/a	n/a	n/a	-999	1	[0, 0, 0]	n/a	FR1	0	R1565T
140.323	10.0	395768	COUNTDOWN_START	n/a	n/a	n/a	-999	1	[0, 0, 0]	n/a	FR1	0	R1565T
150.751	0.006	406196	COUNTDOWN_END	n/a	n/a	n/a	-999	1	[0, 0, 0]	n/a	FR1	0	R1565T
150.757	1.6	406202	ORIENT	n/a	n/a	n/a	-999	1	[0, 0, 0]	n/a	FR1	0	R1565T
153.141	1.6	408586	WORD	n/a	wordpools/wordpool_EN.txt	DRESS	1	1	[0, 0, 0]	n/a	FR1	0	R1565T
155.575	1.6	411020	WORD	n/a	wordpools/wordpool_EN.txt	TOOTH	2	1	[0, 0, 0]	n/a	FR1	0	R1565T
158.042	1.6	413487	WORD	n/a	wordpools/wordpool_EN.txt	HOLE	3	1	[0, 0, 0]	n/a	FR1	0	R1565T
160.426	1.6	415871	WORD	n/a	wordpools/wordpool_EN.txt	PASTE	4	1	[0, 0, 0]	n/a	FR1	0	R1565T
162.942	1.6	418387	WORD	n/a	wordpools/wordpool_EN.txt	DESK	5	1	[0, 0, 0]	n/a	FR1	0	R1565T
165.394	1.6	420838	WORD	n/a	wordpools/wordpool_EN.txt	PEAR	6	1	[0, 0, 0]	n/a	FR1	0	R1565T
167.86	1.6	423304	WORD	n/a	wordpools/wordpool_EN.txt	SMILE	7	1	[0, 0, 0]	n/a	FR1	0	R1565T
170.395	1.6	425839	WORD	n/a	wordpools/wordpool_EN.txt	BEAK	8	1	[0, 0, 0]	n/a	FR1	0	R1565T
172.894	1.6	428338	WORD	n/a	wordpools/wordpool_EN.txt	SHOE	9	1	[0, 0, 0]	n/a	FR1	0	R1565T
175.362	1.6	430806	WORD	n/a	wordpools/wordpool_EN.txt	PEN	10	1	[0, 0, 0]	n/a	FR1	0	R1565T
177.978	1.6	433422	WORD	n/a	wordpools/wordpool_EN.txt	PALM	11	1	[0, 0, 0]	n/a	FR1	0	R1565T
180.38	1.6	435824	WORD	n/a	wordpools/wordpool_EN.txt	FORK	12	1	[0, 0, 0]	n/a	FR1	0	R1565T
181.995	0.001	437439	DISTRACT_START	n/a	n/a	n/a	-999	1	[0, 0, 0]	n/a	FR1	0	R1565T
181.996	0.016	437440	START	n/a	n/a	n/a	-999	1	[-999, -999, -999]	n/a	FR1	0	R1565T
182.012	15.786	437456	PROB	15.75	n/a	n/a	-999	1	[7, 7, 9]	20.0	FR1	0	R1565T
197.798	7.116	453241	PROB	7.116	n/a	n/a	-999	1	[3, 7, 8]	18.0	FR1	0	R1565T
204.914	0.018	460357	STOP	n/a	n/a	n/a	-999	1	[-999, -999, -999]	n/a	FR1	0	R1565T
204.932	1.187	460375	DISTRACT_END	n/a	n/a	n/a	-999	1	[0, 0, 0]	n/a	FR1	0	R1565T
206.119	3.631	461562	REC_START	n/a	n/a	n/a	-999	1	[0, 0, 0]	n/a	FR1	0	R1565T
209.75	2.11	465193	REC_WORD	3.631	n/a	TOOTH	2	1	[0, 0, 0]	n/a	FR1	0	R1565T
211.86	1.0	467303	REC_WORD	5.741	n/a	BRUSH	-999	1	[0, 0, 0]	n/a	FR1	0	R1565T
212.86	19.103	468303	REC_WORD_VV	6.741	n/a	<>	-999	1	[0, 0, 0]	n/a	FR1	0	R1565T
231.963	1.0	487405	REC_WORD	25.844	n/a	RING	-999	1	[0, 0, 0]	n/a	FR1	0	R1565T
232.963	3.165	488405	REC_WORD_VV	26.844	n/a	<>	-999	1	[0, 0, 0]	n/a	FR1	0	R1565T
236.128	5.727	491570	REC_END	n/a	n/a	n/a	-999	1	[0, 0, 0]	n/a	FR1	0	R1565T
241.855	0.0	497297	TRIAL	n/a	n/a	n/a	-999	2	[0, 0, 0]	n/a	FR1	0	R1565T
241.855	10.0	497297	COUNTDOWN_START	n/a	n/a	n/a	-999	2	[0, 0, 0]	n/a	FR1	0	R1565T
252.283	0.007	507725	COUNTDOWN_END	n/a	n/a	n/a	-999	2	[0, 0, 0]	n/a	FR1	0	R1565T
252.29	1.6	507732	ORIENT	n/a	n/a	n/a	-999	2	[0, 0, 0]	n/a	FR1	0	R1565T
254.757	1.6	510199	WORD	n/a	wordpools/wordpool_EN.txt	MOTH	1	2	[0, 0, 0]	n/a	FR1	0	R1565T
257.307	1.6	512749	WORD	n/a	wordpools/wordpool_EN.txt	SHIELD	2	2	[0, 0, 0]	n/a	FR1	0	R1565T
259.824	1.6	515266	WORD	n/a	wordpools/wordpool_EN.txt	FUDGE	3	2	[0, 0, 0]	n/a	FR1	0	R1565T
262.208	1.6	517650	WORD	n/a	wordpools/wordpool_EN.txt	POND	4	2	[0, 0, 0]	n/a	FR1	0	R1565T
264.791	1.6	520232	WORD	n/a	wordpools/wordpool_EN.txt	SAIL	5	2	[0, 0, 0]	n/a	FR1	0	R1565T
267.192	1.6	522633	WORD	n/a	wordpools/wordpool_EN.txt	BEE	6	2	[0, 0, 0]	n/a	FR1	0	R1565T
269.626	1.6	525067	WORD	n/a	wordpools/wordpool_EN.txt	ROOT	7	2	[0, 0, 0]	n/a	FR1	0	R1565T
272.176	1.6	527617	WORD	n/a	wordpools/wordpool_EN.txt	BOAT	8	2	[0, 0, 0]	n/a	FR1	0	R1565T
274.66	1.6	530101	WORD	n/a	wordpools/wordpool_EN.txt	ANT	9	2	[0, 0, 0]	n/a	FR1	0	R1565T
277.127	1.6	532568	WORD	n/a	wordpools/wordpool_EN.txt	WAVE	10	2	[0, 0, 0]	n/a	FR1	0	R1565T
279.66	1.6	535101	WORD	n/a	wordpools/wordpool_EN.txt	SPONGE	11	2	[0, 0, 0]	n/a	FR1	0	R1565T
282.261	1.6	537702	WORD	n/a	wordpools/wordpool_EN.txt	BRANCH	12	2	[0, 0, 0]	n/a	FR1	0	R1565T
283.878	0.0	539319	DISTRACT_START	n/a	n/a	n/a	-999	2	[0, 0, 0]	n/a	FR1	0	R1565T
283.878	0.016	539319	START	n/a	n/a	n/a	-999	2	[-999, -999, -999]	n/a	FR1	0	R1565T
283.894	9.57	539335	PROB	9.547	n/a	n/a	-999	2	[1, 6, 2]	9.0	FR1	0	R1565T
293.464	7.416	548905	PROB	7.391	n/a	n/a	-999	2	[4, 7, 2]	14.0	FR1	0	R1565T
300.88	11.438	556320	PROB	11.438	n/a	n/a	-999	2	[2, 5, 4]	12.0	FR1	0	R1565T
312.318	0.015	567758	STOP	n/a	n/a	n/a	-999	2	[-999, -999, -999]	n/a	FR1	0	R1565T
312.333	1.184	567773	DISTRACT_END	n/a	n/a	n/a	-999	2	[0, 0, 0]	n/a	FR1	0	R1565T
313.517	10.439	568957	REC_START	n/a	n/a	n/a	-999	2	[0, 0, 0]	n/a	FR1	0	R1565T
323.956	2.677	579396	REC_WORD	10.439	n/a	MOTH	1	2	[0, 0, 0]	n/a	FR1	0	R1565T
326.633	1.0	582073	REC_WORD	13.116	n/a	FUDGE	3	2	[0, 0, 0]	n/a	FR1	0	R1565T
327.633	14.375	583072	REC_WORD_VV	14.116	n/a	<>	-999	2	[0, 0, 0]	n/a	FR1	0	R1565T
342.008	1.0	597447	REC_WORD	28.491	n/a	RING	-999	2	[0, 0, 0]	n/a	FR1	0	R1565T
343.008	0.524	598447	REC_WORD_VV	29.491	n/a	<>	-999	2	[0, 0, 0]	n/a	FR1	0	R1565T
343.532	7.373	598971	REC_END	n/a	n/a	n/a	-999	2	[0, 0, 0]	n/a	FR1	0	R1565T
350.905	0.0	606344	TRIAL	n/a	n/a	n/a	-999	3	[0, 0, 0]	n/a	FR1	0	R1565T
350.905	10.0	606344	COUNTDOWN_START	n/a	n/a	n/a	-999	3	[0, 0, 0]	n/a	FR1	0	R1565T
361.333	0.008	616771	COUNTDOWN_END	n/a	n/a	n/a	-999	3	[0, 0, 0]	n/a	FR1	0	R1565T
361.341	1.6	616779	ORIENT	n/a	n/a	n/a	-999	3	[0, 0, 0]	n/a	FR1	0	R1565T
363.773	1.6	619211	WORD	n/a	wordpools/wordpool_EN.txt	GLOVE	1	3	[0, 0, 0]	n/a	FR1	0	R1565T
366.358	1.6	621796	WORD	n/a	wordpools/wordpool_EN.txt	CHAIR	2	3	[0, 0, 0]	n/a	FR1	0	R1565T
368.908	1.6	624346	WORD	n/a	wordpools/wordpool_EN.txt	ARM	3	3	[0, 0, 0]	n/a	FR1	0	R1565T
371.326	1.6	626764	WORD	n/a	wordpools/wordpool_EN.txt	BOARD	4	3	[0, 0, 0]	n/a	FR1	0	R1565T
373.775	1.6	629213	WORD	n/a	wordpools/wordpool_EN.txt	FISH	5	3	[0, 0, 0]	n/a	FR1	0	R1565T
376.209	1.6	631647	WORD	n/a	wordpools/wordpool_EN.txt	SHIRT	6	3	[0, 0, 0]	n/a	FR1	0	R1565T
378.626	1.6	634064	WORD	n/a	wordpools/wordpool_EN.txt	TEETH	7	3	[0, 0, 0]	n/a	FR1	0	R1565T
381.193	1.6	636631	WORD	n/a	wordpools/wordpool_EN.txt	BARN	8	3	[0, 0, 0]	n/a	FR1	0	R1565T
383.61	1.6	639048	WORD	n/a	wordpools/wordpool_EN.txt	SHRIMP	9	3	[0, 0, 0]	n/a	FR1	0	R1565T
386.21	1.6	641648	WORD	n/a	wordpools/wordpool_EN.txt	CHALK	10	3	[0, 0, 0]	n/a	FR1	0	R1565T
388.761	1.6	644199	WORD	n/a	wordpools/wordpool_EN.txt	CLIFF	11	3	[0, 0, 0]	n/a	FR1	0	R1565T
391.379	1.6	646817	WORD	n/a	wordpools/wordpool_EN.txt	WORLD	12	3	[0, 0, 0]	n/a	FR1	0	R1565T
392.995	0.0	648432	DISTRACT_START	n/a	n/a	n/a	-999	3	[0, 0, 0]	n/a	FR1	0	R1565T
392.995	0.016	648432	START	n/a	n/a	n/a	-999	3	[-999, -999, -999]	n/a	FR1	0	R1565T
393.011	7.268	648448	PROB	7.241	n/a	n/a	-999	3	[5, 4, 5]	14.0	FR1	0	R1565T
400.279	6.801	655716	PROB	6.781	n/a	n/a	-999	3	[2, 9, 6]	18.0	FR1	0	R1565T
407.08	8.068	662517	PROB	8.068	n/a	n/a	-999	3	[4, 7, 6]	17.0	FR1	0	R1565T
415.148	0.017	670585	STOP	n/a	n/a	n/a	-999	3	[-999, -999, -999]	n/a	FR1	0	R1565T
415.165	1.201	670602	DISTRACT_END	n/a	n/a	n/a	-999	3	[0, 0, 0]	n/a	FR1	0	R1565T
416.366	1.616	671803	REC_START	n/a	n/a	n/a	-999	3	[0, 0, 0]	n/a	FR1	0	R1565T
417.982	1.0	673419	REC_WORD	1.616	n/a	GLOVE	1	3	[0, 0, 0]	n/a	FR1	0	R1565T
418.982	1.28	674419	REC_WORD	2.616	n/a	CHAIR	2	3	[0, 0, 0]	n/a	FR1	0	R1565T
420.262	1.738	675699	REC_WORD	3.896	n/a	ARM	3	3	[0, 0, 0]	n/a	FR1	0	R1565T
422.0	1.206	677437	REC_WORD	5.634	n/a	BOARD	4	3	[0, 0, 0]	n/a	FR1	0	R1565T
423.206	1.0	678643	REC_WORD	6.84	n/a	FISH	5	3	[0, 0, 0]	n/a	FR1	0	R1565T
424.206	22.175	679643	REC_WORD_VV	7.84	n/a	<>	-999	3	[0, 0, 0]	n/a	FR1	0	R1565T
446.381	1.722	701817	REC_END	n/a	n/a	n/a	-999	3	[0, 0, 0]	n/a	FR1	0	R1565T
448.103	0.0	703539	TRIAL	n/a	n/a	n/a	-999	4	[0, 0, 0]	n/a	FR1	0	R1565T
448.103	10.0	703539	COUNTDOWN_START	n/a	n/a	n/a	-999	4	[0, 0, 0]	n/a	FR1	0	R1565T
458.531	0.007	713966	COUNTDOWN_END	n/a	n/a	n/a	-999	4	[0, 0, 0]	n/a	FR1	0	R1565T
458.538	1.6	713973	ORIENT	n/a	n/a	n/a	-999	4	[0, 0, 0]	n/a	FR1	0	R1565T
461.022	1.6	716457	WORD	n/a	wordpools/wordpool_EN.txt	MOON	1	4	[0, 0, 0]	n/a	FR1	0	R1565T
463.523	1.6	718958	WORD	n/a	wordpools/wordpool_EN.txt	CASH	2	4	[0, 0, 0]	n/a	FR1	0	R1565T
466.139	1.6	721574	WORD	n/a	wordpools/wordpool_EN.txt	MAIL	3	4	[0, 0, 0]	n/a	FR1	0	R1565T
468.673	1.6	724108	WORD	n/a	wordpools/wordpool_EN.txt	BOMB	4	4	[0, 0, 0]	n/a	FR1	0	R1565T
471.29	1.6	726725	WORD	n/a	wordpools/wordpool_EN.txt	ICE	5	4	[0, 0, 0]	n/a	FR1	0	R1565T
473.724	1.6	729159	WORD	n/a	wordpools/wordpool_EN.txt	LEAF	6	4	[0, 0, 0]	n/a	FR1	0	R1565T
476.241	1.6	731676	WORD	n/a	wordpools/wordpool_EN.txt	MAP	7	4	[0, 0, 0]	n/a	FR1	0	R1565T
478.624	1.6	734059	WORD	n/a	wordpools/wordpool_EN.txt	FILM	8	4	[0, 0, 0]	n/a	FR1	0	R1565T
481.225	1.6	736660	WORD	n/a	wordpools/wordpool_EN.txt	FORT	9	4	[0, 0, 0]	n/a	FR1	0	R1565T
483.709	1.6	739144	WORD	n/a	wordpools/wordpool_EN.txt	TRUCK	10	4	[0, 0, 0]	n/a	FR1	0	R1565T
486.292	1.6	741727	WORD	n/a	wordpools/wordpool_EN.txt	CORD	11	4	[0, 0, 0]	n/a	FR1	0	R1565T
488.793	1.6	744228	WORD	n/a	wordpools/wordpool_EN.txt	OAR	12	4	[0, 0, 0]	n/a	FR1	0	R1565T
490.411	0.0	745846	DISTRACT_START	n/a	n/a	n/a	-999	4	[0, 0, 0]	n/a	FR1	0	R1565T
490.411	0.016	745846	START	n/a	n/a	n/a	-999	4	[-999, -999, -999]	n/a	FR1	0	R1565T
490.427	5.417	745862	PROB	5.39	n/a	n/a	-999	4	[7, 1, 3]	12.0	FR1	0	R1565T
495.844	11.686	751278	PROB	11.654	n/a	n/a	-999	4	[6, 9, 4]	19.0	FR1	0	R1565T
507.53	5.8	762964	PROB	5.8	n/a	n/a	-999	4	[1, 2, 5]	8.0	FR1	0	R1565T
513.33	0.017	768764	STOP	n/a	n/a	n/a	-999	4	[-999, -999, -999]	n/a	FR1	0	R1565T
513.347	1.035	768781	DISTRACT_END	n/a	n/a	n/a	-999	4	[0, 0, 0]	n/a	FR1	0	R1565T
514.382	1.462	769816	REC_START	n/a	n/a	n/a	-999	4	[0, 0, 0]	n/a	FR1	0	R1565T
515.844	1.035	771278	REC_WORD	1.462	n/a	MOON	1	4	[0, 0, 0]	n/a	FR1	0	R1565T
516.879	1.0	772313	REC_WORD	2.497	n/a	CASH	2	4	[0, 0, 0]	n/a	FR1	0	R1565T
517.879	1.012	773313	REC_WORD_VV	3.497	n/a	<>	-999	4	[0, 0, 0]	n/a	FR1	0	R1565T
518.891	0.962	774325	REC_WORD	4.509	n/a	MAIL	3	4	[0, 0, 0]	n/a	FR1	0	R1565T
519.853	24.538	775287	REC_WORD	5.471	n/a	BOMB	4	4	[0, 0, 0]	n/a	FR1	0	R1565T
544.391	6.129	799824	REC_END	n/a	n/a	n/a	-999	4	[0, 0, 0]	n/a	FR1	0	R1565T
550.52	0.0	805953	TRIAL	n/a	n/a	n/a	-999	5	[0, 0, 0]	n/a	FR1	0	R1565T
550.52	10.0	805953	COUNTDOWN_START	n/a	n/a	n/a	-999	5	[0, 0, 0]	n/a	FR1	0	R1565T
560.948	0.006	816380	COUNTDOWN_END	n/a	n/a	n/a	-999	5	[0, 0, 0]	n/a	FR1	0	R1565T
560.954	1.6	816386	ORIENT	n/a	n/a	n/a	-999	5	[0, 0, 0]	n/a	FR1	0	R1565T
563.571	1.6	819003	WORD	n/a	wordpools/wordpool_EN.txt	MULE	1	5	[0, 0, 0]	n/a	FR1	0	R1565T
566.171	1.6	821603	WORD	n/a	wordpools/wordpool_EN.txt	SPEAR	2	5	[0, 0, 0]	n/a	FR1	0	R1565T
568.622	1.6	824054	WORD	n/a	wordpools/wordpool_EN.txt	LAMB	3	5	[0, 0, 0]	n/a	FR1	0	R1565T
571.222	1.6	826654	WORD	n/a	wordpools/wordpool_EN.txt	MOOSE	4	5	[0, 0, 0]	n/a	FR1	0	R1565T
573.656	1.6	829088	WORD	n/a	wordpools/wordpool_EN.txt	FLEA	5	5	[0, 0, 0]	n/a	FR1	0	R1565T
576.056	1.6	831488	WORD	n/a	wordpools/wordpool_EN.txt	GRASS	6	5	[0, 0, 0]	n/a	FR1	0	R1565T
578.507	1.6	833939	WORD	n/a	wordpools/wordpool_EN.txt	HORSE	7	5	[0, 0, 0]	n/a	FR1	0	R1565T
581.123	1.6	836555	WORD	n/a	wordpools/wordpool_EN.txt	SOUP	8	5	[0, 0, 0]	n/a	FR1	0	R1565T
583.691	1.6	839123	WORD	n/a	wordpools/wordpool_EN.txt	STEAM	9	5	[0, 0, 0]	n/a	FR1	0	R1565T
586.124	1.6	841556	WORD	n/a	wordpools/wordpool_EN.txt	VINE	10	5	[0, 0, 0]	n/a	FR1	0	R1565T
588.608	1.6	844040	WORD	n/a	wordpools/wordpool_EN.txt	PRINCE	11	5	[0, 0, 0]	n/a	FR1	0	R1565T
591.108	1.6	846539	WORD	n/a	wordpools/wordpool_EN.txt	SPARK	12	5	[0, 0, 0]	n/a	FR1	0	R1565T
592.725	0.001	848156	DISTRACT_START	n/a	n/a	n/a	-999	5	[0, 0, 0]	n/a	FR1	0	R1565T
592.726	0.016	848157	START	n/a	n/a	n/a	-999	5	[-999, -999, -999]	n/a	FR1	0	R1565T
592.742	10.586	848173	PROB	10.561	n/a	n/a	-999	5	[2, 9, 8]	20.0	FR1	0	R1565T
603.328	6.717	858759	PROB	6.695	n/a	n/a	-999	5	[9, 5, 3]	18.0	FR1	0	R1565T
610.045	5.721	865476	PROB	5.721	n/a	n/a	-999	5	[1, 5, 5]	11.0	FR1	0	R1565T
615.766	0.013	871197	STOP	n/a	n/a	n/a	-999	5	[-999, -999, -999]	n/a	FR1	0	R1565T
615.779	1.185	871210	DISTRACT_END	n/a	n/a	n/a	-999	5	[0, 0, 0]	n/a	FR1	0	R1565T
616.964	6.698	872395	REC_START	n/a	n/a	n/a	-999	5	[0, 0, 0]	n/a	FR1	0	R1565T
623.662	1.407	879092	REC_WORD	6.698	n/a	MULE	1	5	[0, 0, 0]	n/a	FR1	0	R1565T
625.069	1.889	880499	REC_WORD	8.105	n/a	HORSE	7	5	[0, 0, 0]	n/a	FR1	0	R1565T
626.958	1.0	882388	REC_WORD	9.994	n/a	GRASS	6	5	[0, 0, 0]	n/a	FR1	0	R1565T
627.958	19.017	883388	REC_WORD_VV	10.994	n/a	<>	-999	5	[0, 0, 0]	n/a	FR1	0	R1565T
646.975	6.026	902405	REC_END	n/a	n/a	n/a	-999	5	[0, 0, 0]	n/a	FR1	0	R1565T
653.001	0.0	908431	TRIAL	n/a	n/a	n/a	-999	6	[0, 0, 0]	n/a	FR1	0	R1565T
653.001	10.0	908431	COUNTDOWN_START	n/a	n/a	n/a	-999	6	[0, 0, 0]	n/a	FR1	0	R1565T
663.429	0.008	918858	COUNTDOWN_END	n/a	n/a	n/a	-999	6	[0, 0, 0]	n/a	FR1	0	R1565T
663.437	1.6	918866	ORIENT	n/a	n/a	n/a	-999	6	[0, 0, 0]	n/a	FR1	0	R1565T
665.837	1.6	921266	WORD	n/a	wordpools/wordpool_EN.txt	FAN	1	6	[0, 0, 0]	n/a	FR1	0	R1565T
668.388	1.6	923817	WORD	n/a	wordpools/wordpool_EN.txt	SIGN	2	6	[0, 0, 0]	n/a	FR1	0	R1565T
671.004	1.6	926433	WORD	n/a	wordpools/wordpool_EN.txt	FLAG	3	6	[0, 0, 0]	n/a	FR1	0	R1565T
673.621	1.6	929050	WORD	n/a	wordpools/wordpool_EN.txt	CROWN	4	6	[0, 0, 0]	n/a	FR1	0	R1565T
676.188	1.6	931617	WORD	n/a	wordpools/wordpool_EN.txt	POLE	5	6	[0, 0, 0]	n/a	FR1	0	R1565T
678.572	1.6	934001	WORD	n/a	wordpools/wordpool_EN.txt	NAIL	6	6	[0, 0, 0]	n/a	FR1	0	R1565T
681.139	1.6	936568	WORD	n/a	wordpools/wordpool_EN.txt	VEST	7	6	[0, 0, 0]	n/a	FR1	0	R1565T
683.573	1.6	939002	WORD	n/a	wordpools/wordpool_EN.txt	PURSE	8	6	[0, 0, 0]	n/a	FR1	0	R1565T
686.073	1.6	941502	WORD	n/a	wordpools/wordpool_EN.txt	PIN	9	6	[0, 0, 0]	n/a	FR1	0	R1565T
688.59	1.6	944018	WORD	n/a	wordpools/wordpool_EN.txt	ROSE	10	6	[0, 0, 0]	n/a	FR1	0	R1565T
691.19	1.6	946618	WORD	n/a	wordpools/wordpool_EN.txt	TANK	11	6	[0, 0, 0]	n/a	FR1	0	R1565T
693.774	1.6	949202	WORD	n/a	wordpools/wordpool_EN.txt	PEA	12	6	[0, 0, 0]	n/a	FR1	0	R1565T
695.375	0.001	950803	DISTRACT_START	n/a	n/a	n/a	-999	6	[0, 0, 0]	n/a	FR1	0	R1565T
695.376	0.016	950804	START	n/a	n/a	n/a	-999	6	[-999, -999, -999]	n/a	FR1	0	R1565T
695.392	9.851	950820	PROB	9.82	n/a	n/a	-999	6	[1, 3, 8]	12.0	FR1	0	R1565T
705.243	6.334	960671	PROB	6.297	n/a	n/a	-999	6	[7, 6, 1]	14.0	FR1	0	R1565T
711.577	5.86	967005	PROB	5.86	n/a	n/a	-999	6	[2, 3, 5]	10.0	FR1	0	R1565T
717.437	0.008	972865	STOP	n/a	n/a	n/a	-999	6	[-999, -999, -999]	n/a	FR1	0	R1565T
717.445	1.068	972873	DISTRACT_END	n/a	n/a	n/a	-999	6	[0, 0, 0]	n/a	FR1	0	R1565T
718.513	1.896	973941	REC_START	n/a	n/a	n/a	-999	6	[0, 0, 0]	n/a	FR1	0	R1565T
720.409	1.172	975836	REC_WORD	1.896	n/a	NAIL	6	6	[0, 0, 0]	n/a	FR1	0	R1565T
721.581	1.767	977008	REC_WORD	3.068	n/a	PURSE	8	6	[0, 0, 0]	n/a	FR1	0	R1565T
723.348	25.175	978775	REC_WORD	4.835	n/a	PIN	9	6	[0, 0, 0]	n/a	FR1	0	R1565T
748.523	5.327	1003950	REC_END	n/a	n/a	n/a	-999	6	[0, 0, 0]	n/a	FR1	0	R1565T
753.85	0.0	1009276	TRIAL	n/a	n/a	n/a	-999	7	[0, 0, 0]	n/a	FR1	0	R1565T
753.85	10.0	1009276	COUNTDOWN_START	n/a	n/a	n/a	-999	7	[0, 0, 0]	n/a	FR1	0	R1565T
764.278	0.007	1019704	COUNTDOWN_END	n/a	n/a	n/a	-999	7	[0, 0, 0]	n/a	FR1	0	R1565T
764.285	1.6	1019711	ORIENT	n/a	n/a	n/a	-999	7	[0, 0, 0]	n/a	FR1	0	R1565T
766.835	1.6	1022261	WORD	n/a	wordpools/wordpool_EN.txt	PLANE	1	7	[0, 0, 0]	n/a	FR1	0	R1565T
769.403	1.6	1024829	WORD	n/a	wordpools/wordpool_EN.txt	EAR	2	7	[0, 0, 0]	n/a	FR1	0	R1565T
771.853	1.6	1027279	WORD	n/a	wordpools/wordpool_EN.txt	STRING	3	7	[0, 0, 0]	n/a	FR1	0	R1565T
774.237	1.6	1029663	WORD	n/a	wordpools/wordpool_EN.txt	LOCK	4	7	[0, 0, 0]	n/a	FR1	0	R1565T
776.704	1.6	1032130	WORD	n/a	wordpools/wordpool_EN.txt	PLATE	5	7	[0, 0, 0]	n/a	FR1	0	R1565T
779.32	1.6	1034746	WORD	n/a	wordpools/wordpool_EN.txt	TOOL	6	7	[0, 0, 0]	n/a	FR1	0	R1565T
781.921	1.6	1037347	WORD	n/a	wordpools/wordpool_EN.txt	NEST	7	7	[0, 0, 0]	n/a	FR1	0	R1565T
784.288	1.6	1039714	WORD	n/a	wordpools/wordpool_EN.txt	EEL	8	7	[0, 0, 0]	n/a	FR1	0	R1565T
786.788	1.6	1042213	WORD	n/a	wordpools/wordpool_EN.txt	JET	9	7	[0, 0, 0]	n/a	FR1	0	R1565T
789.373	1.6	1044798	WORD	n/a	wordpools/wordpool_EN.txt	CONE	10	7	[0, 0, 0]	n/a	FR1	0	R1565T
791.973	1.6	1047398	WORD	n/a	wordpools/wordpool_EN.txt	INK	11	7	[0, 0, 0]	n/a	FR1	0	R1565T
794.556	1.6	1049981	WORD	n/a	wordpools/wordpool_EN.txt	HAWK	12	7	[0, 0, 0]	n/a	FR1	0	R1565T
796.173	0.001	1051598	DISTRACT_START	n/a	n/a	n/a	-999	7	[0, 0, 0]	n/a	FR1	0	R1565T
796.174	0.016	1051599	START	n/a	n/a	n/a	-999	7	[-999, -999, -999]	n/a	FR1	0	R1565T
796.19	6.601	1051615	PROB	6.564	n/a	n/a	-999	7	[1, 9, 1]	11.0	FR1	0	R1565T
802.791	13.252	1058216	PROB	13.226	n/a	n/a	-999	7	[2, 8, 9]	19.0	FR1	0	R1565T
816.043	11.415	1071468	PROB	11.415	n/a	n/a	-999	7	[2, 7, 8]	17.0	FR1	0	R1565T
827.458	0.004	1082882	STOP	n/a	n/a	n/a	-999	7	[-999, -999, -999]	n/a	FR1	0	R1565T
827.462	1.085	1082886	DISTRACT_END	n/a	n/a	n/a	-999	7	[0, 0, 0]	n/a	FR1	0	R1565T
828.547	29.995	1083971	REC_START	n/a	n/a	n/a	-999	7	[0, 0, 0]	n/a	FR1	0	R1565T
858.542	0.015	1113965	REC_WORD_VV	29.995	n/a	<>	-999	7	[0, 0, 0]	n/a	FR1	0	R1565T
858.557	5.677	1113980	REC_END	n/a	n/a	n/a	-999	7	[0, 0, 0]	n/a	FR1	0	R1565T
864.234	0.0	1119657	TRIAL	n/a	n/a	n/a	-999	8	[0, 0, 0]	n/a	FR1	0	R1565T
864.234	10.0	1119657	COUNTDOWN_START	n/a	n/a	n/a	-999	8	[0, 0, 0]	n/a	FR1	0	R1565T
874.662	0.007	1130085	COUNTDOWN_END	n/a	n/a	n/a	-999	8	[0, 0, 0]	n/a	FR1	0	R1565T
874.669	1.6	1130092	ORIENT	n/a	n/a	n/a	-999	8	[0, 0, 0]	n/a	FR1	0	R1565T
877.252	1.6	1132675	WORD	n/a	wordpools/wordpool_EN.txt	SPRING	1	8	[0, 0, 0]	n/a	FR1	0	R1565T
879.736	1.6	1135159	WORD	n/a	wordpools/wordpool_EN.txt	SNAKE	2	8	[0, 0, 0]	n/a	FR1	0	R1565T
882.253	1.6	1137676	WORD	n/a	wordpools/wordpool_EN.txt	KITE	3	8	[0, 0, 0]	n/a	FR1	0	R1565T
884.654	1.6	1140076	WORD	n/a	wordpools/wordpool_EN.txt	FRUIT	4	8	[0, 0, 0]	n/a	FR1	0	R1565T
887.037	1.6	1142459	WORD	n/a	wordpools/wordpool_EN.txt	FOX	5	8	[0, 0, 0]	n/a	FR1	0	R1565T
889.489	1.6	1144911	WORD	n/a	wordpools/wordpool_EN.txt	CAVE	6	8	[0, 0, 0]	n/a	FR1	0	R1565T
892.055	1.6	1147477	WORD	n/a	wordpools/wordpool_EN.txt	OWL	7	8	[0, 0, 0]	n/a	FR1	0	R1565T
894.588	1.6	1150010	WORD	n/a	wordpools/wordpool_EN.txt	YARD	8	8	[0, 0, 0]	n/a	FR1	0	R1565T
897.189	1.6	1152611	WORD	n/a	wordpools/wordpool_EN.txt	DITCH	9	8	[0, 0, 0]	n/a	FR1	0	R1565T
899.706	1.6	1155128	WORD	n/a	wordpools/wordpool_EN.txt	TEA	10	8	[0, 0, 0]	n/a	FR1	0	R1565T
902.206	1.6	1157628	WORD	n/a	wordpools/wordpool_EN.txt	BREAD	11	8	[0, 0, 0]	n/a	FR1	0	R1565T
904.657	1.6	1160079	WORD	n/a	wordpools/wordpool_EN.txt	JUICE	12	8	[0, 0, 0]	n/a	FR1	0	R1565T
906.274	0.0	1161696	DISTRACT_START	n/a	n/a	n/a	-999	8	[0, 0, 0]	n/a	FR1	0	R1565T
906.274	0.016	1161696	START	n/a	n/a	n/a	-999	8	[-999, -999, -999]	n/a	FR1	0	R1565T
906.29	15.104	1161712	PROB	15.069	n/a	n/a	-999	8	[8, 6, 1]	15.0	FR1	0	R1565T
921.394	8.348	1176815	PROB	8.348	n/a	n/a	-999	8	[3, 2, 7]	12.0	FR1	0	R1565T
929.742	0.018	1185163	STOP	n/a	n/a	n/a	-999	8	[-999, -999, -999]	n/a	FR1	0	R1565T
929.76	1.068	1185181	DISTRACT_END	n/a	n/a	n/a	-999	8	[0, 0, 0]	n/a	FR1	0	R1565T
930.828	1.707	1186249	REC_START	n/a	n/a	n/a	-999	8	[0, 0, 0]	n/a	FR1	0	R1565T
932.535	1.724	1187956	REC_WORD	1.707	n/a	YARD	8	8	[0, 0, 0]	n/a	FR1	0	R1565T
934.259	2.423	1189680	REC_WORD	3.431	n/a	TOE	-999	8	[0, 0, 0]	n/a	FR1	0	R1565T
936.682	1.0	1192103	REC_WORD	5.854	n/a	DITCH	9	8	[0, 0, 0]	n/a	FR1	0	R1565T
937.682	2.9	1193103	REC_WORD_VV	6.854	n/a	<>	-999	8	[0, 0, 0]	n/a	FR1	0	R1565T
940.582	20.257	1196003	REC_WORD	9.754	n/a	TREE	-999	8	[0, 0, 0]	n/a	FR1	0	R1565T
960.839	3.777	1216259	REC_END	n/a	n/a	n/a	-999	8	[0, 0, 0]	n/a	FR1	0	R1565T
964.616	0.0	1220036	TRIAL	n/a	n/a	n/a	-999	9	[0, 0, 0]	n/a	FR1	0	R1565T
964.616	10.0	1220036	COUNTDOWN_START	n/a	n/a	n/a	-999	9	[0, 0, 0]	n/a	FR1	0	R1565T
975.044	0.007	1230464	COUNTDOWN_END	n/a	n/a	n/a	-999	9	[0, 0, 0]	n/a	FR1	0	R1565T
975.051	1.6	1230471	ORIENT	n/a	n/a	n/a	-999	9	[0, 0, 0]	n/a	FR1	0	R1565T
977.535	1.6	1232955	WORD	n/a	wordpools/wordpool_EN.txt	HAND	1	9	[0, 0, 0]	n/a	FR1	0	R1565T
980.052	1.6	1235472	WORD	n/a	wordpools/wordpool_EN.txt	ROOF	2	9	[0, 0, 0]	n/a	FR1	0	R1565T
982.47	1.6	1237889	WORD	n/a	wordpools/wordpool_EN.txt	GLASS	3	9	[0, 0, 0]	n/a	FR1	0	R1565T
984.969	1.6	1240388	WORD	n/a	wordpools/wordpool_EN.txt	PIPE	4	9	[0, 0, 0]	n/a	FR1	0	R1565T
987.37	1.6	1242789	WORD	n/a	wordpools/wordpool_EN.txt	BROOM	5	9	[0, 0, 0]	n/a	FR1	0	R1565T
989.753	1.6	1245172	WORD	n/a	wordpools/wordpool_EN.txt	ROPE	6	9	[0, 0, 0]	n/a	FR1	0	R1565T
992.17	1.6	1247589	WORD	n/a	wordpools/wordpool_EN.txt	ELF	7	9	[0, 0, 0]	n/a	FR1	0	R1565T
994.67	1.6	1250089	WORD	n/a	wordpools/wordpool_EN.txt	MAT	8	9	[0, 0, 0]	n/a	FR1	0	R1565T
997.104	1.6	1252523	WORD	n/a	wordpools/wordpool_EN.txt	TRAY	9	9	[0, 0, 0]	n/a	FR1	0	R1565T
999.605	1.6	1255024	WORD	n/a	wordpools/wordpool_EN.txt	ROOM	10	9	[0, 0, 0]	n/a	FR1	0	R1565T
1002.122	1.6	1257541	WORD	n/a	wordpools/wordpool_EN.txt	STORM	11	9	[0, 0, 0]	n/a	FR1	0	R1565T
1004.572	1.6	1259991	WORD	n/a	wordpools/wordpool_EN.txt	WALL	12	9	[0, 0, 0]	n/a	FR1	0	R1565T
1006.189	0.001	1261608	DISTRACT_START	n/a	n/a	n/a	-999	9	[0, 0, 0]	n/a	FR1	0	R1565T
1006.19	0.016	1261609	START	n/a	n/a	n/a	-999	9	[-999, -999, -999]	n/a	FR1	0	R1565T
1006.206	14.919	1261625	PROB	14.893	n/a	n/a	-999	9	[8, 2, 5]	15.0	FR1	0	R1565T
1021.125	5.462	1276543	PROB	5.462	n/a	n/a	-999	9	[6, 1, 1]	8.0	FR1	0	R1565T
1026.587	0.005	1282005	STOP	n/a	n/a	n/a	-999	9	[-999, -999, -999]	n/a	FR1	0	R1565T
1026.592	1.201	1282010	DISTRACT_END	n/a	n/a	n/a	-999	9	[0, 0, 0]	n/a	FR1	0	R1565T
1027.793	4.73	1283211	REC_START	n/a	n/a	n/a	-999	9	[0, 0, 0]	n/a	FR1	0	R1565T
1032.523	1.597	1287941	REC_WORD	4.73	n/a	ROOF	2	9	[0, 0, 0]	n/a	FR1	0	R1565T
1034.12	3.162	1289538	REC_WORD	6.327	n/a	DISH	-999	9	[0, 0, 0]	n/a	FR1	0	R1565T
1037.282	10.512	1292700	REC_WORD	9.489	n/a	WALL	12	9	[0, 0, 0]	n/a	FR1	0	R1565T
1047.794	10.01	1303211	REC_WORD	20.001	n/a	PLANE	-999	9	[0, 0, 0]	n/a	FR1	0	R1565T
1057.804	7.244	1313221	REC_END	n/a	n/a	n/a	-999	9	[0, 0, 0]	n/a	FR1	0	R1565T
1065.048	0.0	1320465	TRIAL	n/a	n/a	n/a	-999	10	[0, 0, 0]	n/a	FR1	0	R1565T
1065.048	10.0	1320465	COUNTDOWN_START	n/a	n/a	n/a	-999	10	[0, 0, 0]	n/a	FR1	0	R1565T
1075.476	0.008	1330893	COUNTDOWN_END	n/a	n/a	n/a	-999	10	[0, 0, 0]	n/a	FR1	0	R1565T
1075.484	1.6	1330901	ORIENT	n/a	n/a	n/a	-999	10	[0, 0, 0]	n/a	FR1	0	R1565T
1077.883	1.6	1333300	WORD	n/a	wordpools/wordpool_EN.txt	STAIR	1	10	[0, 0, 0]	n/a	FR1	0	R1565T
1080.435	1.6	1335851	WORD	n/a	wordpools/wordpool_EN.txt	SMOKE	2	10	[0, 0, 0]	n/a	FR1	0	R1565T
1083.05	1.6	1338466	WORD	n/a	wordpools/wordpool_EN.txt	DART	3	10	[0, 0, 0]	n/a	FR1	0	R1565T
1085.519	1.6	1340935	WORD	n/a	wordpools/wordpool_EN.txt	PANTS	4	10	[0, 0, 0]	n/a	FR1	0	R1565T
1088.052	1.6	1343468	WORD	n/a	wordpools/wordpool_EN.txt	BADGE	5	10	[0, 0, 0]	n/a	FR1	0	R1565T
1090.486	1.6	1345902	WORD	n/a	wordpools/wordpool_EN.txt	CAR	6	10	[0, 0, 0]	n/a	FR1	0	R1565T
1093.086	1.6	1348502	WORD	n/a	wordpools/wordpool_EN.txt	WING	7	10	[0, 0, 0]	n/a	FR1	0	R1565T
1095.703	1.6	1351119	WORD	n/a	wordpools/wordpool_EN.txt	BRICK	8	10	[0, 0, 0]	n/a	FR1	0	R1565T
1098.303	1.6	1353719	WORD	n/a	wordpools/wordpool_EN.txt	FOG	9	10	[0, 0, 0]	n/a	FR1	0	R1565T
1100.72	1.6	1356136	WORD	n/a	wordpools/wordpool_EN.txt	TRASH	10	10	[0, 0, 0]	n/a	FR1	0	R1565T
1103.187	1.6	1358603	WORD	n/a	wordpools/wordpool_EN.txt	CANE	11	10	[0, 0, 0]	n/a	FR1	0	R1565T
1105.754	1.6	1361170	WORD	n/a	wordpools/wordpool_EN.txt	JAIL	12	10	[0, 0, 0]	n/a	FR1	0	R1565T
1107.355	0.001	1362771	DISTRACT_START	n/a	n/a	n/a	-999	10	[0, 0, 0]	n/a	FR1	0	R1565T
1107.356	0.016	1362772	START	n/a	n/a	n/a	-999	10	[-999, -999, -999]	n/a	FR1	0	R1565T
1107.372	9.817	1362788	PROB	9.797	n/a	n/a	-999	10	[4, 3, 5]	12.0	FR1	0	R1565T
1117.189	6.435	1372604	PROB	6.404	n/a	n/a	-999	10	[5, 5, 1]	11.0	FR1	0	R1565T
1123.624	13.392	1379039	PROB	13.392	n/a	n/a	-999	10	[5, 3, 6]	14.0	FR1	0	R1565T
1137.016	0.01	1392431	STOP	n/a	n/a	n/a	-999	10	[-999, -999, -999]	n/a	FR1	0	R1565T
1137.026	1.167	1392441	DISTRACT_END	n/a	n/a	n/a	-999	10	[0, 0, 0]	n/a	FR1	0	R1565T
1138.193	13.048	1393608	REC_START	n/a	n/a	n/a	-999	10	[0, 0, 0]	n/a	FR1	0	R1565T
1151.241	1.745	1406655	REC_WORD	13.048	n/a	STAIR	1	10	[0, 0, 0]	n/a	FR1	0	R1565T
1152.986	1.0	1408400	REC_WORD	14.793	n/a	SMOKE	2	10	[0, 0, 0]	n/a	FR1	0	R1565T
1153.986	14.22	1409400	REC_WORD_VV	15.793	n/a	<>	-999	10	[0, 0, 0]	n/a	FR1	0	R1565T
1168.206	32.113	1423620	REC_END	n/a	n/a	n/a	-999	10	[0, 0, 0]	n/a	FR1	0	R1565T
1200.319	0.0	1455732	TRIAL	n/a	n/a	n/a	-999	11	[0, 0, 0]	n/a	FR1	0	R1565T
1200.319	10.0	1455732	COUNTDOWN_START	n/a	n/a	n/a	-999	11	[0, 0, 0]	n/a	FR1	0	R1565T
1210.747	0.007	1466159	COUNTDOWN_END	n/a	n/a	n/a	-999	11	[0, 0, 0]	n/a	FR1	0	R1565T
1210.754	1.6	1466166	ORIENT	n/a	n/a	n/a	-999	11	[0, 0, 0]	n/a	FR1	0	R1565T
1213.171	1.6	1468583	WORD	n/a	wordpools/wordpool_EN.txt	KEY	1	11	[0, 0, 0]	n/a	FR1	0	R1565T
1215.771	1.6	1471183	WORD	n/a	wordpools/wordpool_EN.txt	SCHOOL	2	11	[0, 0, 0]	n/a	FR1	0	R1565T
1218.172	1.6	1473584	WORD	n/a	wordpools/wordpool_EN.txt	PIE	3	11	[0, 0, 0]	n/a	FR1	0	R1565T
1220.739	1.6	1476151	WORD	n/a	wordpools/wordpool_EN.txt	VASE	4	11	[0, 0, 0]	n/a	FR1	0	R1565T
1223.139	1.6	1478551	WORD	n/a	wordpools/wordpool_EN.txt	STRAW	5	11	[0, 0, 0]	n/a	FR1	0	R1565T
1225.623	1.6	1481035	WORD	n/a	wordpools/wordpool_EN.txt	CHIEF	6	11	[0, 0, 0]	n/a	FR1	0	R1565T
1228.056	1.6	1483468	WORD	n/a	wordpools/wordpool_EN.txt	BOY	7	11	[0, 0, 0]	n/a	FR1	0	R1565T
1230.557	1.6	1485969	WORD	n/a	wordpools/wordpool_EN.txt	BAT	8	11	[0, 0, 0]	n/a	FR1	0	R1565T
1233.157	1.6	1488569	WORD	n/a	wordpools/wordpool_EN.txt	PHONE	9	11	[0, 0, 0]	n/a	FR1	0	R1565T
1235.791	1.6	1491203	WORD	n/a	wordpools/wordpool_EN.txt	NOSE	10	11	[0, 0, 0]	n/a	FR1	0	R1565T
