onset	duration	sample	trial_type	response_time	stim_file	item_name	serialpos	list	test	answer	experiment	session	subject
0.0	93.729	1038380	SESS_START	n/a	n/a	n/a	-999	-999	[0, 0, 0]	n/a	FR1	1	R1136N
93.729	10.0	1132104	COUNTDOWN_START	n/a	n/a	n/a	-999	-999	[0, 0, 0]	n/a	FR1	1	R1136N
104.157	3.524	1142532	COUNTDOWN_END	n/a	n/a	n/a	-999	-999	[0, 0, 0]	n/a	FR1	1	R1136N
107.681	1.6	1146056	PRACTICE_WORD	n/a	n/a	ATTIC	1	-1	[0, 0, 0]	n/a	FR1	1	R1136N
110.147	1.6	1148522	PRACTICE_WORD	n/a	n/a	CAMEL	2	-1	[0, 0, 0]	n/a	FR1	1	R1136N
112.715	1.6	1151089	PRACTICE_WORD	n/a	n/a	TONGUE	3	-1	[0, 0, 0]	n/a	FR1	1	R1136N
115.215	1.6	1153589	PRACTICE_WORD	n/a	n/a	FLOOD	4	-1	[0, 0, 0]	n/a	FR1	1	R1136N
117.683	1.6	1156057	PRACTICE_WORD	n/a	n/a	CHEST	5	-1	[0, 0, 0]	n/a	FR1	1	R1136N
120.199	1.6	1158573	PRACTICE_WORD	n/a	n/a	COTTON	6	-1	[0, 0, 0]	n/a	FR1	1	R1136N
122.75	1.6	1161124	PRACTICE_WORD	n/a	n/a	IRON	7	-1	[0, 0, 0]	n/a	FR1	1	R1136N
125.133	1.6	1163507	PRACTICE_WORD	n/a	n/a	BEAM	8	-1	[0, 0, 0]	n/a	FR1	1	R1136N
127.735	1.6	1166109	PRACTICE_WORD	n/a	n/a	WATCH	9	-1	[0, 0, 0]	n/a	FR1	1	R1136N
130.284	1.6	1168658	PRACTICE_WORD	n/a	n/a	WAGON	10	-1	[0, 0, 0]	n/a	FR1	1	R1136N
132.669	1.6	1171042	PRACTICE_WORD	n/a	n/a	RHINO	11	-1	[0, 0, 0]	n/a	FR1	1	R1136N
135.053	1.6	1173426	PRACTICE_WORD	n/a	n/a	RING	12	-1	[0, 0, 0]	n/a	FR1	1	R1136N
136.669	0.001	1175042	PRACTICE_DISTRACT_START	n/a	n/a	n/a	-999	-1	[0, 0, 0]	n/a	FR1	1	R1136N
136.67	0.016	1175043	START	n/a	n/a	n/a	-999	-1	[-999, -999, -999]	n/a	FR1	1	R1136N
136.686	4.367	1175059	PROB	4.33	n/a	n/a	-999	-1	[8, 9, 1]	18.0	FR1	1	R1136N
141.053	3.133	1179426	PROB	3.107	n/a	n/a	-999	-1	[2, 8, 3]	13.0	FR1	1	R1136N
144.186	3.318	1182559	PROB	3.285	n/a	n/a	-999	-1	[3, 8, 9]	20.0	FR1	1	R1136N
147.504	2.468	1185877	PROB	2.433	n/a	n/a	-999	-1	[1, 9, 3]	13.0	FR1	1	R1136N
149.972	2.349	1188345	PROB	2.324	n/a	n/a	-999	-1	[4, 8, 1]	13.0	FR1	1	R1136N
152.321	2.167	1190693	PROB	2.134	n/a	n/a	-999	-1	[5, 3, 5]	13.0	FR1	1	R1136N
154.488	2.791	1192860	PROB	2.791	n/a	n/a	-999	-1	[2, 3, 5]	10.0	FR1	1	R1136N
157.279	0.01	1195651	STOP	n/a	n/a	n/a	-999	-1	[-999, -999, -999]	n/a	FR1	1	R1136N
157.289	0.619	1195661	PRACTICE_DISTRACT_END	n/a	n/a	n/a	-999	-1	[0, 0, 0]	n/a	FR1	1	R1136N
157.908	30.514	1196280	PRACTICE_REC_START	n/a	n/a	n/a	-999	-1	[0, 0, 0]	n/a	FR1	1	R1136N
188.422	43.613	1226793	PRACTICE_REC_END	n/a	n/a	n/a	-999	-1	[0, 0, 0]	n/a	FR1	1	R1136N
232.035	0.0	1270403	TRIAL	n/a	n/a	n/a	-999	1	[0, 0, 0]	n/a	FR1	1	R1136N
232.035	10.0	1270403	COUNTDOWN_START	n/a	n/a	n/a	-999	1	[0, 0, 0]	n/a	FR1	1	R1136N
242.463	0.006	1280831	COUNTDOWN_END	n/a	n/a	n/a	-999	1	[0, 0, 0]	n/a	FR1	1	R1136N
242.469	1.6	1280837	ORIENT	n/a	n/a	n/a	-999	1	[0, 0, 0]	n/a	FR1	1	R1136N
244.87	1.6	1283238	WORD	n/a	wordpools/wordpool_EN.txt	SWORD	1	1	[0, 0, 0]	n/a	FR1	1	R1136N
247.32	1.6	1285688	WORD	n/a	wordpools/wordpool_EN.txt	PARK	2	1	[0, 0, 0]	n/a	FR1	1	R1136N
249.855	1.6	1288223	WORD	n/a	wordpools/wordpool_EN.txt	AXE	3	1	[0, 0, 0]	n/a	FR1	1	R1136N
252.254	1.6	1290621	WORD	n/a	wordpools/wordpool_EN.txt	COUCH	4	1	[0, 0, 0]	n/a	FR1	1	R1136N
254.739	1.6	1293106	WORD	n/a	wordpools/wordpool_EN.txt	POOL	5	1	[0, 0, 0]	n/a	FR1	1	R1136N
257.322	1.6	1295689	WORD	n/a	wordpools/wordpool_EN.txt	BANK	6	1	[0, 0, 0]	n/a	FR1	1	R1136N
259.723	1.6	1298090	WORD	n/a	wordpools/wordpool_EN.txt	FOAM	7	1	[0, 0, 0]	n/a	FR1	1	R1136N
262.222	1.6	1300589	WORD	n/a	wordpools/wordpool_EN.txt	WEED	8	1	[0, 0, 0]	n/a	FR1	1	R1136N
264.591	1.6	1302958	WORD	n/a	wordpools/wordpool_EN.txt	BED	9	1	[0, 0, 0]	n/a	FR1	1	R1136N
267.074	1.6	1305441	WORD	n/a	wordpools/wordpool_EN.txt	SINK	10	1	[0, 0, 0]	n/a	FR1	1	R1136N
269.591	1.6	1307958	WORD	n/a	wordpools/wordpool_EN.txt	HOUSE	11	1	[0, 0, 0]	n/a	FR1	1	R1136N
272.191	1.6	1310557	WORD	n/a	wordpools/wordpool_EN.txt	MUG	12	1	[0, 0, 0]	n/a	FR1	1	R1136N
273.809	0.001	1312175	DISTRACT_START	n/a	n/a	n/a	-999	1	[0, 0, 0]	n/a	FR1	1	R1136N
273.81	0.015	1312176	START	n/a	n/a	n/a	-999	1	[-999, -999, -999]	n/a	FR1	1	R1136N
273.825	3.583	1312191	PROB	3.551	n/a	n/a	-999	1	[5, 1, 8]	14.0	FR1	1	R1136N
277.408	2.767	1315774	PROB	2.736	n/a	n/a	-999	1	[9, 5, 3]	17.0	FR1	1	R1136N
280.175	3.234	1318541	PROB	3.2	n/a	n/a	-999	1	[8, 5, 7]	20.0	FR1	1	R1136N
283.409	2.934	1321775	PROB	2.902	n/a	n/a	-999	1	[8, 3, 5]	16.0	FR1	1	R1136N
286.343	2.435	1324709	PROB	2.402	n/a	n/a	-999	1	[5, 8, 9]	22.0	FR1	1	R1136N
288.778	2.084	1327144	PROB	2.063	n/a	n/a	-999	1	[1, 5, 4]	10.0	FR1	1	R1136N
290.862	3.139	1329227	PROB	3.139	n/a	n/a	-999	1	[1, 9, 1]	11.0	FR1	1	R1136N
294.001	0.011	1332366	STOP	n/a	n/a	n/a	-999	1	[-999, -999, -999]	n/a	FR1	1	R1136N
294.012	1.2	1332377	DISTRACT_END	n/a	n/a	n/a	-999	1	[0, 0, 0]	n/a	FR1	1	R1136N
295.212	1.713	1333577	REC_START	n/a	n/a	n/a	-999	1	[0, 0, 0]	n/a	FR1	1	R1136N
296.925	13.715	1335290	REC_WORD	1.713	n/a	HOUSE	-999	1	[0, 0, 0]	n/a	FR1	1	R1136N
310.64	7.646	1349004	REC_WORD	15.428	n/a	WEED	-999	1	[0, 0, 0]	n/a	FR1	1	R1136N
318.286	3.062	1356650	REC_WORD	23.074	n/a	FOAM	-999	1	[0, 0, 0]	n/a	FR1	1	R1136N
321.348	3.874	1359712	REC_WORD	26.136	n/a	MUG	-999	1	[0, 0, 0]	n/a	FR1	1	R1136N
325.222	3.646	1363586	REC_END	n/a	n/a	n/a	-999	1	[0, 0, 0]	n/a	FR1	1	R1136N
328.868	0.0	1367231	TRIAL	n/a	n/a	n/a	-999	2	[0, 0, 0]	n/a	FR1	1	R1136N
328.868	10.0	1367231	COUNTDOWN_START	n/a	n/a	n/a	-999	2	[0, 0, 0]	n/a	FR1	1	R1136N
339.296	0.006	1377659	COUNTDOWN_END	n/a	n/a	n/a	-999	2	[0, 0, 0]	n/a	FR1	1	R1136N
339.302	1.6	1377665	ORIENT	n/a	n/a	n/a	-999	2	[0, 0, 0]	n/a	FR1	1	R1136N
341.687	1.6	1380050	WORD	n/a	wordpools/wordpool_EN.txt	MULE	1	2	[0, 0, 0]	n/a	FR1	1	R1136N
344.186	1.6	1382549	WORD	n/a	wordpools/wordpool_EN.txt	SPEAR	2	2	[0, 0, 0]	n/a	FR1	1	R1136N
346.721	1.6	1385084	WORD	n/a	wordpools/wordpool_EN.txt	LAMB	3	2	[0, 0, 0]	n/a	FR1	1	R1136N
349.154	1.6	1387516	WORD	n/a	wordpools/wordpool_EN.txt	MOOSE	4	2	[0, 0, 0]	n/a	FR1	1	R1136N
351.655	1.6	1390017	WORD	n/a	wordpools/wordpool_EN.txt	FLEA	5	2	[0, 0, 0]	n/a	FR1	1	R1136N
354.072	1.6	1392434	WORD	n/a	wordpools/wordpool_EN.txt	GRASS	6	2	[0, 0, 0]	n/a	FR1	1	R1136N
356.555	1.6	1394917	WORD	n/a	wordpools/wordpool_EN.txt	HORSE	7	2	[0, 0, 0]	n/a	FR1	1	R1136N
358.94	1.6	1397302	WORD	n/a	wordpools/wordpool_EN.txt	SOUP	8	2	[0, 0, 0]	n/a	FR1	1	R1136N
361.556	1.6	1399918	WORD	n/a	wordpools/wordpool_EN.txt	STEAM	9	2	[0, 0, 0]	n/a	FR1	1	R1136N
363.974	1.6	1402336	WORD	n/a	wordpools/wordpool_EN.txt	VINE	10	2	[0, 0, 0]	n/a	FR1	1	R1136N
366.373	1.6	1404735	WORD	n/a	wordpools/wordpool_EN.txt	PRINCE	11	2	[0, 0, 0]	n/a	FR1	1	R1136N
368.791	1.6	1407152	WORD	n/a	wordpools/wordpool_EN.txt	SPARK	12	2	[0, 0, 0]	n/a	FR1	1	R1136N
370.407	0.001	1408768	DISTRACT_START	n/a	n/a	n/a	-999	2	[0, 0, 0]	n/a	FR1	1	R1136N
370.408	0.016	1408769	START	n/a	n/a	n/a	-999	2	[-999, -999, -999]	n/a	FR1	1	R1136N
370.424	2.351	1408785	PROB	2.328	n/a	n/a	-999	2	[9, 1, 9]	19.0	FR1	1	R1136N
372.775	3.616	1411136	PROB	3.592	n/a	n/a	-999	2	[8, 3, 5]	16.0	FR1	1	R1136N
376.391	3.151	1414752	PROB	3.12	n/a	n/a	-999	2	[4, 8, 9]	21.0	FR1	1	R1136N
379.542	2.201	1417903	PROB	2.179	n/a	n/a	-999	2	[1, 2, 6]	9.0	FR1	1	R1136N
381.743	3.517	1420104	PROB	3.48	n/a	n/a	-999	2	[4, 7, 9]	20.0	FR1	1	R1136N
385.26	2.684	1423621	PROB	2.653	n/a	n/a	-999	2	[3, 5, 8]	16.0	FR1	1	R1136N
387.944	2.809	1426304	PROB	2.809	n/a	n/a	-999	2	[4, 7, 9]	20.0	FR1	1	R1136N
390.753	0.008	1429113	STOP	n/a	n/a	n/a	-999	2	[-999, -999, -999]	n/a	FR1	1	R1136N
390.761	1.085	1429121	DISTRACT_END	n/a	n/a	n/a	-999	2	[0, 0, 0]	n/a	FR1	1	R1136N
391.846	24.858	1430206	REC_START	n/a	n/a	n/a	-999	2	[0, 0, 0]	n/a	FR1	1	R1136N
416.704	5.152	1455063	REC_WORD_VV	24.858	n/a	<>	-999	2	[0, 0, 0]	n/a	FR1	1	R1136N
421.856	3.811	1460215	REC_END	n/a	n/a	n/a	-999	2	[0, 0, 0]	n/a	FR1	1	R1136N
425.667	10.0	1464026	COUNTDOWN_START	n/a	n/a	n/a	-999	3	[0, 0, 0]	n/a	FR1	1	R1136N
425.667	10.428	1464026	TRIAL	n/a	n/a	n/a	-999	3	[0, 0, 0]	n/a	FR1	1	R1136N
436.095	0.007	1474453	COUNTDOWN_END	n/a	n/a	n/a	-999	3	[0, 0, 0]	n/a	FR1	1	R1136N
436.102	1.6	1474460	ORIENT	n/a	n/a	n/a	-999	3	[0, 0, 0]	n/a	FR1	1	R1136N
438.502	1.6	1476860	WORD	n/a	wordpools/wordpool_EN.txt	SPRING	1	3	[0, 0, 0]	n/a	FR1	1	R1136N
441.086	1.6	1479444	WORD	n/a	wordpools/wordpool_EN.txt	SNAKE	2	3	[0, 0, 0]	n/a	FR1	1	R1136N
443.469	1.6	1481827	WORD	n/a	wordpools/wordpool_EN.txt	KITE	3	3	[0, 0, 0]	n/a	FR1	1	R1136N
446.004	1.6	1484362	WORD	n/a	wordpools/wordpool_EN.txt	FRUIT	4	3	[0, 0, 0]	n/a	FR1	1	R1136N
448.453	1.6	1486810	WORD	n/a	wordpools/wordpool_EN.txt	FOX	5	3	[0, 0, 0]	n/a	FR1	1	R1136N
450.821	1.6	1489178	WORD	n/a	wordpools/wordpool_EN.txt	CAVE	6	3	[0, 0, 0]	n/a	FR1	1	R1136N
453.354	1.6	1491711	WORD	n/a	wordpools/wordpool_EN.txt	OWL	7	3	[0, 0, 0]	n/a	FR1	1	R1136N
455.872	1.6	1494229	WORD	n/a	wordpools/wordpool_EN.txt	YARD	8	3	[0, 0, 0]	n/a	FR1	1	R1136N
458.305	1.6	1496662	WORD	n/a	wordpools/wordpool_EN.txt	DITCH	9	3	[0, 0, 0]	n/a	FR1	1	R1136N
460.69	1.6	1499047	WORD	n/a	wordpools/wordpool_EN.txt	TEA	10	3	[0, 0, 0]	n/a	FR1	1	R1136N
463.139	1.6	1501496	WORD	n/a	wordpools/wordpool_EN.txt	BREAD	11	3	[0, 0, 0]	n/a	FR1	1	R1136N
465.674	1.6	1504031	WORD	n/a	wordpools/wordpool_EN.txt	JUICE	12	3	[0, 0, 0]	n/a	FR1	1	R1136N
467.29	0.001	1505646	DISTRACT_START	n/a	n/a	n/a	-999	3	[0, 0, 0]	n/a	FR1	1	R1136N
467.291	0.015	1505647	START	n/a	n/a	n/a	-999	3	[-999, -999, -999]	n/a	FR1	1	R1136N
467.306	4.435	1505662	PROB	4.414	n/a	n/a	-999	3	[8, 4, 7]	19.0	FR1	1	R1136N
471.741	2.901	1510097	PROB	2.875	n/a	n/a	-999	3	[2, 9, 3]	14.0	FR1	1	R1136N
474.642	2.184	1512998	PROB	2.15	n/a	n/a	-999	3	[5, 5, 7]	17.0	FR1	1	R1136N
476.826	2.449	1515182	PROB	2.422	n/a	n/a	-999	3	[8, 6, 5]	19.0	FR1	1	R1136N
479.275	3.251	1517631	PROB	3.228	n/a	n/a	-999	3	[3, 6, 4]	13.0	FR1	1	R1136N
482.526	2.95	1520882	PROB	2.922	n/a	n/a	-999	3	[5, 2, 6]	13.0	FR1	1	R1136N
485.476	1.899	1523832	PROB	1.899	n/a	n/a	-999	3	[1, 9, 6]	16.0	FR1	1	R1136N
487.375	0.018	1525730	STOP	n/a	n/a	n/a	-999	3	[-999, -999, -999]	n/a	FR1	1	R1136N
487.393	1.219	1525748	DISTRACT_END	n/a	n/a	n/a	-999	3	[0, 0, 0]	n/a	FR1	1	R1136N
488.612	0.988	1526967	REC_START	n/a	n/a	n/a	-999	3	[0, 0, 0]	n/a	FR1	1	R1136N
489.6	0.722	1527955	REC_WORD	0.988	n/a	TEA	-999	3	[0, 0, 0]	n/a	FR1	1	R1136N
490.322	0.983	1528677	REC_WORD	1.71	n/a	BREAD	-999	3	[0, 0, 0]	n/a	FR1	1	R1136N
491.305	3.274	1529660	REC_WORD	2.693	n/a	JUICE	-999	3	[0, 0, 0]	n/a	FR1	1	R1136N
494.579	8.945	1532934	REC_WORD	5.967	n/a	KITE	-999	3	[0, 0, 0]	n/a	FR1	1	R1136N
503.524	15.098	1541879	REC_WORD	14.912	n/a	SNAKE	-999	3	[0, 0, 0]	n/a	FR1	1	R1136N
518.622	7.061	1556976	REC_END	n/a	n/a	n/a	-999	3	[0, 0, 0]	n/a	FR1	1	R1136N
525.683	10.0	1564036	COUNTDOWN_START	n/a	n/a	n/a	-999	4	[0, 0, 0]	n/a	FR1	1	R1136N
525.684	10.427	1564037	TRIAL	n/a	n/a	n/a	-999	4	[0, 0, 0]	n/a	FR1	1	R1136N
536.111	0.008	1574464	COUNTDOWN_END	n/a	n/a	n/a	-999	4	[0, 0, 0]	n/a	FR1	1	R1136N
536.119	1.6	1574472	ORIENT	n/a	n/a	n/a	-999	4	[0, 0, 0]	n/a	FR1	1	R1136N
538.703	1.6	1577056	WORD	n/a	wordpools/wordpool_EN.txt	STAIR	1	4	[0, 0, 0]	n/a	FR1	1	R1136N
541.285	1.6	1579638	WORD	n/a	wordpools/wordpool_EN.txt	SMOKE	2	4	[0, 0, 0]	n/a	FR1	1	R1136N
543.77	1.6	1582123	WORD	n/a	wordpools/wordpool_EN.txt	DART	3	4	[0, 0, 0]	n/a	FR1	1	R1136N
546.336	1.6	1584688	WORD	n/a	wordpools/wordpool_EN.txt	PANTS	4	4	[0, 0, 0]	n/a	FR1	1	R1136N
548.804	1.6	1587156	WORD	n/a	wordpools/wordpool_EN.txt	BADGE	5	4	[0, 0, 0]	n/a	FR1	1	R1136N
551.287	1.6	1589639	WORD	n/a	wordpools/wordpool_EN.txt	CAR	6	4	[0, 0, 0]	n/a	FR1	1	R1136N
553.672	1.6	1592024	WORD	n/a	wordpools/wordpool_EN.txt	WING	7	4	[0, 0, 0]	n/a	FR1	1	R1136N
556.121	1.6	1594473	WORD	n/a	wordpools/wordpool_EN.txt	BRICK	8	4	[0, 0, 0]	n/a	FR1	1	R1136N
558.522	1.6	1596874	WORD	n/a	wordpools/wordpool_EN.txt	FOG	9	4	[0, 0, 0]	n/a	FR1	1	R1136N
561.073	1.6	1599425	WORD	n/a	wordpools/wordpool_EN.txt	TRASH	10	4	[0, 0, 0]	n/a	FR1	1	R1136N
563.456	1.6	1601808	WORD	n/a	wordpools/wordpool_EN.txt	CANE	11	4	[0, 0, 0]	n/a	FR1	1	R1136N
565.907	1.6	1604258	WORD	n/a	wordpools/wordpool_EN.txt	JAIL	12	4	[0, 0, 0]	n/a	FR1	1	R1136N
567.523	0.001	1605874	DISTRACT_START	n/a	n/a	n/a	-999	4	[0, 0, 0]	n/a	FR1	1	R1136N
567.524	0.016	1605875	START	n/a	n/a	n/a	-999	4	[-999, -999, -999]	n/a	FR1	1	R1136N
567.54	3.518	1605891	PROB	3.484	n/a	n/a	-999	4	[5, 9, 1]	15.0	FR1	1	R1136N
571.058	3.55	1609409	PROB	3.518	n/a	n/a	-999	4	[8, 5, 8]	21.0	FR1	1	R1136N
574.608	4.251	1612959	PROB	4.216	n/a	n/a	-999	4	[8, 9, 1]	18.0	FR1	1	R1136N
578.859	5.718	1617210	PROB	5.684	n/a	n/a	-999	4	[6, 9, 8]	23.0	FR1	1	R1136N
584.577	2.167	1622927	PROB	2.144	n/a	n/a	-999	4	[2, 3, 7]	12.0	FR1	1	R1136N
586.744	7.399	1625094	PROB	7.399	n/a	n/a	-999	4	[2, 3, 5]	10.0	FR1	1	R1136N
594.143	0.018	1632493	STOP	n/a	n/a	n/a	-999	4	[-999, -999, -999]	n/a	FR1	1	R1136N
594.161	1.084	1632511	DISTRACT_END	n/a	n/a	n/a	-999	4	[0, 0, 0]	n/a	FR1	1	R1136N
595.245	1.682	1633595	REC_START	n/a	n/a	n/a	-999	4	[0, 0, 0]	n/a	FR1	1	R1136N
596.927	2.322	1635277	REC_WORD	1.682	n/a	FOG	-999	4	[0, 0, 0]	n/a	FR1	1	R1136N
599.249	0.796	1637599	REC_WORD	4.004	n/a	WING	-999	4	[0, 0, 0]	n/a	FR1	1	R1136N
600.045	14.431	1638395	REC_WORD	4.8	n/a	BRICK	-999	4	[0, 0, 0]	n/a	FR1	1	R1136N
614.476	10.473	1652825	REC_WORD	19.231	n/a	SMOKE	-999	4	[0, 0, 0]	n/a	FR1	1	R1136N
624.949	0.306	1663297	REC_WORD	29.704	n/a	DART	-999	4	[0, 0, 0]	n/a	FR1	1	R1136N
625.255	3.346	1663603	REC_END	n/a	n/a	n/a	-999	4	[0, 0, 0]	n/a	FR1	1	R1136N
628.601	0.0	1666949	TRIAL	n/a	n/a	n/a	-999	5	[0, 0, 0]	n/a	FR1	1	R1136N
628.601	10.0	1666949	COUNTDOWN_START	n/a	n/a	n/a	-999	5	[0, 0, 0]	n/a	FR1	1	R1136N
639.029	0.007	1677377	COUNTDOWN_END	n/a	n/a	n/a	-999	5	[0, 0, 0]	n/a	FR1	1	R1136N
639.036	1.6	1677384	ORIENT	n/a	n/a	n/a	-999	5	[0, 0, 0]	n/a	FR1	1	R1136N
641.468	1.6	1679816	WORD	n/a	wordpools/wordpool_EN.txt	PIG	1	5	[0, 0, 0]	n/a	FR1	1	R1136N
644.02	1.6	1682367	WORD	n/a	wordpools/wordpool_EN.txt	BAG	2	5	[0, 0, 0]	n/a	FR1	1	R1136N
646.503	1.6	1684850	WORD	n/a	wordpools/wordpool_EN.txt	TOE	3	5	[0, 0, 0]	n/a	FR1	1	R1136N
649.037	1.6	1687384	WORD	n/a	wordpools/wordpool_EN.txt	BUSH	4	5	[0, 0, 0]	n/a	FR1	1	R1136N
651.487	1.6	1689834	WORD	n/a	wordpools/wordpool_EN.txt	HILL	5	5	[0, 0, 0]	n/a	FR1	1	R1136N
654.021	1.6	1692368	WORD	n/a	wordpools/wordpool_EN.txt	GATE	6	5	[0, 0, 0]	n/a	FR1	1	R1136N
656.605	1.6	1694952	WORD	n/a	wordpools/wordpool_EN.txt	FROG	7	5	[0, 0, 0]	n/a	FR1	1	R1136N
659.056	1.6	1697403	WORD	n/a	wordpools/wordpool_EN.txt	BOOT	8	5	[0, 0, 0]	n/a	FR1	1	R1136N
661.606	1.6	1699953	WORD	n/a	wordpools/wordpool_EN.txt	GUARD	9	5	[0, 0, 0]	n/a	FR1	1	R1136N
664.023	1.6	1702369	WORD	n/a	wordpools/wordpool_EN.txt	CHIN	10	5	[0, 0, 0]	n/a	FR1	1	R1136N
666.624	1.6	1704970	WORD	n/a	wordpools/wordpool_EN.txt	CAGE	11	5	[0, 0, 0]	n/a	FR1	1	R1136N
669.091	1.6	1707437	WORD	n/a	wordpools/wordpool_EN.txt	DOCK	12	5	[0, 0, 0]	n/a	FR1	1	R1136N
670.708	0.0	1709054	DISTRACT_START	n/a	n/a	n/a	-999	5	[0, 0, 0]	n/a	FR1	1	R1136N
670.708	0.016	1709054	START	n/a	n/a	n/a	-999	5	[-999, -999, -999]	n/a	FR1	1	R1136N
670.724	4.817	1709070	PROB	4.788	n/a	n/a	-999	5	[7, 6, 8]	21.0	FR1	1	R1136N
675.541	2.717	1713887	PROB	2.683	n/a	n/a	-999	5	[8, 8, 5]	21.0	FR1	1	R1136N
678.258	3.351	1716604	PROB	3.318	n/a	n/a	-999	5	[5, 8, 1]	14.0	FR1	1	R1136N
681.609	2.6	1719955	PROB	2.566	n/a	n/a	-999	5	[4, 2, 4]	10.0	FR1	1	R1136N
684.209	2.1	1722554	PROB	2.07	n/a	n/a	-999	5	[5, 4, 1]	10.0	FR1	1	R1136N
686.309	3.868	1724654	PROB	3.842	n/a	n/a	-999	5	[4, 4, 8]	16.0	FR1	1	R1136N
690.177	2.567	1728522	PROB	2.567	n/a	n/a	-999	5	[7, 8, 7]	22.0	FR1	1	R1136N
692.744	0.017	1731089	STOP	n/a	n/a	n/a	-999	5	[-999, -999, -999]	n/a	FR1	1	R1136N
692.761	1.169	1731106	DISTRACT_END	n/a	n/a	n/a	-999	5	[0, 0, 0]	n/a	FR1	1	R1136N
693.93	12.333	1732275	REC_START	n/a	n/a	n/a	-999	5	[0, 0, 0]	n/a	FR1	1	R1136N
706.263	0.642	1744607	REC_WORD	12.333	n/a	PIG	-999	5	[0, 0, 0]	n/a	FR1	1	R1136N
706.905	16.635	1745249	REC_WORD	12.975	n/a	TOE	-999	5	[0, 0, 0]	n/a	FR1	1	R1136N
723.54	0.399	1761883	REC_WORD_VV	29.61	n/a	<>	-999	5	[0, 0, 0]	n/a	FR1	1	R1136N
723.939	3.594	1762282	REC_END	n/a	n/a	n/a	-999	5	[0, 0, 0]	n/a	FR1	1	R1136N
727.533	0.0	1765876	TRIAL	n/a	n/a	n/a	-999	6	[0, 0, 0]	n/a	FR1	1	R1136N
727.533	10.0	1765876	COUNTDOWN_START	n/a	n/a	n/a	-999	6	[0, 0, 0]	n/a	FR1	1	R1136N
737.961	0.008	1776304	COUNTDOWN_END	n/a	n/a	n/a	-999	6	[0, 0, 0]	n/a	FR1	1	R1136N
737.969	1.6	1776312	ORIENT	n/a	n/a	n/a	-999	6	[0, 0, 0]	n/a	FR1	1	R1136N
740.468	1.6	1778811	WORD	n/a	wordpools/wordpool_EN.txt	SUIT	1	6	[0, 0, 0]	n/a	FR1	1	R1136N
743.086	1.6	1781428	WORD	n/a	wordpools/wordpool_EN.txt	WOLF	2	6	[0, 0, 0]	n/a	FR1	1	R1136N
745.552	1.6	1783894	WORD	n/a	wordpools/wordpool_EN.txt	MAZE	3	6	[0, 0, 0]	n/a	FR1	1	R1136N
748.169	1.6	1786511	WORD	n/a	wordpools/wordpool_EN.txt	BOX	4	6	[0, 0, 0]	n/a	FR1	1	R1136N
750.721	1.6	1789063	WORD	n/a	wordpools/wordpool_EN.txt	CAPE	5	6	[0, 0, 0]	n/a	FR1	1	R1136N
753.304	1.6	1791646	WORD	n/a	wordpools/wordpool_EN.txt	BEACH	6	6	[0, 0, 0]	n/a	FR1	1	R1136N
755.922	1.6	1794264	WORD	n/a	wordpools/wordpool_EN.txt	SHIP	7	6	[0, 0, 0]	n/a	FR1	1	R1136N
758.454	1.6	1796796	WORD	n/a	wordpools/wordpool_EN.txt	SEA	8	6	[0, 0, 0]	n/a	FR1	1	R1136N
760.989	1.6	1799330	WORD	n/a	wordpools/wordpool_EN.txt	SEAL	9	6	[0, 0, 0]	n/a	FR1	1	R1136N
763.505	1.6	1801846	WORD	n/a	wordpools/wordpool_EN.txt	SNAIL	10	6	[0, 0, 0]	n/a	FR1	1	R1136N
765.94	1.6	1804281	WORD	n/a	wordpools/wordpool_EN.txt	SALT	11	6	[0, 0, 0]	n/a	FR1	1	R1136N
768.423	1.6	1806764	WORD	n/a	wordpools/wordpool_EN.txt	SLUSH	12	6	[0, 0, 0]	n/a	FR1	1	R1136N
770.041	0.001	1808382	DISTRACT_START	n/a	n/a	n/a	-999	6	[0, 0, 0]	n/a	FR1	1	R1136N
770.042	0.015	1808383	START	n/a	n/a	n/a	-999	6	[-999, -999, -999]	n/a	FR1	1	R1136N
770.057	3.834	1808398	PROB	3.799	n/a	n/a	-999	6	[4, 3, 4]	11.0	FR1	1	R1136N
773.891	2.934	1812232	PROB	2.901	n/a	n/a	-999	6	[3, 6, 5]	14.0	FR1	1	R1136N
776.825	2.901	1815166	PROB	2.872	n/a	n/a	-999	6	[7, 2, 6]	13.0	FR1	1	R1136N
779.726	2.167	1818067	PROB	2.146	n/a	n/a	-999	6	[4, 4, 4]	12.0	FR1	1	R1136N
781.893	2.532	1820233	PROB	2.506	n/a	n/a	-999	6	[6, 1, 3]	10.0	FR1	1	R1136N
784.425	2.067	1822765	PROB	2.046	n/a	n/a	-999	6	[5, 8, 7]	20.0	FR1	1	R1136N
786.492	3.835	1824832	PROB	3.835	n/a	n/a	-999	6	[7, 7, 6]	20.0	FR1	1	R1136N
790.327	0.016	1828667	STOP	n/a	n/a	n/a	-999	6	[-999, -999, -999]	n/a	FR1	1	R1136N
790.343	1.118	1828683	DISTRACT_END	n/a	n/a	n/a	-999	6	[0, 0, 0]	n/a	FR1	1	R1136N
791.461	2.16	1829801	REC_START	n/a	n/a	n/a	-999	6	[0, 0, 0]	n/a	FR1	1	R1136N
793.621	9.822	1831961	REC_WORD	2.16	n/a	SALT	-999	6	[0, 0, 0]	n/a	FR1	1	R1136N
803.443	18.028	1841782	REC_WORD	11.982	n/a	SEA	-999	6	[0, 0, 0]	n/a	FR1	1	R1136N
821.471	1.861	1859809	REC_END	n/a	n/a	n/a	-999	6	[0, 0, 0]	n/a	FR1	1	R1136N
823.332	10.0	1861670	COUNTDOWN_START	n/a	n/a	n/a	-999	7	[0, 0, 0]	n/a	FR1	1	R1136N
823.332	10.428	1861670	TRIAL	n/a	n/a	n/a	-999	7	[0, 0, 0]	n/a	FR1	1	R1136N
833.76	0.008	1872098	COUNTDOWN_END	n/a	n/a	n/a	-999	7	[0, 0, 0]	n/a	FR1	1	R1136N
833.768	1.6	1872106	ORIENT	n/a	n/a	n/a	-999	7	[0, 0, 0]	n/a	FR1	1	R1136N
836.384	1.6	1874722	WORD	n/a	wordpools/wordpool_EN.txt	TAIL	1	7	[0, 0, 0]	n/a	FR1	1	R1136N
838.769	1.6	1877107	WORD	n/a	wordpools/wordpool_EN.txt	FOOD	2	7	[0, 0, 0]	n/a	FR1	1	R1136N
841.185	1.6	1879522	WORD	n/a	wordpools/wordpool_EN.txt	DEER	3	7	[0, 0, 0]	n/a	FR1	1	R1136N
843.703	1.6	1882040	WORD	n/a	wordpools/wordpool_EN.txt	ARK	4	7	[0, 0, 0]	n/a	FR1	1	R1136N
846.286	1.6	1884623	WORD	n/a	wordpools/wordpool_EN.txt	TREE	5	7	[0, 0, 0]	n/a	FR1	1	R1136N
848.754	1.6	1887091	WORD	n/a	wordpools/wordpool_EN.txt	CALF	6	7	[0, 0, 0]	n/a	FR1	1	R1136N
851.236	1.6	1889573	WORD	n/a	wordpools/wordpool_EN.txt	WOOD	7	7	[0, 0, 0]	n/a	FR1	1	R1136N
853.605	1.6	1891942	WORD	n/a	wordpools/wordpool_EN.txt	TIE	8	7	[0, 0, 0]	n/a	FR1	1	R1136N
856.204	1.6	1894541	WORD	n/a	wordpools/wordpool_EN.txt	RAKE	9	7	[0, 0, 0]	n/a	FR1	1	R1136N
858.772	1.6	1897108	WORD	n/a	wordpools/wordpool_EN.txt	PEACH	10	7	[0, 0, 0]	n/a	FR1	1	R1136N
861.355	1.6	1899691	WORD	n/a	wordpools/wordpool_EN.txt	FENCE	11	7	[0, 0, 0]	n/a	FR1	1	R1136N
863.839	1.6	1902175	WORD	n/a	wordpools/wordpool_EN.txt	WEB	12	7	[0, 0, 0]	n/a	FR1	1	R1136N
865.455	0.001	1903791	DISTRACT_START	n/a	n/a	n/a	-999	7	[0, 0, 0]	n/a	FR1	1	R1136N
865.456	0.016	1903792	START	n/a	n/a	n/a	-999	7	[-999, -999, -999]	n/a	FR1	1	R1136N
865.472	4.285	1903808	PROB	4.257	n/a	n/a	-999	7	[3, 2, 7]	12.0	FR1	1	R1136N
869.757	4.184	1908093	PROB	4.148	n/a	n/a	-999	7	[9, 1, 7]	17.0	FR1	1	R1136N
873.941	3.101	1912277	PROB	3.067	n/a	n/a	-999	7	[2, 8, 5]	15.0	FR1	1	R1136N
877.042	3.499	1915378	PROB	3.469	n/a	n/a	-999	7	[8, 4, 6]	18.0	FR1	1	R1136N
880.541	4.734	1918876	PROB	4.698	n/a	n/a	-999	7	[2, 7, 6]	15.0	FR1	1	R1136N
885.275	3.18	1923610	PROB	3.18	n/a	n/a	-999	7	[9, 3, 9]	21.0	FR1	1	R1136N
888.455	0.021	1926790	STOP	n/a	n/a	n/a	-999	7	[-999, -999, -999]	n/a	FR1	1	R1136N
888.476	1.034	1926811	DISTRACT_END	n/a	n/a	n/a	-999	7	[0, 0, 0]	n/a	FR1	1	R1136N
889.51	1.098	1927845	REC_START	n/a	n/a	n/a	-999	7	[0, 0, 0]	n/a	FR1	1	R1136N
890.608	0.613	1928943	REC_WORD	1.098	n/a	PEACH	-999	7	[0, 0, 0]	n/a	FR1	1	R1136N
891.221	0.965	1929556	REC_WORD	1.711	n/a	FENCE	-999	7	[0, 0, 0]	n/a	FR1	1	R1136N
892.186	27.334	1930521	REC_WORD	2.676	n/a	WEB	-999	7	[0, 0, 0]	n/a	FR1	1	R1136N
919.52	2.062	1957853	REC_END	n/a	n/a	n/a	-999	7	[0, 0, 0]	n/a	FR1	1	R1136N
921.582	0.0	1959915	TRIAL	n/a	n/a	n/a	-999	8	[0, 0, 0]	n/a	FR1	1	R1136N
921.582	10.0	1959915	COUNTDOWN_START	n/a	n/a	n/a	-999	8	[0, 0, 0]	n/a	FR1	1	R1136N
932.01	0.007	1970343	COUNTDOWN_END	n/a	n/a	n/a	-999	8	[0, 0, 0]	n/a	FR1	1	R1136N
932.017	1.6	1970350	ORIENT	n/a	n/a	n/a	-999	8	[0, 0, 0]	n/a	FR1	1	R1136N
934.568	1.6	1972901	WORD	n/a	wordpools/wordpool_EN.txt	BAND	1	8	[0, 0, 0]	n/a	FR1	1	R1136N
936.968	1.6	1975300	WORD	n/a	wordpools/wordpool_EN.txt	TRAIN	2	8	[0, 0, 0]	n/a	FR1	1	R1136N
939.451	1.6	1977783	WORD	n/a	wordpools/wordpool_EN.txt	VAN	3	8	[0, 0, 0]	n/a	FR1	1	R1136N
941.952	1.6	1980284	WORD	n/a	wordpools/wordpool_EN.txt	FLUTE	4	8	[0, 0, 0]	n/a	FR1	1	R1136N
944.518	1.6	1982850	WORD	n/a	wordpools/wordpool_EN.txt	HAT	5	8	[0, 0, 0]	n/a	FR1	1	R1136N
946.92	1.6	1985252	WORD	n/a	wordpools/wordpool_EN.txt	DRUM	6	8	[0, 0, 0]	n/a	FR1	1	R1136N
949.369	1.6	1987701	WORD	n/a	wordpools/wordpool_EN.txt	CART	7	8	[0, 0, 0]	n/a	FR1	1	R1136N
951.904	1.6	1990236	WORD	n/a	wordpools/wordpool_EN.txt	STICK	8	8	[0, 0, 0]	n/a	FR1	1	R1136N
954.387	1.6	1992719	WORD	n/a	wordpools/wordpool_EN.txt	SOCK	9	8	[0, 0, 0]	n/a	FR1	1	R1136N
957.005	1.6	1995336	WORD	n/a	wordpools/wordpool_EN.txt	DIME	10	8	[0, 0, 0]	n/a	FR1	1	R1136N
959.538	1.6	1997869	WORD	n/a	wordpools/wordpool_EN.txt	FACE	11	8	[0, 0, 0]	n/a	FR1	1	R1136N
962.022	1.6	2000353	WORD	n/a	wordpools/wordpool_EN.txt	SKI	12	8	[0, 0, 0]	n/a	FR1	1	R1136N
963.639	0.001	2001970	DISTRACT_START	n/a	n/a	n/a	-999	8	[0, 0, 0]	n/a	FR1	1	R1136N
963.64	0.016	2001971	START	n/a	n/a	n/a	-999	8	[-999, -999, -999]	n/a	FR1	1	R1136N
963.656	7.334	2001987	PROB	7.313	n/a	n/a	-999	8	[8, 9, 9]	26.0	FR1	1	R1136N
970.99	3.734	2009321	PROB	3.698	n/a	n/a	-999	8	[4, 5, 4]	13.0	FR1	1	R1136N
974.724	3.567	2013055	PROB	3.531	n/a	n/a	-999	8	[6, 6, 2]	14.0	FR1	1	R1136N
978.291	4.735	2016621	PROB	4.71	n/a	n/a	-999	8	[4, 9, 3]	16.0	FR1	1	R1136N
983.026	2.559	2021356	PROB	2.559	n/a	n/a	-999	8	[5, 8, 5]	18.0	FR1	1	R1136N
985.585	0.008	2023915	STOP	n/a	n/a	n/a	-999	8	[-999, -999, -999]	n/a	FR1	1	R1136N
985.593	1.134	2023923	DISTRACT_END	n/a	n/a	n/a	-999	8	[0, 0, 0]	n/a	FR1	1	R1136N
986.727	15.418	2025057	REC_START	n/a	n/a	n/a	-999	8	[0, 0, 0]	n/a	FR1	1	R1136N
1002.145	1.378	2040474	REC_WORD	15.418	n/a	FLUTE	-999	8	[0, 0, 0]	n/a	FR1	1	R1136N
1003.523	4.192	2041852	REC_WORD	16.796	n/a	FLUTE	-999	8	[0, 0, 0]	n/a	FR1	1	R1136N
1007.715	0.577	2046044	REC_WORD	20.988	n/a	SKI	-999	8	[0, 0, 0]	n/a	FR1	1	R1136N
1008.292	5.547	2046621	REC_WORD	21.565	n/a	HAT	-999	8	[0, 0, 0]	n/a	FR1	1	R1136N
1013.839	2.898	2052168	REC_WORD	27.112	n/a	TRAIN	-999	8	[0, 0, 0]	n/a	FR1	1	R1136N
1016.737	2.028	2055065	REC_END	n/a	n/a	n/a	-999	8	[0, 0, 0]	n/a	FR1	1	R1136N
1018.765	10.0	2057093	COUNTDOWN_START	n/a	n/a	n/a	-999	9	[0, 0, 0]	n/a	FR1	1	R1136N
1018.765	10.428	2057093	TRIAL	n/a	n/a	n/a	-999	9	[0, 0, 0]	n/a	FR1	1	R1136N
1029.193	0.006	2067521	COUNTDOWN_END	n/a	n/a	n/a	-999	9	[0, 0, 0]	n/a	FR1	1	R1136N
1029.199	1.6	2067527	ORIENT	n/a	n/a	n/a	-999	9	[0, 0, 0]	n/a	FR1	1	R1136N
1031.65	1.6	2069978	WORD	n/a	wordpools/wordpool_EN.txt	LAND	1	9	[0, 0, 0]	n/a	FR1	1	R1136N
1034.267	1.6	2072595	WORD	n/a	wordpools/wordpool_EN.txt	SQUARE	2	9	[0, 0, 0]	n/a	FR1	1	R1136N
1036.884	1.6	2075211	WORD	n/a	wordpools/wordpool_EN.txt	SPOON	3	9	[0, 0, 0]	n/a	FR1	1	R1136N
1039.284	1.6	2077611	WORD	n/a	wordpools/wordpool_EN.txt	GRAPE	4	9	[0, 0, 0]	n/a	FR1	1	R1136N
1041.702	1.6	2080029	WORD	n/a	wordpools/wordpool_EN.txt	FARM	5	9	[0, 0, 0]	n/a	FR1	1	R1136N
1044.086	1.6	2082413	WORD	n/a	wordpools/wordpool_EN.txt	STOOL	6	9	[0, 0, 0]	n/a	FR1	1	R1136N
1046.62	1.6	2084947	WORD	n/a	wordpools/wordpool_EN.txt	BLOOM	7	9	[0, 0, 0]	n/a	FR1	1	R1136N
1049.136	1.6	2087463	WORD	n/a	wordpools/wordpool_EN.txt	APE	8	9	[0, 0, 0]	n/a	FR1	1	R1136N
1051.62	1.6	2089947	WORD	n/a	wordpools/wordpool_EN.txt	FLOOR	9	9	[0, 0, 0]	n/a	FR1	1	R1136N
1054.121	1.6	2092448	WORD	n/a	wordpools/wordpool_EN.txt	RAIN	10	9	[0, 0, 0]	n/a	FR1	1	R1136N
1056.554	1.6	2094880	WORD	n/a	wordpools/wordpool_EN.txt	CUP	11	9	[0, 0, 0]	n/a	FR1	1	R1136N
1059.055	1.6	2097381	WORD	n/a	wordpools/wordpool_EN.txt	ROCK	12	9	[0, 0, 0]	n/a	FR1	1	R1136N
1060.672	0.001	2098998	DISTRACT_START	n/a	n/a	n/a	-999	9	[0, 0, 0]	n/a	FR1	1	R1136N
1060.673	0.015	2098999	START	n/a	n/a	n/a	-999	9	[-999, -999, -999]	n/a	FR1	1	R1136N
1060.688	2.75	2099014	PROB	2.727	n/a	n/a	-999	9	[1, 4, 3]	8.0	FR1	1	R1136N
1063.438	2.117	2101764	PROB	2.081	n/a	n/a	-999	9	[4, 4, 1]	9.0	FR1	1	R1136N
1065.555	4.335	2103881	PROB	4.31	n/a	n/a	-999	9	[7, 4, 3]	14.0	FR1	1	R1136N
1069.89	2.599	2108216	PROB	2.565	n/a	n/a	-999	9	[7, 5, 1]	13.0	FR1	1	R1136N
1072.489	6.768	2110815	PROB	6.743	n/a	n/a	-999	9	[7, 6, 8]	21.0	FR1	1	R1136N
1079.257	4.687	2117582	PROB	4.687	n/a	n/a	-999	9	[7, 7, 2]	16.0	FR1	1	R1136N
1083.944	0.015	2122269	STOP	n/a	n/a	n/a	-999	9	[-999, -999, -999]	n/a	FR1	1	R1136N
1083.959	1.117	2122284	DISTRACT_END	n/a	n/a	n/a	-999	9	[0, 0, 0]	n/a	FR1	1	R1136N
1085.076	2.009	2123401	REC_START	n/a	n/a	n/a	-999	9	[0, 0, 0]	n/a	FR1	1	R1136N
1087.085	1.249	2125410	REC_WORD	2.009	n/a	FARM	-999	9	[0, 0, 0]	n/a	FR1	1	R1136N
1088.334	6.486	2126659	REC_WORD	3.258	n/a	STOOL	-999	9	[0, 0, 0]	n/a	FR1	1	R1136N
1094.82	20.27	2133144	REC_WORD	9.744	n/a	EGG	-999	9	[0, 0, 0]	n/a	FR1	1	R1136N
1115.09	1.658	2153413	REC_END	n/a	n/a	n/a	-999	9	[0, 0, 0]	n/a	FR1	1	R1136N
1116.748	0.0	2155071	TRIAL	n/a	n/a	n/a	-999	10	[0, 0, 0]	n/a	FR1	1	R1136N
1116.748	10.0	2155071	COUNTDOWN_START	n/a	n/a	n/a	-999	10	[0, 0, 0]	n/a	FR1	1	R1136N
1127.176	0.006	2165499	COUNTDOWN_END	n/a	n/a	n/a	-999	10	[0, 0, 0]	n/a	FR1	1	R1136N
1127.182	1.6	2165505	ORIENT	n/a	n/a	n/a	-999	10	[0, 0, 0]	n/a	FR1	1	R1136N
1129.667	1.6	2167990	WORD	n/a	wordpools/wordpool_EN.txt	KEY	1	10	[0, 0, 0]	n/a	FR1	1	R1136N
1132.283	1.6	2170606	WORD	n/a	wordpools/wordpool_EN.txt	SCHOOL	2	10	[0, 0, 0]	n/a	FR1	1	R1136N
1134.884	1.6	2173206	WORD	n/a	wordpools/wordpool_EN.txt	PIE	3	10	[0, 0, 0]	n/a	FR1	1	R1136N
1137.384	1.6	2175706	WORD	n/a	wordpools/wordpool_EN.txt	VASE	4	10	[0, 0, 0]	n/a	FR1	1	R1136N
1140.002	1.6	2178324	WORD	n/a	wordpools/wordpool_EN.txt	STRAW	5	10	[0, 0, 0]	n/a	FR1	1	R1136N
1142.434	1.6	2180756	WORD	n/a	wordpools/wordpool_EN.txt	CHIEF	6	10	[0, 0, 0]	n/a	FR1	1	R1136N
1145.036	1.6	2183358	WORD	n/a	wordpools/wordpool_EN.txt	BOY	7	10	[0, 0, 0]	n/a	FR1	1	R1136N
1147.435	1.6	2185757	WORD	n/a	wordpools/wordpool_EN.txt	BAT	8	10	[0, 0, 0]	n/a	FR1	1	R1136N
1150.003	1.6	2188325	WORD	n/a	wordpools/wordpool_EN.txt	PHONE	9	10	[0, 0, 0]	n/a	FR1	1	R1136N
1152.57	1.6	2190892	WORD	n/a	wordpools/wordpool_EN.txt	NOSE	10	10	[0, 0, 0]	n/a	FR1	1	R1136N
1155.087	1.6	2193408	WORD	n/a	wordpools/wordpool_EN.txt	HOOF	11	10	[0, 0, 0]	n/a	FR1	1	R1136N
1157.638	1.6	2195959	WORD	n/a	wordpools/wordpool_EN.txt	COIN	12	10	[0, 0, 0]	n/a	FR1	1	R1136N
1159.254	0.001	2197575	DISTRACT_START	n/a	n/a	n/a	-999	10	[0, 0, 0]	n/a	FR1	1	R1136N
1159.255	0.016	2197576	START	n/a	n/a	n/a	-999	10	[-999, -999, -999]	n/a	FR1	1	R1136N
1159.271	6.05	2197592	PROB	6.024	n/a	n/a	-999	10	[8, 6, 8]	22.0	FR1	1	R1136N
1165.321	2.752	2203642	PROB	2.728	n/a	n/a	-999	10	[1, 8, 4]	13.0	FR1	1	R1136N
1168.073	3.884	2206394	PROB	3.848	n/a	n/a	-999	10	[4, 7, 9]	20.0	FR1	1	R1136N
1171.957	2.817	2210278	PROB	2.796	n/a	n/a	-999	10	[6, 7, 3]	16.0	FR1	1	R1136N
1174.774	2.733	2213094	PROB	2.706	n/a	n/a	-999	10	[8, 1, 7]	16.0	FR1	1	R1136N
1177.507	2.246	2215827	PROB	2.246	n/a	n/a	-999	10	[3, 1, 8]	12.0	FR1	1	R1136N
1179.753	0.005	2218073	STOP	n/a	n/a	n/a	-999	10	[-999, -999, -999]	n/a	FR1	1	R1136N
1179.758	1.168	2218078	DISTRACT_END	n/a	n/a	n/a	-999	10	[0, 0, 0]	n/a	FR1	1	R1136N
1180.926	0.43	2219246	REC_START	n/a	n/a	n/a	-999	10	[0, 0, 0]	n/a	FR1	1	R1136N
1181.356	29.257	2219676	REC_WORD	0.43	n/a	COIN	-999	10	[0, 0, 0]	n/a	FR1	1	R1136N
1210.613	0.323	2248932	REC_WORD_VV	29.687	n/a	<>	-999	10	[0, 0, 0]	n/a	FR1	1	R1136N
1210.936	2.343	2249255	REC_END	n/a	n/a	n/a	-999	10	[0, 0, 0]	n/a	FR1	1	R1136N
1213.279	10.0	2251597	COUNTDOWN_START	n/a	n/a	n/a	-999	11	[0, 0, 0]	n/a	FR1	1	R1136N
1213.28	10.427	2251598	TRIAL	n/a	n/a	n/a	-999	11	[0, 0, 0]	n/a	FR1	1	R1136N
1223.707	0.008	2262025	COUNTDOWN_END	n/a	n/a	n/a	-999	11	[0, 0, 0]	n/a	FR1	1	R1136N
1223.715	1.6	2262033	ORIENT	n/a	n/a	n/a	-999	11	[0, 0, 0]	n/a	FR1	1	R1136N
1226.298	1.6	2264616	WORD	n/a	wordpools/wordpool_EN.txt	NET	1	11	[0, 0, 0]	n/a	FR1	1	R1136N
1228.816	1.6	2267134	WORD	n/a	wordpools/wordpool_EN.txt	MOLE	2	11	[0, 0, 0]	n/a	FR1	1	R1136N
1231.366	1.6	2269683	WORD	n/a	wordpools/wordpool_EN.txt	THREAD	3	11	[0, 0, 0]	n/a	FR1	1	R1136N
1233.784	1.6	2272101	WORD	n/a	wordpools/wordpool_EN.txt	STAR	4	11	[0, 0, 0]	n/a	FR1	1	R1136N
1236.417	1.6	2274734	WORD	n/a	wordpools/wordpool_EN.txt	SHELL	5	11	[0, 0, 0]	n/a	FR1	1	R1136N
1238.835	1.6	2277152	WORD	n/a	wordpools/wordpool_EN.txt	SNOW	6	11	[0, 0, 0]	n/a	FR1	1	R1136N
1241.234	1.6	2279551	WORD	n/a	wordpools/wordpool_EN.txt	SHEET	7	11	[0, 0, 0]	n/a	FR1	1	R1136N
1243.702	1.6	2282019	WORD	n/a	wordpools/wordpool_EN.txt	BALL	8	11	[0, 0, 0]	n/a	FR1	1	R1136N
1246.119	1.6	2284436	WORD	n/a	wordpools/wordpool_EN.txt	CLOTH	9	11	[0, 0, 0]	n/a	FR1	1	R1136N
1248.67	1.6	2286987	WORD	n/a	wordpools/wordpool_EN.txt	CLOUD	10	11	[0, 0, 0]	n/a	FR1	1	R1136N
1251.286	1.6	2289602	WORD	n/a	wordpools/wordpool_EN.txt	WHEEL	11	11	[0, 0, 0]	n/a	FR1	1	R1136N
1253.837	1.6	2292153	WORD	n/a	wordpools/wordpool_EN.txt	SHARK	12	11	[0, 0, 0]	n/a	FR1	1	R1136N
1255.453	0.001	2293769	DISTRACT_START	n/a	n/a	n/a	-999	11	[0, 0, 0]	n/a	FR1	1	R1136N
1255.454	0.016	2293770	START	n/a	n/a	n/a	-999	11	[-999, -999, -999]	n/a	FR1	1	R1136N
1255.47	8.352	2293786	PROB	8.33	n/a	n/a	-999	11	[4, 7, 6]	17.0	FR1	1	R1136N
1263.822	6.818	2302138	PROB	6.795	n/a	n/a	-999	11	[6, 7, 9]	22.0	FR1	1	R1136N
1270.64	3.117	2308955	PROB	3.097	n/a	n/a	-999	11	[9, 8, 4]	21.0	FR1	1	R1136N
1273.757	3.075	2312072	PROB	3.075	n/a	n/a	-999	11	[3, 4, 6]	13.0	FR1	1	R1136N
1276.832	0.009	2315147	STOP	n/a	n/a	n/a	-999	11	[-999, -999, -999]	n/a	FR1	1	R1136N
1276.841	1.084	2315156	DISTRACT_END	n/a	n/a	n/a	-999	11	[0, 0, 0]	n/a	FR1	1	R1136N
1277.925	2.476	2316240	REC_START	n/a	n/a	n/a	-999	11	[0, 0, 0]	n/a	FR1	1	R1136N
1280.401	1.203	2318716	REC_WORD	2.476	n/a	SNOW	-999	11	[0, 0, 0]	n/a	FR1	1	R1136N
1281.604	2.969	2319919	REC_WORD	3.679	n/a	BALL	-999	11	[0, 0, 0]	n/a	FR1	1	R1136N
1284.573	23.362	2322888	REC_WORD	6.648	n/a	CLOUD	-999	11	[0, 0, 0]	n/a	FR1	1	R1136N
1307.935	1.41	2346249	REC_END	n/a	n/a	n/a	-999	11	[0, 0, 0]	n/a	FR1	1	R1136N
1309.345	0.0	2347659	TRIAL	n/a	n/a	n/a	-999	12	[0, 0, 0]	n/a	FR1	1	R1136N
1309.345	10.0	2347659	COUNTDOWN_START	n/a	n/a	n/a	-999	12	[0, 0, 0]	n/a	FR1	1	R1136N
1319.773	0.008	2358086	COUNTDOWN_END	n/a	n/a	n/a	-999	12	[0, 0, 0]	n/a	FR1	1	R1136N
1319.781	1.6	2358094	ORIENT	n/a	n/a	n/a	-999	12	[0, 0, 0]	n/a	FR1	1	R1136N
1322.247	1.6	2360560	WORD	n/a	wordpools/wordpool_EN.txt	GLOVE	1	12	[0, 0, 0]	n/a	FR1	1	R1136N
1324.615	1.6	2362928	WORD	n/a	wordpools/wordpool_EN.txt	CHAIR	2	12	[0, 0, 0]	n/a	FR1	1	R1136N
1327.116	1.6	2365429	WORD	n/a	wordpools/wordpool_EN.txt	ARM	3	12	[0, 0, 0]	n/a	FR1	1	R1136N
1329.733	1.6	2368045	WORD	n/a	wordpools/wordpool_EN.txt	BOARD	4	12	[0, 0, 0]	n/a	FR1	1	R1136N
1332.316	1.6	2370628	WORD	n/a	wordpools/wordpool_EN.txt	FISH	5	12	[0, 0, 0]	n/a	FR1	1	R1136N
1334.717	1.6	2373029	WORD	n/a	wordpools/wordpool_EN.txt	SHIRT	6	12	[0, 0, 0]	n/a	FR1	1	R1136N
1337.2	1.6	2375512	WORD	n/a	wordpools/wordpool_EN.txt	TEETH	7	12	[0, 0, 0]	n/a	FR1	1	R1136N
1339.635	1.6	2377947	WORD	n/a	wordpools/wordpool_EN.txt	BARN	8	12	[0, 0, 0]	n/a	FR1	1	R1136N
1342.167	1.6	2380479	WORD	n/a	wordpools/wordpool_EN.txt	SHRIMP	9	12	[0, 0, 0]	n/a	FR1	1	R1136N
1344.719	1.6	2383031	WORD	n/a	wordpools/wordpool_EN.txt	CHALK	10	12	[0, 0, 0]	n/a	FR1	1	R1136N
1347.285	1.6	2385597	WORD	n/a	wordpools/wordpool_EN.txt	CLIFF	11	12	[0, 0, 0]	n/a	FR1	1	R1136N
1349.903	1.6	2388214	WORD	n/a	wordpools/wordpool_EN.txt	WORLD	12	12	[0, 0, 0]	n/a	FR1	1	R1136N
1351.519	0.001	2389830	DISTRACT_START	n/a	n/a	n/a	-999	12	[0, 0, 0]	n/a	FR1	1	R1136N
1351.52	0.016	2389831	START	n/a	n/a	n/a	-999	12	[-999, -999, -999]	n/a	FR1	1	R1136N
1351.536	3.717	2389847	PROB	3.695	n/a	n/a	-999	12	[8, 7, 6]	21.0	FR1	1	R1136N
1355.253	3.351	2393564	PROB	3.331	n/a	n/a	-999	12	[9, 1, 9]	19.0	FR1	1	R1136N
1358.604	2.667	2396915	PROB	2.643	n/a	n/a	-999	12	[7, 2, 5]	14.0	FR1	1	R1136N
1361.271	2.551	2399582	PROB	2.521	n/a	n/a	-999	12	[9, 8, 4]	21.0	FR1	1	R1136N
1363.822	2.284	2402133	PROB	2.25	n/a	n/a	-999	12	[5, 4, 1]	10.0	FR1	1	R1136N
1366.106	2.149	2404417	PROB	2.125	n/a	n/a	-999	12	[8, 3, 1]	12.0	FR1	1	R1136N
1368.255	2.718	2406566	PROB	2.698	n/a	n/a	-999	12	[5, 4, 7]	16.0	FR1	1	R1136N
1370.973	2.059	2409283	PROB	2.059	n/a	n/a	-999	12	[7, 3, 7]	17.0	FR1	1	R1136N
1373.032	0.008	2411342	STOP	n/a	n/a	n/a	-999	12	[-999, -999, -999]	n/a	FR1	1	R1136N
1373.04	1.034	2411350	DISTRACT_END	n/a	n/a	n/a	-999	12	[0, 0, 0]	n/a	FR1	1	R1136N
1374.074	0.703	2412384	REC_START	n/a	n/a	n/a	-999	12	[0, 0, 0]	n/a	FR1	1	R1136N
1374.777	1.457	2413087	REC_WORD	0.703	n/a	GLOVE	-999	12	[0, 0, 0]	n/a	FR1	1	R1136N
1376.234	1.504	2414544	REC_WORD	2.16	n/a	CHAIR	-999	12	[0, 0, 0]	n/a	FR1	1	R1136N
1377.738	1.475	2416048	REC_WORD	3.664	n/a	ARM	-999	12	[0, 0, 0]	n/a	FR1	1	R1136N
1379.213	1.508	2417523	REC_WORD	5.139	n/a	FISH	-999	12	[0, 0, 0]	n/a	FR1	1	R1136N
1380.721	23.369	2419031	REC_WORD	6.647	n/a	TEETH	-999	12	[0, 0, 0]	n/a	FR1	1	R1136N
1404.09	1.505	2442399	REC_END	n/a	n/a	n/a	-999	12	[0, 0, 0]	n/a	FR1	1	R1136N
1405.595	10.0	2443904	COUNTDOWN_START	n/a	n/a	n/a	-999	13	[0, 0, 0]	n/a	FR1	1	R1136N
1405.596	10.427	2443905	TRIAL	n/a	n/a	n/a	-999	13	[0, 0, 0]	n/a	FR1	1	R1136N
1416.023	0.007	2454331	COUNTDOWN_END	n/a	n/a	n/a	-999	13	[0, 0, 0]	n/a	FR1	1	R1136N
1416.03	1.6	2454338	ORIENT	n/a	n/a	n/a	-999	13	[0, 0, 0]	n/a	FR1	1	R1136N
1418.463	1.6	2456771	WORD	n/a	wordpools/wordpool_EN.txt	MOTH	1	13	[0, 0, 0]	n/a	FR1	1	R1136N
1421.048	1.6	2459356	WORD	n/a	wordpools/wordpool_EN.txt	SHIELD	2	13	[0, 0, 0]	n/a	FR1	1	R1136N
1423.598	1.6	2461906	WORD	n/a	wordpools/wordpool_EN.txt	FUDGE	3	13	[0, 0, 0]	n/a	FR1	1	R1136N
1426.049	1.6	2464357	WORD	n/a	wordpools/wordpool_EN.txt	POND	4	13	[0, 0, 0]	n/a	FR1	1	R1136N
1428.616	1.6	2466923	WORD	n/a	wordpools/wordpool_EN.txt	SAIL	5	13	[0, 0, 0]	n/a	FR1	1	R1136N
1431.165	1.6	2469472	WORD	n/a	wordpools/wordpool_EN.txt	BEE	6	13	[0, 0, 0]	n/a	FR1	1	R1136N
1433.549	1.6	2471856	WORD	n/a	wordpools/wordpool_EN.txt	ROOT	7	13	[0, 0, 0]	n/a	FR1	1	R1136N
1436.084	1.6	2474391	WORD	n/a	wordpools/wordpool_EN.txt	BOAT	8	13	[0, 0, 0]	n/a	FR1	1	R1136N
1438.584	1.6	2476891	WORD	n/a	wordpools/wordpool_EN.txt	ANT	9	13	[0, 0, 0]	n/a	FR1	1	R1136N
1441.118	1.6	2479425	WORD	n/a	wordpools/wordpool_EN.txt	WAVE	10	13	[0, 0, 0]	n/a	FR1	1	R1136N
1443.652	1.6	2481959	WORD	n/a	wordpools/wordpool_EN.txt	SPONGE	11	13	[0, 0, 0]	n/a	FR1	1	R1136N
1446.119	1.6	2484426	WORD	n/a	wordpools/wordpool_EN.txt	BRANCH	12	13	[0, 0, 0]	n/a	FR1	1	R1136N
1447.736	0.001	2486042	DISTRACT_START	n/a	n/a	n/a	-999	13	[0, 0, 0]	n/a	FR1	1	R1136N
1447.737	0.015	2486043	START	n/a	n/a	n/a	-999	13	[-999, -999, -999]	n/a	FR1	1	R1136N
1447.752	4.218	2486058	PROB	4.184	n/a	n/a	-999	13	[6, 1, 6]	13.0	FR1	1	R1136N
1451.97	1.582	2490276	PROB	1.549	n/a	n/a	-999	13	[5, 5, 5]	15.0	FR1	1	R1136N
1453.552	3.202	2491858	PROB	3.169	n/a	n/a	-999	13	[7, 2, 9]	18.0	FR1	1	R1136N
1456.754	2.067	2495060	PROB	2.047	n/a	n/a	-999	13	[5, 3, 5]	13.0	FR1	1	R1136N
1458.821	2.549	2497127	PROB	2.522	n/a	n/a	-999	13	[8, 2, 7]	17.0	FR1	1	R1136N
1461.37	2.535	2499676	PROB	2.51	n/a	n/a	-999	13	[2, 7, 8]	17.0	FR1	1	R1136N
1463.905	2.283	2502211	PROB	2.262	n/a	n/a	-999	13	[2, 8, 5]	15.0	FR1	1	R1136N
1466.188	3.396	2504494	PROB	3.396	n/a	n/a	-999	13	[4, 7, 2]	13.0	FR1	1	R1136N
1469.584	0.005	2507889	STOP	n/a	n/a	n/a	-999	13	[-999, -999, -999]	n/a	FR1	1	R1136N
1469.589	1.068	2507894	DISTRACT_END	n/a	n/a	n/a	-999	13	[0, 0, 0]	n/a	FR1	1	R1136N
1470.657	29.767	2508962	REC_START	n/a	n/a	n/a	-999	13	[0, 0, 0]	n/a	FR1	1	R1136N
1500.424	0.244	2538728	REC_WORD_VV	29.767	n/a	<>	-999	13	[0, 0, 0]	n/a	FR1	1	R1136N
1500.668	1.377	2538972	REC_END	n/a	n/a	n/a	-999	13	[0, 0, 0]	n/a	FR1	1	R1136N
1502.045	10.0	2540349	COUNTDOWN_START	n/a	n/a	n/a	-999	14	[0, 0, 0]	n/a	FR1	1	R1136N
1502.045	10.428	2540349	TRIAL	n/a	n/a	n/a	-999	14	[0, 0, 0]	n/a	FR1	1	R1136N
1512.473	0.006	2550776	COUNTDOWN_END	n/a	n/a	n/a	-999	14	[0, 0, 0]	n/a	FR1	1	R1136N
1512.479	1.6	2550782	ORIENT	n/a	n/a	n/a	-999	14	[0, 0, 0]	n/a	FR1	1	R1136N
1514.997	1.6	2553300	WORD	n/a	wordpools/wordpool_EN.txt	PLANE	1	14	[0, 0, 0]	n/a	FR1	1	R1136N
1517.597	1.6	2555900	WORD	n/a	wordpools/wordpool_EN.txt	EAR	2	14	[0, 0, 0]	n/a	FR1	1	R1136N
1520.098	1.6	2558401	WORD	n/a	wordpools/wordpool_EN.txt	STRING	3	14	[0, 0, 0]	n/a	FR1	1	R1136N
1522.715	1.6	2561018	WORD	n/a	wordpools/wordpool_EN.txt	LOCK	4	14	[0, 0, 0]	n/a	FR1	1	R1136N
1525.264	1.6	2563567	WORD	n/a	wordpools/wordpool_EN.txt	PLATE	5	14	[0, 0, 0]	n/a	FR1	1	R1136N
1527.649	1.6	2565951	WORD	n/a	wordpools/wordpool_EN.txt	TOOL	6	14	[0, 0, 0]	n/a	FR1	1	R1136N
1530.049	1.6	2568351	WORD	n/a	wordpools/wordpool_EN.txt	NEST	7	14	[0, 0, 0]	n/a	FR1	1	R1136N
1532.499	1.6	2570801	WORD	n/a	wordpools/wordpool_EN.txt	EEL	8	14	[0, 0, 0]	n/a	FR1	1	R1136N
1535.0	1.6	2573302	WORD	n/a	wordpools/wordpool_EN.txt	JET	9	14	[0, 0, 0]	n/a	FR1	1	R1136N
1537.383	1.6	2575685	WORD	n/a	wordpools/wordpool_EN.txt	CONE	10	14	[0, 0, 0]	n/a	FR1	1	R1136N
1539.884	1.6	2578186	WORD	n/a	wordpools/wordpool_EN.txt	INK	11	14	[0, 0, 0]	n/a	FR1	1	R1136N
1542.5	1.6	2580802	WORD	n/a	wordpools/wordpool_EN.txt	HAWK	12	14	[0, 0, 0]	n/a	FR1	1	R1136N
1544.101	0.001	2582403	DISTRACT_START	n/a	n/a	n/a	-999	14	[0, 0, 0]	n/a	FR1	1	R1136N
1544.102	0.016	2582404	START	n/a	n/a	n/a	-999	14	[-999, -999, -999]	n/a	FR1	1	R1136N
1544.118	2.917	2582420	PROB	2.883	n/a	n/a	-999	14	[3, 9, 7]	19.0	FR1	1	R1136N
1547.035	3.117	2585336	PROB	3.092	n/a	n/a	-999	14	[2, 6, 5]	13.0	FR1	1	R1136N
1550.152	2.651	2588453	PROB	2.624	n/a	n/a	-999	14	[4, 6, 6]	16.0	FR1	1	R1136N
1552.803	6.583	2591104	PROB	6.556	n/a	n/a	-999	14	[3, 3, 4]	10.0	FR1	1	R1136N
1559.386	3.084	2597687	PROB	3.062	n/a	n/a	-999	14	[6, 9, 2]	17.0	FR1	1	R1136N
1562.47	3.226	2600771	PROB	3.226	n/a	n/a	-999	14	[1, 1, 2]	4.0	FR1	1	R1136N
1565.696	0.009	2603996	STOP	n/a	n/a	n/a	-999	14	[-999, -999, -999]	n/a	FR1	1	R1136N
1565.705	1.151	2604005	DISTRACT_END	n/a	n/a	n/a	-999	14	[0, 0, 0]	n/a	FR1	1	R1136N
1566.856	3.579	2605156	REC_START	n/a	n/a	n/a	-999	14	[0, 0, 0]	n/a	FR1	1	R1136N
1570.435	0.464	2608735	REC_WORD	3.579	n/a	JET	-999	14	[0, 0, 0]	n/a	FR1	1	R1136N
1570.899	0.684	2609199	REC_WORD	4.043	n/a	CONE	-999	14	[0, 0, 0]	n/a	FR1	1	R1136N
1571.583	25.285	2609883	REC_WORD	4.727	n/a	INK	-999	14	[0, 0, 0]	n/a	FR1	1	R1136N
1596.868	2.143	2635167	REC_END	n/a	n/a	n/a	-999	14	[0, 0, 0]	n/a	FR1	1	R1136N
1599.011	0.0	2637310	TRIAL	n/a	n/a	n/a	-999	15	[0, 0, 0]	n/a	FR1	1	R1136N
1599.011	10.0	2637310	COUNTDOWN_START	n/a	n/a	n/a	-999	15	[0, 0, 0]	n/a	FR1	1	R1136N
1609.439	0.006	2647737	COUNTDOWN_END	n/a	n/a	n/a	-999	15	[0, 0, 0]	n/a	FR1	1	R1136N
1609.445	1.6	2647743	ORIENT	n/a	n/a	n/a	-999	15	[0, 0, 0]	n/a	FR1	1	R1136N
1611.929	1.6	2650227	WORD	n/a	wordpools/wordpool_EN.txt	MOON	1	15	[0, 0, 0]	n/a	FR1	1	R1136N
1614.479	1.6	2652777	WORD	n/a	wordpools/wordpool_EN.txt	CASH	2	15	[0, 0, 0]	n/a	FR1	1	R1136N
1617.064	1.6	2655362	WORD	n/a	wordpools/wordpool_EN.txt	MAIL	3	15	[0, 0, 0]	n/a	FR1	1	R1136N
1619.513	1.6	2657811	WORD	n/a	wordpools/wordpool_EN.txt	BOMB	4	15	[0, 0, 0]	n/a	FR1	1	R1136N
1621.998	1.6	2660296	WORD	n/a	wordpools/wordpool_EN.txt	ICE	5	15	[0, 0, 0]	n/a	FR1	1	R1136N
1624.397	1.6	2662694	WORD	n/a	wordpools/wordpool_EN.txt	LEAF	6	15	[0, 0, 0]	n/a	FR1	1	R1136N
1626.982	1.6	2665279	WORD	n/a	wordpools/wordpool_EN.txt	MAP	7	15	[0, 0, 0]	n/a	FR1	1	R1136N
1629.582	1.6	2667879	WORD	n/a	wordpools/wordpool_EN.txt	FILM	8	15	[0, 0, 0]	n/a	FR1	1	R1136N
1632.083	1.6	2670380	WORD	n/a	wordpools/wordpool_EN.txt	FORT	9	15	[0, 0, 0]	n/a	FR1	1	R1136N
1634.617	1.6	2672914	WORD	n/a	wordpools/wordpool_EN.txt	TRUCK	10	15	[0, 0, 0]	n/a	FR1	1	R1136N
1637.216	1.6	2675513	WORD	n/a	wordpools/wordpool_EN.txt	CORD	11	15	[0, 0, 0]	n/a	FR1	1	R1136N
1639.634	1.6	2677931	WORD	n/a	wordpools/wordpool_EN.txt	OAR	12	15	[0, 0, 0]	n/a	FR1	1	R1136N
1641.25	0.001	2679547	DISTRACT_START	n/a	n/a	n/a	-999	15	[0, 0, 0]	n/a	FR1	1	R1136N
1641.251	0.016	2679548	START	n/a	n/a	n/a	-999	15	[-999, -999, -999]	n/a	FR1	1	R1136N
1641.267	4.618	2679564	PROB	4.598	n/a	n/a	-999	15	[3, 5, 7]	15.0	FR1	1	R1136N
1645.885	4.45	2684181	PROB	4.426	n/a	n/a	-999	15	[2, 9, 5]	16.0	FR1	1	R1136N
1650.335	2.468	2688631	PROB	2.442	n/a	n/a	-999	15	[1, 8, 5]	14.0	FR1	1	R1136N
1652.803	1.699	2691099	PROB	1.676	n/a	n/a	-999	15	[3, 3, 7]	13.0	FR1	1	R1136N
1654.502	7.418	2692798	PROB	7.418	n/a	n/a	-999	15	[4, 7, 5]	16.0	FR1	1	R1136N
1661.92	0.018	2700216	STOP	n/a	n/a	n/a	-999	15	[-999, -999, -999]	n/a	FR1	1	R1136N
1661.938	1.199	2700234	DISTRACT_END	n/a	n/a	n/a	-999	15	[0, 0, 0]	n/a	FR1	1	R1136N
1663.137	0.981	2701432	REC_START	n/a	n/a	n/a	-999	15	[0, 0, 0]	n/a	FR1	1	R1136N
1664.118	0.678	2702413	REC_WORD	0.981	n/a	MOON	-999	15	[0, 0, 0]	n/a	FR1	1	R1136N
1664.796	0.995	2703091	REC_WORD	1.659	n/a	CASH	-999	15	[0, 0, 0]	n/a	FR1	1	R1136N
1665.791	0.833	2704086	REC_WORD	2.654	n/a	ICE	-999	15	[0, 0, 0]	n/a	FR1	1	R1136N
1666.624	26.525	2704919	REC_WORD	3.487	n/a	FILM	-999	15	[0, 0, 0]	n/a	FR1	1	R1136N
1693.149	1.343	2731443	REC_END	n/a	n/a	n/a	-999	15	[0, 0, 0]	n/a	FR1	1	R1136N
1694.492	10.0	2732786	COUNTDOWN_START	n/a	n/a	n/a	-999	16	[0, 0, 0]	n/a	FR1	1	R1136N
1694.492	10.428	2732786	TRIAL	n/a	n/a	n/a	-999	16	[0, 0, 0]	n/a	FR1	1	R1136N
1704.92	0.008	2743213	COUNTDOWN_END	n/a	n/a	n/a	-999	16	[0, 0, 0]	n/a	FR1	1	R1136N
1704.928	1.6	2743221	ORIENT	n/a	n/a	n/a	-999	16	[0, 0, 0]	n/a	FR1	1	R1136N
1707.544	1.6	2745837	WORD	n/a	wordpools/wordpool_EN.txt	HEN	1	16	[0, 0, 0]	n/a	FR1	1	R1136N
1709.979	1.6	2748272	WORD	n/a	wordpools/wordpool_EN.txt	RICE	2	16	[0, 0, 0]	n/a	FR1	1	R1136N
1712.562	1.6	2750855	WORD	n/a	wordpools/wordpool_EN.txt	BLUSH	3	16	[0, 0, 0]	n/a	FR1	1	R1136N
1714.963	1.6	2753256	WORD	n/a	wordpools/wordpool_EN.txt	SUN	4	16	[0, 0, 0]	n/a	FR1	1	R1136N
1717.58	1.6	2755873	WORD	n/a	wordpools/wordpool_EN.txt	STREET	5	16	[0, 0, 0]	n/a	FR1	1	R1136N
1720.03	1.6	2758323	WORD	n/a	wordpools/wordpool_EN.txt	HOOK	6	16	[0, 0, 0]	n/a	FR1	1	R1136N
1722.413	1.6	2760705	WORD	n/a	wordpools/wordpool_EN.txt	HOSE	7	16	[0, 0, 0]	n/a	FR1	1	R1136N
1725.015	1.6	2763307	WORD	n/a	wordpools/wordpool_EN.txt	STORE	8	16	[0, 0, 0]	n/a	FR1	1	R1136N
1727.531	1.6	2765823	WORD	n/a	wordpools/wordpool_EN.txt	CAT	9	16	[0, 0, 0]	n/a	FR1	1	R1136N
1730.099	1.6	2768391	WORD	n/a	wordpools/wordpool_EN.txt	LAMP	10	16	[0, 0, 0]	n/a	FR1	1	R1136N
1732.666	1.6	2770958	WORD	n/a	wordpools/wordpool_EN.txt	STOVE	11	16	[0, 0, 0]	n/a	FR1	1	R1136N
1735.149	1.6	2773441	WORD	n/a	wordpools/wordpool_EN.txt	MILK	12	16	[0, 0, 0]	n/a	FR1	1	R1136N
1736.767	0.001	2775059	DISTRACT_START	n/a	n/a	n/a	-999	16	[0, 0, 0]	n/a	FR1	1	R1136N
1736.768	0.015	2775060	START	n/a	n/a	n/a	-999	16	[-999, -999, -999]	n/a	FR1	1	R1136N
1736.783	3.75	2775075	PROB	3.72	n/a	n/a	-999	16	[1, 8, 2]	11.0	FR1	1	R1136N
1740.533	2.185	2778825	PROB	2.155	n/a	n/a	-999	16	[5, 2, 5]	12.0	FR1	1	R1136N
1742.718	2.832	2781009	PROB	2.801	n/a	n/a	-999	16	[2, 7, 7]	16.0	FR1	1	R1136N
1745.55	1.984	2783841	PROB	1.962	n/a	n/a	-999	16	[1, 4, 6]	11.0	FR1	1	R1136N
1747.534	3.518	2785825	PROB	3.49	n/a	n/a	-999	16	[4, 7, 5]	16.0	FR1	1	R1136N
1751.052	2.034	2789343	PROB	2.004	n/a	n/a	-999	16	[8, 7, 1]	16.0	FR1	1	R1136N
1753.086	3.762	2791377	PROB	3.762	n/a	n/a	-999	16	[1, 3, 2]	6.0	FR1	1	R1136N
1756.848	0.005	2795139	STOP	n/a	n/a	n/a	-999	16	[-999, -999, -999]	n/a	FR1	1	R1136N
1756.853	1.051	2795144	DISTRACT_END	n/a	n/a	n/a	-999	16	[0, 0, 0]	n/a	FR1	1	R1136N
1757.904	1.301	2796195	REC_START	n/a	n/a	n/a	-999	16	[0, 0, 0]	n/a	FR1	1	R1136N
1759.205	0.728	2797496	REC_WORD	1.301	n/a	HEN	-999	16	[0, 0, 0]	n/a	FR1	1	R1136N
1759.933	2.093	2798224	REC_WORD	2.029	n/a	RICE	-999	16	[0, 0, 0]	n/a	FR1	1	R1136N
1762.026	2.381	2800316	REC_WORD	4.122	n/a	SUN	-999	16	[0, 0, 0]	n/a	FR1	1	R1136N
1764.407	0.89	2802697	REC_WORD	6.503	n/a	STORE	-999	16	[0, 0, 0]	n/a	FR1	1	R1136N
1765.297	22.62	2803587	REC_WORD	7.393	n/a	LAMP	-999	16	[0, 0, 0]	n/a	FR1	1	R1136N
1787.917	1.491	2826206	REC_END	n/a	n/a	n/a	-999	16	[0, 0, 0]	n/a	FR1	1	R1136N
1789.408	0.0	2827697	TRIAL	n/a	n/a	n/a	-999	17	[0, 0, 0]	n/a	FR1	1	R1136N
1789.408	10.0	2827697	COUNTDOWN_START	n/a	n/a	n/a	-999	17	[0, 0, 0]	n/a	FR1	1	R1136N
1799.836	0.008	2838125	COUNTDOWN_END	n/a	n/a	n/a	-999	17	[0, 0, 0]	n/a	FR1	1	R1136N
1799.844	1.6	2838133	ORIENT	n/a	n/a	n/a	-999	17	[0, 0, 0]	n/a	FR1	1	R1136N
1802.26	1.6	2840548	WORD	n/a	wordpools/wordpool_EN.txt	HAND	1	17	[0, 0, 0]	n/a	FR1	1	R1136N
1804.711	1.6	2842999	WORD	n/a	wordpools/wordpool_EN.txt	ROOF	2	17	[0, 0, 0]	n/a	FR1	1	R1136N
1807.277	1.6	2845565	WORD	n/a	wordpools/wordpool_EN.txt	GLASS	3	17	[0, 0, 0]	n/a	FR1	1	R1136N
1809.679	1.6	2847967	WORD	n/a	wordpools/wordpool_EN.txt	PIPE	4	17	[0, 0, 0]	n/a	FR1	1	R1136N
1812.295	1.6	2850583	WORD	n/a	wordpools/wordpool_EN.txt	BROOM	5	17	[0, 0, 0]	n/a	FR1	1	R1136N
1814.863	1.6	2853151	WORD	n/a	wordpools/wordpool_EN.txt	ROPE	6	17	[0, 0, 0]	n/a	FR1	1	R1136N
1817.346	1.6	2855634	WORD	n/a	wordpools/wordpool_EN.txt	ELF	7	17	[0, 0, 0]	n/a	FR1	1	R1136N
1819.847	1.6	2858135	WORD	n/a	wordpools/wordpool_EN.txt	MAT	8	17	[0, 0, 0]	n/a	FR1	1	R1136N
1822.38	1.6	2860667	WORD	n/a	wordpools/wordpool_EN.txt	TRAY	9	17	[0, 0, 0]	n/a	FR1	1	R1136N
1824.898	1.6	2863185	WORD	n/a	wordpools/wordpool_EN.txt	ROOM	10	17	[0, 0, 0]	n/a	FR1	1	R1136N
1827.431	1.6	2865718	WORD	n/a	wordpools/wordpool_EN.txt	STORM	11	17	[0, 0, 0]	n/a	FR1	1	R1136N
1829.865	1.6	2868152	WORD	n/a	wordpools/wordpool_EN.txt	WALL	12	17	[0, 0, 0]	n/a	FR1	1	R1136N
1831.481	0.001	2869768	DISTRACT_START	n/a	n/a	n/a	-999	17	[0, 0, 0]	n/a	FR1	1	R1136N
1831.482	0.016	2869769	START	n/a	n/a	n/a	-999	17	[-999, -999, -999]	n/a	FR1	1	R1136N
1831.498	5.768	2869785	PROB	5.733	n/a	n/a	-999	17	[4, 4, 9]	17.0	FR1	1	R1136N
1837.266	2.818	2875553	PROB	2.783	n/a	n/a	-999	17	[3, 8, 9]	20.0	FR1	1	R1136N
1840.084	2.834	2878370	PROB	2.804	n/a	n/a	-999	17	[8, 3, 2]	13.0	FR1	1	R1136N
1842.918	3.616	2881204	PROB	3.594	n/a	n/a	-999	17	[3, 5, 9]	17.0	FR1	1	R1136N
1846.534	2.65	2884820	PROB	2.625	n/a	n/a	-999	17	[4, 1, 8]	13.0	FR1	1	R1136N
1849.184	3.135	2887470	PROB	3.135	n/a	n/a	-999	17	[7, 7, 8]	22.0	FR1	1	R1136N
1852.319	0.015	2890605	STOP	n/a	n/a	n/a	-999	17	[-999, -999, -999]	n/a	FR1	1	R1136N
1852.334	1.168	2890620	DISTRACT_END	n/a	n/a	n/a	-999	17	[0, 0, 0]	n/a	FR1	1	R1136N
1853.502	5.293	2891788	REC_START	n/a	n/a	n/a	-999	17	[0, 0, 0]	n/a	FR1	1	R1136N
1858.795	1.76	2897081	REC_WORD	5.293	n/a	BROOM	-999	17	[0, 0, 0]	n/a	FR1	1	R1136N
1860.555	10.164	2898840	REC_WORD	7.053	n/a	ROOM	-999	17	[0, 0, 0]	n/a	FR1	1	R1136N
1870.719	12.794	2909004	REC_WORD	17.217	n/a	ELF	-999	17	[0, 0, 0]	n/a	FR1	1	R1136N
1883.513	1.428	2921797	REC_END	n/a	n/a	n/a	-999	17	[0, 0, 0]	n/a	FR1	1	R1136N
1884.941	10.0	2923225	COUNTDOWN_START	n/a	n/a	n/a	-999	18	[0, 0, 0]	n/a	FR1	1	R1136N
1884.941	10.428	2923225	TRIAL	n/a	n/a	n/a	-999	18	[0, 0, 0]	n/a	FR1	1	R1136N
1895.369	0.006	2933653	COUNTDOWN_END	n/a	n/a	n/a	-999	18	[0, 0, 0]	n/a	FR1	1	R1136N
1895.375	1.6	2933659	ORIENT	n/a	n/a	n/a	-999	18	[0, 0, 0]	n/a	FR1	1	R1136N
1897.777	1.6	2936061	WORD	n/a	wordpools/wordpool_EN.txt	FLAME	1	18	[0, 0, 0]	n/a	FR1	1	R1136N
1900.259	1.6	2938542	WORD	n/a	wordpools/wordpool_EN.txt	SHEEP	2	18	[0, 0, 0]	n/a	FR1	1	R1136N
1902.794	1.6	2941077	WORD	n/a	wordpools/wordpool_EN.txt	WAND	3	18	[0, 0, 0]	n/a	FR1	1	R1136N
1905.327	1.6	2943610	WORD	n/a	wordpools/wordpool_EN.txt	SWAMP	4	18	[0, 0, 0]	n/a	FR1	1	R1136N
1907.912	1.6	2946195	WORD	n/a	wordpools/wordpool_EN.txt	CORN	5	18	[0, 0, 0]	n/a	FR1	1	R1136N
1910.494	1.6	2948777	WORD	n/a	wordpools/wordpool_EN.txt	BRUSH	6	18	[0, 0, 0]	n/a	FR1	1	R1136N
1912.912	1.6	2951195	WORD	n/a	wordpools/wordpool_EN.txt	SKY	7	18	[0, 0, 0]	n/a	FR1	1	R1136N
1915.495	1.6	2953778	WORD	n/a	wordpools/wordpool_EN.txt	TENT	8	18	[0, 0, 0]	n/a	FR1	1	R1136N
1917.88	1.6	2956163	WORD	n/a	wordpools/wordpool_EN.txt	OAK	9	18	[0, 0, 0]	n/a	FR1	1	R1136N
1920.346	1.6	2958628	WORD	n/a	wordpools/wordpool_EN.txt	JEEP	10	18	[0, 0, 0]	n/a	FR1	1	R1136N
1922.764	1.6	2961046	WORD	n/a	wordpools/wordpool_EN.txt	CROW	11	18	[0, 0, 0]	n/a	FR1	1	R1136N
1925.197	1.6	2963479	WORD	n/a	wordpools/wordpool_EN.txt	LAKE	12	18	[0, 0, 0]	n/a	FR1	1	R1136N
1926.815	0.001	2965097	DISTRACT_START	n/a	n/a	n/a	-999	18	[0, 0, 0]	n/a	FR1	1	R1136N
1926.816	0.015	2965098	START	n/a	n/a	n/a	-999	18	[-999, -999, -999]	n/a	FR1	1	R1136N
1926.831	5.818	2965113	PROB	5.794	n/a	n/a	-999	18	[3, 9, 5]	17.0	FR1	1	R1136N
1932.649	2.334	2970931	PROB	2.311	n/a	n/a	-999	18	[7, 7, 8]	22.0	FR1	1	R1136N
1934.983	2.516	2973265	PROB	2.481	n/a	n/a	-999	18	[8, 7, 3]	18.0	FR1	1	R1136N
1937.499	2.917	2975781	PROB	2.892	n/a	n/a	-999	18	[2, 7, 7]	16.0	FR1	1	R1136N
1940.416	2.117	2978697	PROB	2.095	n/a	n/a	-999	18	[2, 6, 8]	16.0	FR1	1	R1136N
1942.533	2.684	2980814	PROB	2.658	n/a	n/a	-999	18	[6, 6, 2]	14.0	FR1	1	R1136N
1945.217	2.559	2983498	PROB	2.559	n/a	n/a	-999	18	[5, 6, 4]	15.0	FR1	1	R1136N
1947.776	0.009	2986057	STOP	n/a	n/a	n/a	-999	18	[-999, -999, -999]	n/a	FR1	1	R1136N
1947.785	1.084	2986066	DISTRACT_END	n/a	n/a	n/a	-999	18	[0, 0, 0]	n/a	FR1	1	R1136N
1948.869	1.167	2987150	REC_START	n/a	n/a	n/a	-999	18	[0, 0, 0]	n/a	FR1	1	R1136N
1950.036	0.842	2988317	REC_WORD	1.167	n/a	FLAME	-999	18	[0, 0, 0]	n/a	FR1	1	R1136N
1950.878	6.6	2989159	REC_WORD	2.009	n/a	SKY	-999	18	[0, 0, 0]	n/a	FR1	1	R1136N
1957.478	4.422	2995758	REC_WORD	8.609	n/a	OAK	-999	18	[0, 0, 0]	n/a	FR1	1	R1136N
1961.9	16.98	3000180	REC_WORD	13.031	n/a	WAND	-999	18	[0, 0, 0]	n/a	FR1	1	R1136N
1978.88	1.242	3017159	REC_END	n/a	n/a	n/a	-999	18	[0, 0, 0]	n/a	FR1	1	R1136N
1980.122	10.0	3018401	COUNTDOWN_START	n/a	n/a	n/a	-999	19	[0, 0, 0]	n/a	FR1	1	R1136N
1980.123	10.427	3018402	TRIAL	n/a	n/a	n/a	-999	19	[0, 0, 0]	n/a	FR1	1	R1136N
1990.55	0.007	3028829	COUNTDOWN_END	n/a	n/a	n/a	-999	19	[0, 0, 0]	n/a	FR1	1	R1136N
1990.557	1.6	3028836	ORIENT	n/a	n/a	n/a	-999	19	[0, 0, 0]	n/a	FR1	1	R1136N
1992.976	1.6	3031255	WORD	n/a	wordpools/wordpool_EN.txt	BOWL	1	19	[0, 0, 0]	n/a	FR1	1	R1136N
1995.558	1.6	3033837	WORD	n/a	wordpools/wordpool_EN.txt	STEAK	2	19	[0, 0, 0]	n/a	FR1	1	R1136N
1998.043	1.6	3036321	WORD	n/a	wordpools/wordpool_EN.txt	CLOWN	3	19	[0, 0, 0]	n/a	FR1	1	R1136N
2000.559	1.6	3038837	WORD	n/a	wordpools/wordpool_EN.txt	EGG	4	19	[0, 0, 0]	n/a	FR1	1	R1136N
2002.994	1.6	3041272	WORD	n/a	wordpools/wordpool_EN.txt	BEAR	5	19	[0, 0, 0]	n/a	FR1	1	R1136N
2005.477	1.6	3043755	WORD	n/a	wordpools/wordpool_EN.txt	SLEEVE	6	19	[0, 0, 0]	n/a	FR1	1	R1136N
2007.911	1.6	3046189	WORD	n/a	wordpools/wordpool_EN.txt	CAKE	7	19	[0, 0, 0]	n/a	FR1	1	R1136N
2010.344	1.6	3048622	WORD	n/a	wordpools/wordpool_EN.txt	LEG	8	19	[0, 0, 0]	n/a	FR1	1	R1136N
2012.729	1.6	3051007	WORD	n/a	wordpools/wordpool_EN.txt	DOLL	9	19	[0, 0, 0]	n/a	FR1	1	R1136N
2015.212	1.6	3053490	WORD	n/a	wordpools/wordpool_EN.txt	ZOO	10	19	[0, 0, 0]	n/a	FR1	1	R1136N
2017.813	1.6	3056090	WORD	n/a	wordpools/wordpool_EN.txt	WHALE	11	19	[0, 0, 0]	n/a	FR1	1	R1136N
2020.279	1.6	3058556	WORD	n/a	wordpools/wordpool_EN.txt	PIT	12	19	[0, 0, 0]	n/a	FR1	1	R1136N
2021.897	0.001	3060174	DISTRACT_START	n/a	n/a	n/a	-999	19	[0, 0, 0]	n/a	FR1	1	R1136N
2021.898	0.016	3060175	START	n/a	n/a	n/a	-999	19	[-999, -999, -999]	n/a	FR1	1	R1136N
2021.914	3.083	3060191	PROB	3.062	n/a	n/a	-999	19	[2, 7, 2]	11.0	FR1	1	R1136N
2024.997	3.918	3063274	PROB	3.884	n/a	n/a	-999	19	[2, 6, 3]	11.0	FR1	1	R1136N
2028.915	3.266	3067192	PROB	3.244	n/a	n/a	-999	19	[3, 6, 2]	11.0	FR1	1	R1136N
2032.181	3.334	3070458	PROB	3.307	n/a	n/a	-999	19	[9, 5, 2]	16.0	FR1	1	R1136N
2035.515	2.784	3073792	PROB	2.757	n/a	n/a	-999	19	[2, 7, 7]	16.0	FR1	1	R1136N
2038.299	4.494	3076575	PROB	4.494	n/a	n/a	-999	19	[2, 4, 2]	8.0	FR1	1	R1136N
2042.793	0.008	3081069	STOP	n/a	n/a	n/a	-999	19	[-999, -999, -999]	n/a	FR1	1	R1136N
2042.801	1.117	3081077	DISTRACT_END	n/a	n/a	n/a	-999	19	[0, 0, 0]	n/a	FR1	1	R1136N
2043.918	1.236	3082194	REC_START	n/a	n/a	n/a	-999	19	[0, 0, 0]	n/a	FR1	1	R1136N
2045.154	0.9	3083430	REC_WORD	1.236	n/a	ZOO	-999	19	[0, 0, 0]	n/a	FR1	1	R1136N
2046.054	4.493	3084330	REC_WORD	2.136	n/a	WHALE	-999	19	[0, 0, 0]	n/a	FR1	1	R1136N
2050.547	11.606	3088823	REC_WORD	6.629	n/a	PIT	-999	19	[0, 0, 0]	n/a	FR1	1	R1136N
2062.153	11.776	3100428	REC_WORD	18.235	n/a	DOG	-999	19	[0, 0, 0]	n/a	FR1	1	R1136N
2073.929	1.292	3112204	REC_END	n/a	n/a	n/a	-999	19	[0, 0, 0]	n/a	FR1	1	R1136N
2075.221	10.0	3113495	COUNTDOWN_START	n/a	n/a	n/a	-999	20	[0, 0, 0]	n/a	FR1	1	R1136N
2075.222	10.427	3113496	TRIAL	n/a	n/a	n/a	-999	20	[0, 0, 0]	n/a	FR1	1	R1136N
2085.649	0.009	3123923	COUNTDOWN_END	n/a	n/a	n/a	-999	20	[0, 0, 0]	n/a	FR1	1	R1136N
2085.658	1.6	3123932	ORIENT	n/a	n/a	n/a	-999	20	[0, 0, 0]	n/a	FR1	1	R1136N
2088.29	1.6	3126564	WORD	n/a	wordpools/wordpool_EN.txt	FAN	1	20	[0, 0, 0]	n/a	FR1	1	R1136N
2090.842	1.6	3129116	WORD	n/a	wordpools/wordpool_EN.txt	SIGN	2	20	[0, 0, 0]	n/a	FR1	1	R1136N
2093.391	1.6	3131665	WORD	n/a	wordpools/wordpool_EN.txt	FLAG	3	20	[0, 0, 0]	n/a	FR1	1	R1136N
2095.793	1.6	3134066	WORD	n/a	wordpools/wordpool_EN.txt	CROWN	4	20	[0, 0, 0]	n/a	FR1	1	R1136N
2098.275	1.6	3136548	WORD	n/a	wordpools/wordpool_EN.txt	POLE	5	20	[0, 0, 0]	n/a	FR1	1	R1136N
2100.76	1.6	3139033	WORD	n/a	wordpools/wordpool_EN.txt	NAIL	6	20	[0, 0, 0]	n/a	FR1	1	R1136N
2103.176	1.6	3141449	WORD	n/a	wordpools/wordpool_EN.txt	VEST	7	20	[0, 0, 0]	n/a	FR1	1	R1136N
2105.744	1.6	3144017	WORD	n/a	wordpools/wordpool_EN.txt	PURSE	8	20	[0, 0, 0]	n/a	FR1	1	R1136N
2108.227	1.6	3146500	WORD	n/a	wordpools/wordpool_EN.txt	PIN	9	20	[0, 0, 0]	n/a	FR1	1	R1136N
2110.645	1.6	3148918	WORD	n/a	wordpools/wordpool_EN.txt	ROSE	10	20	[0, 0, 0]	n/a	FR1	1	R1136N
2113.045	1.6	3151318	WORD	n/a	wordpools/wordpool_EN.txt	TANK	11	20	[0, 0, 0]	n/a	FR1	1	R1136N
2115.561	1.6	3153833	WORD	n/a	wordpools/wordpool_EN.txt	PEA	12	20	[0, 0, 0]	n/a	FR1	1	R1136N
2117.178	0.001	3155450	DISTRACT_START	n/a	n/a	n/a	-999	20	[0, 0, 0]	n/a	FR1	1	R1136N
2117.179	0.016	3155451	START	n/a	n/a	n/a	-999	20	[-999, -999, -999]	n/a	FR1	1	R1136N
2117.195	2.902	3155467	PROB	2.869	n/a	n/a	-999	20	[3, 2, 8]	13.0	FR1	1	R1136N
2120.097	4.017	3158369	PROB	3.991	n/a	n/a	-999	20	[8, 1, 9]	18.0	FR1	1	R1136N
2124.114	2.316	3162386	PROB	2.294	n/a	n/a	-999	20	[7, 5, 2]	14.0	FR1	1	R1136N
2126.43	2.235	3164702	PROB	2.211	n/a	n/a	-999	20	[1, 5, 4]	10.0	FR1	1	R1136N
2128.665	2.616	3166937	PROB	2.59	n/a	n/a	-999	20	[6, 9, 7]	22.0	FR1	1	R1136N
2131.281	2.568	3169553	PROB	2.543	n/a	n/a	-999	20	[7, 4, 3]	14.0	FR1	1	R1136N
2133.849	3.711	3172121	PROB	3.711	n/a	n/a	-999	20	[2, 7, 7]	16.0	FR1	1	R1136N
2137.56	0.006	3175831	STOP	n/a	n/a	n/a	-999	20	[-999, -999, -999]	n/a	FR1	1	R1136N
2137.566	1.151	3175837	DISTRACT_END	n/a	n/a	n/a	-999	20	[0, 0, 0]	n/a	FR1	1	R1136N
2138.717	1.534	3176988	REC_START	n/a	n/a	n/a	-999	20	[0, 0, 0]	n/a	FR1	1	R1136N
2140.251	0.968	3178522	REC_WORD	1.534	n/a	FAN	-999	20	[0, 0, 0]	n/a	FR1	1	R1136N
2141.219	3.546	3179490	REC_WORD	2.502	n/a	ROSE	-999	20	[0, 0, 0]	n/a	FR1	1	R1136N
2144.765	2.478	3183036	REC_WORD	6.048	n/a	PEA	-999	20	[0, 0, 0]	n/a	FR1	1	R1136N
2147.243	21.485	3185514	REC_WORD	8.526	n/a	PIT	-999	20	[0, 0, 0]	n/a	FR1	1	R1136N
2168.728	1.143	3206998	REC_END	n/a	n/a	n/a	-999	20	[0, 0, 0]	n/a	FR1	1	R1136N
2169.871	10.0	3208141	COUNTDOWN_START	n/a	n/a	n/a	-999	21	[0, 0, 0]	n/a	FR1	1	R1136N
2169.872	10.427	3208142	TRIAL	n/a	n/a	n/a	-999	21	[0, 0, 0]	n/a	FR1	1	R1136N
2180.299	0.006	3218568	COUNTDOWN_END	n/a	n/a	n/a	-999	21	[0, 0, 0]	n/a	FR1	1	R1136N
2180.305	1.6	3218574	ORIENT	n/a	n/a	n/a	-999	21	[0, 0, 0]	n/a	FR1	1	R1136N
2182.673	1.6	3220942	WORD	n/a	wordpools/wordpool_EN.txt	SEED	1	21	[0, 0, 0]	n/a	FR1	1	R1136N
2185.206	1.6	3223475	WORD	n/a	wordpools/wordpool_EN.txt	PLANT	2	21	[0, 0, 0]	n/a	FR1	1	R1136N
2187.674	1.6	3225943	WORD	n/a	wordpools/wordpool_EN.txt	STONE	3	21	[0, 0, 0]	n/a	FR1	1	R1136N
2190.224	1.6	3228493	WORD	n/a	wordpools/wordpool_EN.txt	SLIME	4	21	[0, 0, 0]	n/a	FR1	1	R1136N
2192.742	1.6	3231011	WORD	n/a	wordpools/wordpool_EN.txt	CLOCK	5	21	[0, 0, 0]	n/a	FR1	1	R1136N
2195.274	1.6	3233542	WORD	n/a	wordpools/wordpool_EN.txt	STEM	6	21	[0, 0, 0]	n/a	FR1	1	R1136N
2197.826	1.6	3236094	WORD	n/a	wordpools/wordpool_EN.txt	HEART	7	21	[0, 0, 0]	n/a	FR1	1	R1136N
2200.326	1.6	3238594	WORD	n/a	wordpools/wordpool_EN.txt	CLAY	8	21	[0, 0, 0]	n/a	FR1	1	R1136N
2202.794	1.6	3241062	WORD	n/a	wordpools/wordpool_EN.txt	MOUSE	9	21	[0, 0, 0]	n/a	FR1	1	R1136N
2205.376	1.6	3243644	WORD	n/a	wordpools/wordpool_EN.txt	BOOK	10	21	[0, 0, 0]	n/a	FR1	1	R1136N
2207.744	1.6	3246012	WORD	n/a	wordpools/wordpool_EN.txt	PEARL	11	21	[0, 0, 0]	n/a	FR1	1	R1136N
2210.26	1.6	3248528	WORD	n/a	wordpools/wordpool_EN.txt	JUDGE	12	21	[0, 0, 0]	n/a	FR1	1	R1136N
2211.862	0.001	3250130	DISTRACT_START	n/a	n/a	n/a	-999	21	[0, 0, 0]	n/a	FR1	1	R1136N
2211.863	0.015	3250131	START	n/a	n/a	n/a	-999	21	[-999, -999, -999]	n/a	FR1	1	R1136N
2211.878	3.984	3250146	PROB	3.954	n/a	n/a	-999	21	[7, 2, 6]	15.0	FR1	1	R1136N
2215.862	4.3	3254129	PROB	4.265	n/a	n/a	-999	21	[5, 9, 5]	19.0	FR1	1	R1136N
2220.162	2.267	3258429	PROB	2.238	n/a	n/a	-999	21	[1, 5, 8]	14.0	FR1	1	R1136N
2222.429	2.385	3260696	PROB	2.364	n/a	n/a	-999	21	[1, 2, 1]	4.0	FR1	1	R1136N
2224.814	4.034	3263081	PROB	4.003	n/a	n/a	-999	21	[5, 1, 3]	9.0	FR1	1	R1136N
2228.848	2.566	3267115	PROB	2.543	n/a	n/a	-999	21	[1, 9, 2]	12.0	FR1	1	R1136N
2231.414	3.129	3269681	PROB	3.129	n/a	n/a	-999	21	[5, 3, 1]	9.0	FR1	1	R1136N
2234.543	0.005	3272809	STOP	n/a	n/a	n/a	-999	21	[-999, -999, -999]	n/a	FR1	1	R1136N
2234.548	1.101	3272814	DISTRACT_END	n/a	n/a	n/a	-999	21	[0, 0, 0]	n/a	FR1	1	R1136N
2235.649	2.142	3273915	REC_START	n/a	n/a	n/a	-999	21	[0, 0, 0]	n/a	FR1	1	R1136N
2237.791	27.874	3276057	REC_WORD	2.142	n/a	JUDGE	-999	21	[0, 0, 0]	n/a	FR1	1	R1136N
2265.665	1.588	3303930	REC_END	n/a	n/a	n/a	-999	21	[0, 0, 0]	n/a	FR1	1	R1136N
2267.253	0.0	3305518	TRIAL	n/a	n/a	n/a	-999	22	[0, 0, 0]	n/a	FR1	1	R1136N
2267.253	10.0	3305518	COUNTDOWN_START	n/a	n/a	n/a	-999	22	[0, 0, 0]	n/a	FR1	1	R1136N
2277.681	0.008	3315945	COUNTDOWN_END	n/a	n/a	n/a	-999	22	[0, 0, 0]	n/a	FR1	1	R1136N
2277.689	1.6	3315953	ORIENT	n/a	n/a	n/a	-999	22	[0, 0, 0]	n/a	FR1	1	R1136N
2280.155	1.6	3318419	WORD	n/a	wordpools/wordpool_EN.txt	BEAN	1	22	[0, 0, 0]	n/a	FR1	1	R1136N
2282.59	1.6	3320854	WORD	n/a	wordpools/wordpool_EN.txt	CRANE	2	22	[0, 0, 0]	n/a	FR1	1	R1136N
2284.974	1.6	3323238	WORD	n/a	wordpools/wordpool_EN.txt	GOAT	3	22	[0, 0, 0]	n/a	FR1	1	R1136N
2287.608	1.6	3325872	WORD	n/a	wordpools/wordpool_EN.txt	TOY	4	22	[0, 0, 0]	n/a	FR1	1	R1136N
2290.157	1.6	3328421	WORD	n/a	wordpools/wordpool_EN.txt	TOAD	5	22	[0, 0, 0]	n/a	FR1	1	R1136N
2292.575	1.6	3330838	WORD	n/a	wordpools/wordpool_EN.txt	TOAST	6	22	[0, 0, 0]	n/a	FR1	1	R1136N
2295.141	1.6	3333404	WORD	n/a	wordpools/wordpool_EN.txt	JAR	7	22	[0, 0, 0]	n/a	FR1	1	R1136N
2297.558	1.6	3335821	WORD	n/a	wordpools/wordpool_EN.txt	BRIDGE	8	22	[0, 0, 0]	n/a	FR1	1	R1136N
2300.159	1.6	3338422	WORD	n/a	wordpools/wordpool_EN.txt	BIRD	9	22	[0, 0, 0]	n/a	FR1	1	R1136N
2302.693	1.6	3340956	WORD	n/a	wordpools/wordpool_EN.txt	DUCK	10	22	[0, 0, 0]	n/a	FR1	1	R1136N
2305.309	1.6	3343572	WORD	n/a	wordpools/wordpool_EN.txt	COW	11	22	[0, 0, 0]	n/a	FR1	1	R1136N
2307.778	1.6	3346041	WORD	n/a	wordpools/wordpool_EN.txt	WORM	12	22	[0, 0, 0]	n/a	FR1	1	R1136N
2309.393	0.001	3347656	DISTRACT_START	n/a	n/a	n/a	-999	22	[0, 0, 0]	n/a	FR1	1	R1136N
2309.394	0.016	3347657	START	n/a	n/a	n/a	-999	22	[-999, -999, -999]	n/a	FR1	1	R1136N
2309.41	4.618	3347673	PROB	4.598	n/a	n/a	-999	22	[9, 5, 9]	13.0	FR1	1	R1136N
2314.028	3.951	3352290	PROB	3.924	n/a	n/a	-999	22	[3, 8, 3]	14.0	FR1	1	R1136N
2317.979	2.283	3356241	PROB	2.252	n/a	n/a	-999	22	[8, 5, 8]	21.0	FR1	1	R1136N
2320.262	5.267	3358524	PROB	5.241	n/a	n/a	-999	22	[4, 4, 5]	13.0	FR1	1	R1136N
2325.529	2.585	3363791	PROB	2.552	n/a	n/a	-999	22	[3, 4, 3]	10.0	FR1	1	R1136N
2328.114	2.438	3366376	PROB	2.438	n/a	n/a	-999	22	[9, 6, 5]	20.0	FR1	1	R1136N
2330.552	0.013	3368813	STOP	n/a	n/a	n/a	-999	22	[-999, -999, -999]	n/a	FR1	1	R1136N
2330.565	1.084	3368826	DISTRACT_END	n/a	n/a	n/a	-999	22	[0, 0, 0]	n/a	FR1	1	R1136N
2331.649	1.389	3369910	REC_START	n/a	n/a	n/a	-999	22	[0, 0, 0]	n/a	FR1	1	R1136N
2333.038	0.873	3371299	REC_WORD	1.389	n/a	DUCK	-999	22	[0, 0, 0]	n/a	FR1	1	R1136N
2333.911	0.867	3372172	REC_WORD	2.262	n/a	COW	-999	22	[0, 0, 0]	n/a	FR1	1	R1136N
2334.778	26.882	3373039	REC_WORD	3.129	n/a	WORM	-999	22	[0, 0, 0]	n/a	FR1	1	R1136N
2361.66	1.642	3399920	REC_END	n/a	n/a	n/a	-999	22	[0, 0, 0]	n/a	FR1	1	R1136N
2363.302	10.0	3401562	COUNTDOWN_START	n/a	n/a	n/a	-999	23	[0, 0, 0]	n/a	FR1	1	R1136N
2363.303	10.427	3401563	TRIAL	n/a	n/a	n/a	-999	23	[0, 0, 0]	n/a	FR1	1	R1136N
2373.73	0.008	3411989	COUNTDOWN_END	n/a	n/a	n/a	-999	23	[0, 0, 0]	n/a	FR1	1	R1136N
2373.738	1.6	3411997	ORIENT	n/a	n/a	n/a	-999	23	[0, 0, 0]	n/a	FR1	1	R1136N
2376.304	1.6	3414563	WORD	n/a	wordpools/wordpool_EN.txt	RUG	1	23	[0, 0, 0]	n/a	FR1	1	R1136N
2378.789	1.6	3417048	WORD	n/a	wordpools/wordpool_EN.txt	BATH	2	23	[0, 0, 0]	n/a	FR1	1	R1136N
2381.405	1.6	3419664	WORD	n/a	wordpools/wordpool_EN.txt	THUMB	3	23	[0, 0, 0]	n/a	FR1	1	R1136N
2384.007	1.6	3422266	WORD	n/a	wordpools/wordpool_EN.txt	LAWN	4	23	[0, 0, 0]	n/a	FR1	1	R1136N
2386.389	1.6	3424648	WORD	n/a	wordpools/wordpool_EN.txt	MUD	5	23	[0, 0, 0]	n/a	FR1	1	R1136N
2388.774	1.6	3427033	WORD	n/a	wordpools/wordpool_EN.txt	DOOR	6	23	[0, 0, 0]	n/a	FR1	1	R1136N
2391.257	1.6	3429515	WORD	n/a	wordpools/wordpool_EN.txt	ROAD	7	23	[0, 0, 0]	n/a	FR1	1	R1136N
2393.808	1.6	3432066	WORD	n/a	wordpools/wordpool_EN.txt	FOOT	8	23	[0, 0, 0]	n/a	FR1	1	R1136N
2396.274	1.6	3434532	WORD	n/a	wordpools/wordpool_EN.txt	HORN	9	23	[0, 0, 0]	n/a	FR1	1	R1136N
2398.676	1.6	3436934	WORD	n/a	wordpools/wordpool_EN.txt	SOAP	10	23	[0, 0, 0]	n/a	FR1	1	R1136N
2401.076	1.6	3439334	WORD	n/a	wordpools/wordpool_EN.txt	CUBE	11	23	[0, 0, 0]	n/a	FR1	1	R1136N
2403.627	1.6	3441885	WORD	n/a	wordpools/wordpool_EN.txt	SEAT	12	23	[0, 0, 0]	n/a	FR1	1	R1136N
2405.243	0.0	3443501	DISTRACT_START	n/a	n/a	n/a	-999	23	[0, 0, 0]	n/a	FR1	1	R1136N
2405.243	0.016	3443501	START	n/a	n/a	n/a	-999	23	[-999, -999, -999]	n/a	FR1	1	R1136N
2405.259	4.251	3443517	PROB	4.228	n/a	n/a	-999	23	[6, 5, 7]	18.0	FR1	1	R1136N
2409.51	5.185	3447767	PROB	5.163	n/a	n/a	-999	23	[5, 8, 6]	19.0	FR1	1	R1136N
2414.695	2.733	3452952	PROB	2.704	n/a	n/a	-999	23	[4, 5, 4]	13.0	FR1	1	R1136N
2417.428	1.8	3455685	PROB	1.771	n/a	n/a	-999	23	[4, 4, 4]	12.0	FR1	1	R1136N
2419.228	3.184	3457485	PROB	3.163	n/a	n/a	-999	23	[1, 2, 4]	7.0	FR1	1	R1136N
2422.412	2.995	3460669	PROB	2.995	n/a	n/a	-999	23	[9, 2, 4]	15.0	FR1	1	R1136N
2425.407	0.006	3463664	STOP	n/a	n/a	n/a	-999	23	[-999, -999, -999]	n/a	FR1	1	R1136N
2425.413	1.1	3463670	DISTRACT_END	n/a	n/a	n/a	-999	23	[0, 0, 0]	n/a	FR1	1	R1136N
2426.513	1.34	3464770	REC_START	n/a	n/a	n/a	-999	23	[0, 0, 0]	n/a	FR1	1	R1136N
2427.853	0.834	3466110	REC_WORD	1.34	n/a	RUG	-999	23	[0, 0, 0]	n/a	FR1	1	R1136N
2428.687	1.624	3466943	REC_WORD	2.174	n/a	BATH	-999	23	[0, 0, 0]	n/a	FR1	1	R1136N
2430.311	0.636	3468567	REC_WORD	3.798	n/a	THUMB	-999	23	[0, 0, 0]	n/a	FR1	1	R1136N
2430.947	1.812	3469203	REC_WORD	4.434	n/a	LAWN	-999	23	[0, 0, 0]	n/a	FR1	1	R1136N
2432.759	23.77	3471015	REC_WORD	6.246	n/a	FOOT	-999	23	[0, 0, 0]	n/a	FR1	1	R1136N
2456.529	1.073	3494784	REC_END	n/a	n/a	n/a	-999	23	[0, 0, 0]	n/a	FR1	1	R1136N
2457.602	0.0	3495857	TRIAL	n/a	n/a	n/a	-999	24	[0, 0, 0]	n/a	FR1	1	R1136N
2457.602	10.0	3495857	COUNTDOWN_START	n/a	n/a	n/a	-999	24	[0, 0, 0]	n/a	FR1	1	R1136N
2468.03	0.007	3506284	COUNTDOWN_END	n/a	n/a	n/a	-999	24	[0, 0, 0]	n/a	FR1	1	R1136N
2468.037	1.6	3506291	ORIENT	n/a	n/a	n/a	-999	24	[0, 0, 0]	n/a	FR1	1	R1136N
2470.537	1.6	3508791	WORD	n/a	wordpools/wordpool_EN.txt	LIP	1	24	[0, 0, 0]	n/a	FR1	1	R1136N
2473.088	1.6	3511342	WORD	n/a	wordpools/wordpool_EN.txt	DOG	2	24	[0, 0, 0]	n/a	FR1	1	R1136N
2475.705	1.6	3513959	WORD	n/a	wordpools/wordpool_EN.txt	FUR	3	24	[0, 0, 0]	n/a	FR1	1	R1136N
2478.204	1.6	3516458	WORD	n/a	wordpools/wordpool_EN.txt	PET	4	24	[0, 0, 0]	n/a	FR1	1	R1136N
2480.573	1.6	3518827	WORD	n/a	wordpools/wordpool_EN.txt	GEESE	5	24	[0, 0, 0]	n/a	FR1	1	R1136N
2483.04	1.6	3521294	WORD	n/a	wordpools/wordpool_EN.txt	RAT	6	24	[0, 0, 0]	n/a	FR1	1	R1136N
2485.607	1.6	3523861	WORD	n/a	wordpools/wordpool_EN.txt	MOUTH	7	24	[0, 0, 0]	n/a	FR1	1	R1136N
2488.156	1.6	3526409	WORD	n/a	wordpools/wordpool_EN.txt	CHEEK	8	24	[0, 0, 0]	n/a	FR1	1	R1136N
2490.641	1.6	3528894	WORD	n/a	wordpools/wordpool_EN.txt	GOLD	9	24	[0, 0, 0]	n/a	FR1	1	R1136N
2493.058	1.6	3531311	WORD	n/a	wordpools/wordpool_EN.txt	BENCH	10	24	[0, 0, 0]	n/a	FR1	1	R1136N
2495.659	1.6	3533912	WORD	n/a	wordpools/wordpool_EN.txt	SKUNK	11	24	[0, 0, 0]	n/a	FR1	1	R1136N
2498.092	1.6	3536345	WORD	n/a	wordpools/wordpool_EN.txt	RIB	12	24	[0, 0, 0]	n/a	FR1	1	R1136N
2499.709	0.001	3537962	DISTRACT_START	n/a	n/a	n/a	-999	24	[0, 0, 0]	n/a	FR1	1	R1136N
2499.71	0.016	3537963	START	n/a	n/a	n/a	-999	24	[-999, -999, -999]	n/a	FR1	1	R1136N
2499.726	2.067	3537979	PROB	2.042	n/a	n/a	-999	24	[5, 5, 5]	15.0	FR1	1	R1136N
2501.793	2.366	3540046	PROB	2.335	n/a	n/a	-999	24	[2, 3, 9]	14.0	FR1	1	R1136N
2504.159	1.668	3542412	PROB	1.642	n/a	n/a	-999	24	[4, 6, 1]	11.0	FR1	1	R1136N
2505.827	2.217	3544080	PROB	2.181	n/a	n/a	-999	24	[7, 3, 6]	16.0	FR1	1	R1136N
2508.044	2.567	3546296	PROB	2.54	n/a	n/a	-999	24	[2, 9, 6]	17.0	FR1	1	R1136N
2510.611	2.017	3548863	PROB	1.989	n/a	n/a	-999	24	[3, 7, 9]	19.0	FR1	1	R1136N
2512.628	2.167	3550880	PROB	2.14	n/a	n/a	-999	24	[2, 4, 6]	12.0	FR1	1	R1136N
2514.795	2.267	3553047	PROB	2.238	n/a	n/a	-999	24	[2, 1, 5]	8.0	FR1	1	R1136N
2517.062	4.931	3555314	PROB	4.931	n/a	n/a	-999	24	[3, 3, 8]	14.0	FR1	1	R1136N
2521.993	0.003	3560245	STOP	n/a	n/a	n/a	-999	24	[-999, -999, -999]	n/a	FR1	1	R1136N
2521.996	1.052	3560248	DISTRACT_END	n/a	n/a	n/a	-999	24	[0, 0, 0]	n/a	FR1	1	R1136N
2523.048	1.182	3561300	REC_START	n/a	n/a	n/a	-999	24	[0, 0, 0]	n/a	FR1	1	R1136N
2524.23	2.512	3562482	REC_WORD	1.182	n/a	RAT	-999	24	[0, 0, 0]	n/a	FR1	1	R1136N
2526.742	1.286	3564993	REC_WORD	3.694	n/a	CHEEK	-999	24	[0, 0, 0]	n/a	FR1	1	R1136N
2528.028	13.152	3566279	REC_WORD	4.98	n/a	GOLD	-999	24	[0, 0, 0]	n/a	FR1	1	R1136N
2541.18	10.646	3579431	REC_WORD	18.132	n/a	LIP	-999	24	[0, 0, 0]	n/a	FR1	1	R1136N
2551.826	1.232	3590076	REC_WORD	28.778	n/a	CHEEK	-999	24	[0, 0, 0]	n/a	FR1	1	R1136N
2553.058	1.392	3591308	REC_END	n/a	n/a	n/a	-999	24	[0, 0, 0]	n/a	FR1	1	R1136N
2554.45	10.0	3592700	COUNTDOWN_START	n/a	n/a	n/a	-999	25	[0, 0, 0]	n/a	FR1	1	R1136N
2554.451	10.427	3592701	TRIAL	n/a	n/a	n/a	-999	25	[0, 0, 0]	n/a	FR1	1	R1136N
2564.878	0.009	3603128	COUNTDOWN_END	n/a	n/a	n/a	-999	25	[0, 0, 0]	n/a	FR1	1	R1136N
2564.887	1.6	3603137	ORIENT	n/a	n/a	n/a	-999	25	[0, 0, 0]	n/a	FR1	1	R1136N
2567.286	1.6	3605535	WORD	n/a	wordpools/wordpool_EN.txt	DRESS	1	25	[0, 0, 0]	n/a	FR1	1	R1136N
2569.704	1.6	3607953	WORD	n/a	wordpools/wordpool_EN.txt	TOOTH	2	25	[0, 0, 0]	n/a	FR1	1	R1136N
2572.237	1.6	3610486	WORD	n/a	wordpools/wordpool_EN.txt	HOLE	3	25	[0, 0, 0]	n/a	FR1	1	R1136N
2574.705	1.6	3612954	WORD	n/a	wordpools/wordpool_EN.txt	PASTE	4	25	[0, 0, 0]	n/a	FR1	1	R1136N
2577.321	1.6	3615570	WORD	n/a	wordpools/wordpool_EN.txt	DESK	5	25	[0, 0, 0]	n/a	FR1	1	R1136N
2579.689	1.6	3617938	WORD	n/a	wordpools/wordpool_EN.txt	PEAR	6	25	[0, 0, 0]	n/a	FR1	1	R1136N
2582.272	1.6	3620521	WORD	n/a	wordpools/wordpool_EN.txt	SMILE	7	25	[0, 0, 0]	n/a	FR1	1	R1136N
2584.673	1.6	3622922	WORD	n/a	wordpools/wordpool_EN.txt	BEAK	8	25	[0, 0, 0]	n/a	FR1	1	R1136N
2587.074	1.6	3625322	WORD	n/a	wordpools/wordpool_EN.txt	SHOE	9	25	[0, 0, 0]	n/a	FR1	1	R1136N
2589.674	1.6	3627922	WORD	n/a	wordpools/wordpool_EN.txt	PEN	10	25	[0, 0, 0]	n/a	FR1	1	R1136N
2592.074	1.6	3630322	WORD	n/a	wordpools/wordpool_EN.txt	PALM	11	25	[0, 0, 0]	n/a	FR1	1	R1136N
2594.658	1.6	3632906	WORD	n/a	wordpools/wordpool_EN.txt	FORK	12	25	[0, 0, 0]	n/a	FR1	1	R1136N
2596.274	0.001	3634522	DISTRACT_START	n/a	n/a	n/a	-999	25	[0, 0, 0]	n/a	FR1	1	R1136N
2596.275	0.016	3634523	START	n/a	n/a	n/a	-999	25	[-999, -999, -999]	n/a	FR1	1	R1136N
2596.291	4.435	3634539	PROB	4.414	n/a	n/a	-999	25	[8, 5, 5]	18.0	FR1	1	R1136N
2600.726	1.566	3638974	PROB	1.53	n/a	n/a	-999	25	[7, 3, 1]	11.0	FR1	1	R1136N
2602.292	2.867	3640540	PROB	2.843	n/a	n/a	-999	25	[3, 1, 5]	9.0	FR1	1	R1136N
2605.159	2.785	3643406	PROB	2.761	n/a	n/a	-999	25	[9, 8, 1]	18.0	FR1	1	R1136N
2607.944	2.249	3646191	PROB	2.215	n/a	n/a	-999	25	[3, 9, 7]	19.0	FR1	1	R1136N
2610.193	2.401	3648440	PROB	2.366	n/a	n/a	-999	25	[5, 3, 7]	15.0	FR1	1	R1136N
2612.594	2.101	3650841	PROB	2.079	n/a	n/a	-999	25	[8, 1, 1]	10.0	FR1	1	R1136N
2614.695	1.921	3652942	PROB	1.921	n/a	n/a	-999	25	[4, 6, 5]	15.0	FR1	1	R1136N
2616.616	0.012	3654863	STOP	n/a	n/a	n/a	-999	25	[-999, -999, -999]	n/a	FR1	1	R1136N
2616.628	1.168	3654875	DISTRACT_END	n/a	n/a	n/a	-999	25	[0, 0, 0]	n/a	FR1	1	R1136N
2617.796	0.936	3656043	REC_START	n/a	n/a	n/a	-999	25	[0, 0, 0]	n/a	FR1	1	R1136N
2618.732	0.909	3656979	REC_WORD	0.936	n/a	TOOTH	-999	25	[0, 0, 0]	n/a	FR1	1	R1136N
2619.641	0.921	3657888	REC_WORD	1.845	n/a	PASTE	-999	25	[0, 0, 0]	n/a	FR1	1	R1136N
2620.562	6.048	3658809	REC_WORD	2.766	n/a	DRESS	-999	25	[0, 0, 0]	n/a	FR1	1	R1136N
2626.61	21.198	3664856	REC_WORD	8.814	n/a	SMILE	-999	25	[0, 0, 0]	n/a	FR1	1	R1136N
2647.808	104.492	3686053	REC_END	n/a	n/a	n/a	-999	25	[0, 0, 0]	n/a	FR1	1	R1136N
2752.3	0.0	3790540	SESS_END	n/a	n/a	n/a	-999	25	[0, 0, 0]	n/a	FR1	1	R1136N
