onset	duration	sample	trial_type	response_time	stim_file	item_name	serialpos	list	test	answer	experiment	session	subject
0.0	15.691	718365	SESS_START	n/a	n/a	n/a	-999	-999	[0, 0, 0]	n/a	FR1	0	R1102P
15.691	10.0	726210	COUNTDOWN_START	n/a	n/a	n/a	-999	-999	[0, 0, 0]	n/a	FR1	0	R1102P
26.119	3.49	731423	COUNTDOWN_END	n/a	n/a	n/a	-999	-999	[0, 0, 0]	n/a	FR1	0	R1102P
29.609	1.6	733168	PRACTICE_WORD	n/a	n/a	IRON	1	-1	[0, 0, 0]	n/a	FR1	0	R1102P
32.06	1.6	734394	PRACTICE_WORD	n/a	n/a	RHINO	2	-1	[0, 0, 0]	n/a	FR1	0	R1102P
34.661	1.6	735694	PRACTICE_WORD	n/a	n/a	FLOOD	3	-1	[0, 0, 0]	n/a	FR1	0	R1102P
37.194	1.6	736961	PRACTICE_WORD	n/a	n/a	WATCH	4	-1	[0, 0, 0]	n/a	FR1	0	R1102P
39.561	1.6	738144	PRACTICE_WORD	n/a	n/a	BEAM	5	-1	[0, 0, 0]	n/a	FR1	0	R1102P
42.078	1.6	739402	PRACTICE_WORD	n/a	n/a	CHEST	6	-1	[0, 0, 0]	n/a	FR1	0	R1102P
44.529	1.6	740628	PRACTICE_WORD	n/a	n/a	TONGUE	7	-1	[0, 0, 0]	n/a	FR1	0	R1102P
47.146	1.6	741936	PRACTICE_WORD	n/a	n/a	ATTIC	8	-1	[0, 0, 0]	n/a	FR1	0	R1102P
49.731	1.6	743229	PRACTICE_WORD	n/a	n/a	WAGON	9	-1	[0, 0, 0]	n/a	FR1	0	R1102P
52.13	1.6	744428	PRACTICE_WORD	n/a	n/a	RING	10	-1	[0, 0, 0]	n/a	FR1	0	R1102P
54.631	1.6	745679	PRACTICE_WORD	n/a	n/a	COTTON	11	-1	[0, 0, 0]	n/a	FR1	0	R1102P
57.031	1.6	746879	PRACTICE_WORD	n/a	n/a	CAMEL	12	-1	[0, 0, 0]	n/a	FR1	0	R1102P
58.649	0.0	747688	PRACTICE_DISTRACT_START	n/a	n/a	n/a	-999	-1	[0, 0, 0]	n/a	FR1	0	R1102P
58.649	0.017	747688	START	n/a	n/a	n/a	-999	-1	[-999, -999, -999]	n/a	FR1	0	R1102P
58.666	26.481	747696	PROB	26.481	n/a	n/a	-999	-1	[3, 9, 9]	21.0	FR1	0	R1102P
85.147	0.006	760936	STOP	n/a	n/a	n/a	-999	-1	[-999, -999, -999]	n/a	FR1	0	R1102P
85.153	0.687	760939	PRACTICE_DISTRACT_END	n/a	n/a	n/a	-999	-1	[0, 0, 0]	n/a	FR1	0	R1102P
85.84	30.513	761282	PRACTICE_REC_START	n/a	n/a	n/a	-999	-1	[0, 0, 0]	n/a	FR1	0	R1102P
116.353	13.008	776538	PRACTICE_REC_END	n/a	n/a	n/a	-999	-1	[0, 0, 0]	n/a	FR1	0	R1102P
129.361	10.0	783042	COUNTDOWN_START	n/a	n/a	n/a	-999	1	[0, 0, 0]	n/a	FR1	0	R1102P
129.361	10.428	783042	TRIAL	n/a	n/a	n/a	-999	1	[0, 0, 0]	n/a	FR1	0	R1102P
139.789	0.009	788255	COUNTDOWN_END	n/a	n/a	n/a	-999	1	[0, 0, 0]	n/a	FR1	0	R1102P
139.798	1.6	788260	ORIENT	n/a	n/a	n/a	-999	1	[0, 0, 0]	n/a	FR1	0	R1102P
142.247	1.6	789484	WORD	n/a	wordpools/wordpool_EN.txt	TENT	1	1	[0, 0, 0]	n/a	FR1	0	R1102P
144.715	1.6	790718	WORD	n/a	wordpools/wordpool_EN.txt	STOOL	2	1	[0, 0, 0]	n/a	FR1	0	R1102P
147.315	1.6	792018	WORD	n/a	wordpools/wordpool_EN.txt	HORN	3	1	[0, 0, 0]	n/a	FR1	0	R1102P
149.75	1.6	793236	WORD	n/a	wordpools/wordpool_EN.txt	SHIRT	4	1	[0, 0, 0]	n/a	FR1	0	R1102P
152.316	1.6	794519	WORD	n/a	wordpools/wordpool_EN.txt	YARD	5	1	[0, 0, 0]	n/a	FR1	0	R1102P
154.784	1.6	795753	WORD	n/a	wordpools/wordpool_EN.txt	BOWL	6	1	[0, 0, 0]	n/a	FR1	0	R1102P
157.183	1.6	796952	WORD	n/a	wordpools/wordpool_EN.txt	SEAT	7	1	[0, 0, 0]	n/a	FR1	0	R1102P
159.651	1.6	798186	WORD	n/a	wordpools/wordpool_EN.txt	SLUSH	8	1	[0, 0, 0]	n/a	FR1	0	R1102P
162.234	1.6	799477	WORD	n/a	wordpools/wordpool_EN.txt	CHALK	9	1	[0, 0, 0]	n/a	FR1	0	R1102P
164.836	1.6	800778	WORD	n/a	wordpools/wordpool_EN.txt	PLATE	10	1	[0, 0, 0]	n/a	FR1	0	R1102P
167.352	1.6	802036	WORD	n/a	wordpools/wordpool_EN.txt	PANTS	11	1	[0, 0, 0]	n/a	FR1	0	R1102P
169.886	1.6	803303	WORD	n/a	wordpools/wordpool_EN.txt	BAND	12	1	[0, 0, 0]	n/a	FR1	0	R1102P
171.503	0.001	804112	DISTRACT_START	n/a	n/a	n/a	-999	1	[0, 0, 0]	n/a	FR1	0	R1102P
171.504	0.015	804112	START	n/a	n/a	n/a	-999	1	[-999, -999, -999]	n/a	FR1	0	R1102P
171.519	7.468	804120	PROB	7.435	n/a	n/a	-999	1	[2, 4, 5]	11.0	FR1	0	R1102P
178.987	6.585	807853	PROB	6.551	n/a	n/a	-999	1	[8, 6, 1]	15.0	FR1	0	R1102P
185.572	4.384	811146	PROB	4.359	n/a	n/a	-999	1	[5, 5, 1]	11.0	FR1	0	R1102P
189.956	8.023	813338	PROB	8.023	n/a	n/a	-999	1	[9, 4, 1]	14.0	FR1	0	R1102P
197.979	0.012	817349	STOP	n/a	n/a	n/a	-999	1	[-999, -999, -999]	n/a	FR1	0	R1102P
197.991	1.205	817355	DISTRACT_END	n/a	n/a	n/a	-999	1	[0, 0, 0]	n/a	FR1	0	R1102P
199.196	4.406	817957	REC_START	n/a	n/a	n/a	-999	1	[0, 0, 0]	n/a	FR1	0	R1102P
203.602	0.607	820160	REC_WORD	4.406	n/a	TENT	1	1	[0, 0, 0]	n/a	FR1	0	R1102P
204.209	4.368	820464	REC_WORD	5.013	n/a	STOOL	2	1	[0, 0, 0]	n/a	FR1	0	R1102P
208.577	4.543	822648	REC_WORD	9.381	n/a	BAND	12	1	[0, 0, 0]	n/a	FR1	0	R1102P
213.12	5.58	824919	REC_WORD	13.924	n/a	WATER	-999	1	[0, 0, 0]	n/a	FR1	0	R1102P
218.7	10.502	827709	REC_WORD_VV	19.504	n/a	<>	-999	1	[0, 0, 0]	n/a	FR1	0	R1102P
229.202	8.396	832960	REC_END	n/a	n/a	n/a	-999	1	[0, 0, 0]	n/a	FR1	0	R1102P
237.598	10.0	837157	COUNTDOWN_START	n/a	n/a	n/a	-999	2	[0, 0, 0]	n/a	FR1	0	R1102P
237.599	10.427	837158	TRIAL	n/a	n/a	n/a	-999	2	[0, 0, 0]	n/a	FR1	0	R1102P
248.026	0.008	842371	COUNTDOWN_END	n/a	n/a	n/a	-999	2	[0, 0, 0]	n/a	FR1	0	R1102P
248.034	1.6	842375	ORIENT	n/a	n/a	n/a	-999	2	[0, 0, 0]	n/a	FR1	0	R1102P
250.467	1.6	843591	WORD	n/a	wordpools/wordpool_EN.txt	STORM	1	2	[0, 0, 0]	n/a	FR1	0	R1102P
253.068	1.6	844892	WORD	n/a	wordpools/wordpool_EN.txt	FOAM	2	2	[0, 0, 0]	n/a	FR1	0	R1102P
255.518	1.6	846117	WORD	n/a	wordpools/wordpool_EN.txt	STRAW	3	2	[0, 0, 0]	n/a	FR1	0	R1102P
258.135	1.6	847425	WORD	n/a	wordpools/wordpool_EN.txt	TRASH	4	2	[0, 0, 0]	n/a	FR1	0	R1102P
260.754	1.6	848735	WORD	n/a	wordpools/wordpool_EN.txt	CLIFF	5	2	[0, 0, 0]	n/a	FR1	0	R1102P
263.27	1.6	849993	WORD	n/a	wordpools/wordpool_EN.txt	STAIR	6	2	[0, 0, 0]	n/a	FR1	0	R1102P
265.688	1.6	851202	WORD	n/a	wordpools/wordpool_EN.txt	GLASS	7	2	[0, 0, 0]	n/a	FR1	0	R1102P
268.087	1.6	852401	WORD	n/a	wordpools/wordpool_EN.txt	WHALE	8	2	[0, 0, 0]	n/a	FR1	0	R1102P
270.706	1.6	853710	WORD	n/a	wordpools/wordpool_EN.txt	BRICK	9	2	[0, 0, 0]	n/a	FR1	0	R1102P
273.122	1.6	854918	WORD	n/a	wordpools/wordpool_EN.txt	SMOKE	10	2	[0, 0, 0]	n/a	FR1	0	R1102P
275.656	1.6	856185	WORD	n/a	wordpools/wordpool_EN.txt	ROPE	11	2	[0, 0, 0]	n/a	FR1	0	R1102P
278.189	1.6	857452	WORD	n/a	wordpools/wordpool_EN.txt	ROCK	12	2	[0, 0, 0]	n/a	FR1	0	R1102P
279.79	0.001	858252	DISTRACT_START	n/a	n/a	n/a	-999	2	[0, 0, 0]	n/a	FR1	0	R1102P
279.791	0.016	858253	START	n/a	n/a	n/a	-999	2	[-999, -999, -999]	n/a	FR1	0	R1102P
279.807	6.3	858261	PROB	6.276	n/a	n/a	-999	2	[1, 7, 7]	15.0	FR1	0	R1102P
286.107	7.703	861411	PROB	7.681	n/a	n/a	-999	2	[8, 5, 2]	15.0	FR1	0	R1102P
293.81	6.09	865262	PROB	6.09	n/a	n/a	-999	2	[4, 6, 9]	19.0	FR1	0	R1102P
299.9	0.011	868307	STOP	n/a	n/a	n/a	-999	2	[-999, -999, -999]	n/a	FR1	0	R1102P
299.911	1.2	868312	DISTRACT_END	n/a	n/a	n/a	-999	2	[0, 0, 0]	n/a	FR1	0	R1102P
301.111	3.612	868912	REC_START	n/a	n/a	n/a	-999	2	[0, 0, 0]	n/a	FR1	0	R1102P
304.723	1.0	870718	REC_WORD_VV	3.612	n/a	<>	-999	2	[0, 0, 0]	n/a	FR1	0	R1102P
305.723	0.968	871218	REC_WORD_VV	4.612	n/a	<>	-999	2	[0, 0, 0]	n/a	FR1	0	R1102P
306.691	1.146	871702	REC_WORD	5.58	n/a	STORE	-999	2	[0, 0, 0]	n/a	FR1	0	R1102P
307.837	2.305	872275	REC_WORD	6.726	n/a	PHONE	-999	2	[0, 0, 0]	n/a	FR1	0	R1102P
310.142	8.569	873427	REC_WORD	9.031	n/a	BRICK	9	2	[0, 0, 0]	n/a	FR1	0	R1102P
318.711	12.41	877712	REC_WORD	17.6	n/a	WASH	-999	2	[0, 0, 0]	n/a	FR1	0	R1102P
331.121	4.664	883916	REC_END	n/a	n/a	n/a	-999	2	[0, 0, 0]	n/a	FR1	0	R1102P
335.785	0.0	886248	TRIAL	n/a	n/a	n/a	-999	3	[0, 0, 0]	n/a	FR1	0	R1102P
335.785	10.0	886248	COUNTDOWN_START	n/a	n/a	n/a	-999	3	[0, 0, 0]	n/a	FR1	0	R1102P
346.213	0.006	891462	COUNTDOWN_END	n/a	n/a	n/a	-999	3	[0, 0, 0]	n/a	FR1	0	R1102P
346.219	1.6	891465	ORIENT	n/a	n/a	n/a	-999	3	[0, 0, 0]	n/a	FR1	0	R1102P
348.704	1.6	892707	WORD	n/a	wordpools/wordpool_EN.txt	BEAN	1	3	[0, 0, 0]	n/a	FR1	0	R1102P
351.186	1.6	893948	WORD	n/a	wordpools/wordpool_EN.txt	BIRD	2	3	[0, 0, 0]	n/a	FR1	0	R1102P
353.804	1.6	895257	WORD	n/a	wordpools/wordpool_EN.txt	FOOT	3	3	[0, 0, 0]	n/a	FR1	0	R1102P
356.254	1.6	896482	WORD	n/a	wordpools/wordpool_EN.txt	BEAK	4	3	[0, 0, 0]	n/a	FR1	0	R1102P
358.872	1.6	897791	WORD	n/a	wordpools/wordpool_EN.txt	PLANT	5	3	[0, 0, 0]	n/a	FR1	0	R1102P
361.355	1.6	899033	WORD	n/a	wordpools/wordpool_EN.txt	BLOOM	6	3	[0, 0, 0]	n/a	FR1	0	R1102P
363.922	1.6	900316	WORD	n/a	wordpools/wordpool_EN.txt	ANT	7	3	[0, 0, 0]	n/a	FR1	0	R1102P
366.456	1.6	901583	WORD	n/a	wordpools/wordpool_EN.txt	BEE	8	3	[0, 0, 0]	n/a	FR1	0	R1102P
368.99	1.6	902850	WORD	n/a	wordpools/wordpool_EN.txt	FOOD	9	3	[0, 0, 0]	n/a	FR1	0	R1102P
371.607	1.6	904158	WORD	n/a	wordpools/wordpool_EN.txt	BREAD	10	3	[0, 0, 0]	n/a	FR1	0	R1102P
374.007	1.6	905358	WORD	n/a	wordpools/wordpool_EN.txt	RICE	11	3	[0, 0, 0]	n/a	FR1	0	R1102P
376.591	1.6	906650	WORD	n/a	wordpools/wordpool_EN.txt	TREE	12	3	[0, 0, 0]	n/a	FR1	0	R1102P
378.208	0.001	907459	DISTRACT_START	n/a	n/a	n/a	-999	3	[0, 0, 0]	n/a	FR1	0	R1102P
378.209	0.016	907459	START	n/a	n/a	n/a	-999	3	[-999, -999, -999]	n/a	FR1	0	R1102P
378.225	5.751	907467	PROB	5.722	n/a	n/a	-999	3	[3, 3, 2]	8.0	FR1	0	R1102P
383.976	12.853	910342	PROB	12.82	n/a	n/a	-999	3	[1, 6, 9]	16.0	FR1	0	R1102P
396.829	5.494	916769	PROB	5.494	n/a	n/a	-999	3	[2, 3, 3]	8.0	FR1	0	R1102P
402.323	0.006	919515	STOP	n/a	n/a	n/a	-999	3	[-999, -999, -999]	n/a	FR1	0	R1102P
402.329	1.184	919518	DISTRACT_END	n/a	n/a	n/a	-999	3	[0, 0, 0]	n/a	FR1	0	R1102P
403.513	5.123	920110	REC_START	n/a	n/a	n/a	-999	3	[0, 0, 0]	n/a	FR1	0	R1102P
408.636	1.466	922672	REC_WORD_VV	5.123	n/a	<>	-999	3	[0, 0, 0]	n/a	FR1	0	R1102P
410.102	1.697	923405	REC_WORD	6.589	n/a	BEAN	1	3	[0, 0, 0]	n/a	FR1	0	R1102P
411.799	3.502	924253	REC_WORD	8.286	n/a	BIRD	2	3	[0, 0, 0]	n/a	FR1	0	R1102P
415.301	6.018	926004	REC_WORD	11.788	n/a	FOOD	9	3	[0, 0, 0]	n/a	FR1	0	R1102P
421.319	7.96	929013	REC_WORD	17.806	n/a	ANT	7	3	[0, 0, 0]	n/a	FR1	0	R1102P
429.279	1.0	932993	REC_WORD_VV	25.766	n/a	<>	-999	3	[0, 0, 0]	n/a	FR1	0	R1102P
430.279	3.245	933493	REC_WORD_VV	26.766	n/a	<>	-999	3	[0, 0, 0]	n/a	FR1	0	R1102P
433.524	3.229	935115	REC_END	n/a	n/a	n/a	-999	3	[0, 0, 0]	n/a	FR1	0	R1102P
436.753	10.0	936730	COUNTDOWN_START	n/a	n/a	n/a	-999	4	[0, 0, 0]	n/a	FR1	0	R1102P
436.754	10.427	936730	TRIAL	n/a	n/a	n/a	-999	4	[0, 0, 0]	n/a	FR1	0	R1102P
447.181	0.007	941943	COUNTDOWN_END	n/a	n/a	n/a	-999	4	[0, 0, 0]	n/a	FR1	0	R1102P
447.188	1.6	941947	ORIENT	n/a	n/a	n/a	-999	4	[0, 0, 0]	n/a	FR1	0	R1102P
449.755	1.6	943230	WORD	n/a	wordpools/wordpool_EN.txt	FOX	1	4	[0, 0, 0]	n/a	FR1	0	R1102P
452.272	1.6	944489	WORD	n/a	wordpools/wordpool_EN.txt	BAG	2	4	[0, 0, 0]	n/a	FR1	0	R1102P
454.79	1.6	945748	WORD	n/a	wordpools/wordpool_EN.txt	COW	3	4	[0, 0, 0]	n/a	FR1	0	R1102P
457.173	1.6	946939	WORD	n/a	wordpools/wordpool_EN.txt	CRANE	4	4	[0, 0, 0]	n/a	FR1	0	R1102P
459.658	1.6	948181	WORD	n/a	wordpools/wordpool_EN.txt	DOCK	5	4	[0, 0, 0]	n/a	FR1	0	R1102P
462.124	1.6	949414	WORD	n/a	wordpools/wordpool_EN.txt	AXE	6	4	[0, 0, 0]	n/a	FR1	0	R1102P
464.591	1.6	950648	WORD	n/a	wordpools/wordpool_EN.txt	EAR	7	4	[0, 0, 0]	n/a	FR1	0	R1102P
467.125	1.6	951915	WORD	n/a	wordpools/wordpool_EN.txt	GRASS	8	4	[0, 0, 0]	n/a	FR1	0	R1102P
469.676	1.6	953190	WORD	n/a	wordpools/wordpool_EN.txt	CROW	9	4	[0, 0, 0]	n/a	FR1	0	R1102P
472.226	1.6	954465	WORD	n/a	wordpools/wordpool_EN.txt	TOAD	10	4	[0, 0, 0]	n/a	FR1	0	R1102P
474.777	1.6	955741	WORD	n/a	wordpools/wordpool_EN.txt	WORLD	11	4	[0, 0, 0]	n/a	FR1	0	R1102P
477.343	1.6	957024	WORD	n/a	wordpools/wordpool_EN.txt	SHEEP	12	4	[0, 0, 0]	n/a	FR1	0	R1102P
478.96	0.001	957832	DISTRACT_START	n/a	n/a	n/a	-999	4	[0, 0, 0]	n/a	FR1	0	R1102P
478.961	0.016	957832	START	n/a	n/a	n/a	-999	4	[-999, -999, -999]	n/a	FR1	0	R1102P
478.977	5.351	957840	PROB	5.322	n/a	n/a	-999	4	[3, 5, 1]	9.0	FR1	0	R1102P
484.328	5.951	960516	PROB	5.915	n/a	n/a	-999	4	[3, 8, 1]	12.0	FR1	0	R1102P
490.279	5.034	963491	PROB	5.012	n/a	n/a	-999	4	[4, 8, 2]	14.0	FR1	0	R1102P
495.313	9.617	966008	PROB	9.617	n/a	n/a	-999	4	[9, 4, 4]	17.0	FR1	0	R1102P
504.93	0.018	970816	STOP	n/a	n/a	n/a	-999	4	[-999, -999, -999]	n/a	FR1	0	R1102P
504.948	1.218	970825	DISTRACT_END	n/a	n/a	n/a	-999	4	[0, 0, 0]	n/a	FR1	0	R1102P
506.166	3.354	971434	REC_START	n/a	n/a	n/a	-999	4	[0, 0, 0]	n/a	FR1	0	R1102P
509.52	1.929	973111	REC_WORD_VV	3.354	n/a	<>	-999	4	[0, 0, 0]	n/a	FR1	0	R1102P
511.449	0.404	974076	REC_WORD_VV	5.283	n/a	<>	-999	4	[0, 0, 0]	n/a	FR1	0	R1102P
511.853	0.562	974278	REC_WORD	5.687	n/a	COW	3	4	[0, 0, 0]	n/a	FR1	0	R1102P
512.415	3.706	974559	REC_WORD	6.249	n/a	CRANE	4	4	[0, 0, 0]	n/a	FR1	0	R1102P
516.121	6.08	976411	REC_WORD	9.955	n/a	CROW	9	4	[0, 0, 0]	n/a	FR1	0	R1102P
522.201	7.892	979451	REC_WORD_VV	16.035	n/a	<>	-999	4	[0, 0, 0]	n/a	FR1	0	R1102P
530.093	6.083	983397	REC_WORD	23.927	n/a	DOCK	5	4	[0, 0, 0]	n/a	FR1	0	R1102P
536.176	4.329	986438	REC_END	n/a	n/a	n/a	-999	4	[0, 0, 0]	n/a	FR1	0	R1102P
540.505	10.0	988603	COUNTDOWN_START	n/a	n/a	n/a	-999	5	[0, 0, 0]	n/a	FR1	0	R1102P
540.506	10.427	988603	TRIAL	n/a	n/a	n/a	-999	5	[0, 0, 0]	n/a	FR1	0	R1102P
550.933	0.007	993817	COUNTDOWN_END	n/a	n/a	n/a	-999	5	[0, 0, 0]	n/a	FR1	0	R1102P
550.94	1.6	993820	ORIENT	n/a	n/a	n/a	-999	5	[0, 0, 0]	n/a	FR1	0	R1102P
553.524	1.6	995112	WORD	n/a	wordpools/wordpool_EN.txt	HAWK	1	5	[0, 0, 0]	n/a	FR1	0	R1102P
555.941	1.6	996320	WORD	n/a	wordpools/wordpool_EN.txt	MAIL	2	5	[0, 0, 0]	n/a	FR1	0	R1102P
558.392	1.6	997546	WORD	n/a	wordpools/wordpool_EN.txt	BOOK	3	5	[0, 0, 0]	n/a	FR1	0	R1102P
560.877	1.6	998788	WORD	n/a	wordpools/wordpool_EN.txt	STORE	4	5	[0, 0, 0]	n/a	FR1	0	R1102P
563.493	1.6	1000096	WORD	n/a	wordpools/wordpool_EN.txt	HORSE	5	5	[0, 0, 0]	n/a	FR1	0	R1102P
565.894	1.6	1001297	WORD	n/a	wordpools/wordpool_EN.txt	CORD	6	5	[0, 0, 0]	n/a	FR1	0	R1102P
568.51	1.6	1002605	WORD	n/a	wordpools/wordpool_EN.txt	BAT	7	5	[0, 0, 0]	n/a	FR1	0	R1102P
571.027	1.6	1003863	WORD	n/a	wordpools/wordpool_EN.txt	PEA	8	5	[0, 0, 0]	n/a	FR1	0	R1102P
573.428	1.6	1005063	WORD	n/a	wordpools/wordpool_EN.txt	JET	9	5	[0, 0, 0]	n/a	FR1	0	R1102P
575.846	1.6	1006272	WORD	n/a	wordpools/wordpool_EN.txt	JAIL	10	5	[0, 0, 0]	n/a	FR1	0	R1102P
578.446	1.6	1007572	WORD	n/a	wordpools/wordpool_EN.txt	TOOL	11	5	[0, 0, 0]	n/a	FR1	0	R1102P
580.88	1.6	1008789	WORD	n/a	wordpools/wordpool_EN.txt	SHEET	12	5	[0, 0, 0]	n/a	FR1	0	R1102P
582.496	0.001	1009597	DISTRACT_START	n/a	n/a	n/a	-999	5	[0, 0, 0]	n/a	FR1	0	R1102P
582.497	0.016	1009598	START	n/a	n/a	n/a	-999	5	[-999, -999, -999]	n/a	FR1	0	R1102P
582.513	7.985	1009606	PROB	7.954	n/a	n/a	-999	5	[4, 9, 3]	16.0	FR1	0	R1102P
590.498	7.701	1013598	PROB	7.665	n/a	n/a	-999	5	[3, 1, 7]	11.0	FR1	0	R1102P
598.199	7.059	1017448	PROB	7.059	n/a	n/a	-999	5	[9, 3, 3]	15.0	FR1	0	R1102P
605.258	0.009	1020978	STOP	n/a	n/a	n/a	-999	5	[-999, -999, -999]	n/a	FR1	0	R1102P
605.267	1.035	1020982	DISTRACT_END	n/a	n/a	n/a	-999	5	[0, 0, 0]	n/a	FR1	0	R1102P
606.302	4.31	1021500	REC_START	n/a	n/a	n/a	-999	5	[0, 0, 0]	n/a	FR1	0	R1102P
610.612	0.585	1023654	REC_WORD_VV	4.31	n/a	<>	-999	5	[0, 0, 0]	n/a	FR1	0	R1102P
611.197	1.121	1023947	REC_WORD	4.895	n/a	HAWK	1	5	[0, 0, 0]	n/a	FR1	0	R1102P
612.318	1.576	1024507	REC_WORD	6.016	n/a	PEA	8	5	[0, 0, 0]	n/a	FR1	0	R1102P
613.894	3.835	1025295	REC_WORD	7.592	n/a	JET	9	5	[0, 0, 0]	n/a	FR1	0	R1102P
617.729	4.852	1027213	REC_WORD_VV	11.427	n/a	<>	-999	5	[0, 0, 0]	n/a	FR1	0	R1102P
622.581	4.494	1029639	REC_WORD	16.279	n/a	SHEET	12	5	[0, 0, 0]	n/a	FR1	0	R1102P
627.075	9.237	1031886	REC_WORD_VV	20.773	n/a	<>	-999	5	[0, 0, 0]	n/a	FR1	0	R1102P
636.312	3.295	1036504	REC_END	n/a	n/a	n/a	-999	5	[0, 0, 0]	n/a	FR1	0	R1102P
639.607	10.0	1038151	COUNTDOWN_START	n/a	n/a	n/a	-999	6	[0, 0, 0]	n/a	FR1	0	R1102P
639.607	10.428	1038151	TRIAL	n/a	n/a	n/a	-999	6	[0, 0, 0]	n/a	FR1	0	R1102P
650.035	0.007	1043365	COUNTDOWN_END	n/a	n/a	n/a	-999	6	[0, 0, 0]	n/a	FR1	0	R1102P
650.042	1.6	1043368	ORIENT	n/a	n/a	n/a	-999	6	[0, 0, 0]	n/a	FR1	0	R1102P
652.66	1.6	1044677	WORD	n/a	wordpools/wordpool_EN.txt	CHIN	1	6	[0, 0, 0]	n/a	FR1	0	R1102P
655.043	1.6	1045869	WORD	n/a	wordpools/wordpool_EN.txt	SEED	2	6	[0, 0, 0]	n/a	FR1	0	R1102P
657.644	1.6	1047169	WORD	n/a	wordpools/wordpool_EN.txt	SOUP	3	6	[0, 0, 0]	n/a	FR1	0	R1102P
660.044	1.6	1048369	WORD	n/a	wordpools/wordpool_EN.txt	VINE	4	6	[0, 0, 0]	n/a	FR1	0	R1102P
662.445	1.6	1049570	WORD	n/a	wordpools/wordpool_EN.txt	CHAIR	5	6	[0, 0, 0]	n/a	FR1	0	R1102P
665.012	1.6	1050853	WORD	n/a	wordpools/wordpool_EN.txt	BRANCH	6	6	[0, 0, 0]	n/a	FR1	0	R1102P
667.546	1.6	1052120	WORD	n/a	wordpools/wordpool_EN.txt	FUDGE	7	6	[0, 0, 0]	n/a	FR1	0	R1102P
670.163	1.6	1053428	WORD	n/a	wordpools/wordpool_EN.txt	FRUIT	8	6	[0, 0, 0]	n/a	FR1	0	R1102P
672.664	1.6	1054679	WORD	n/a	wordpools/wordpool_EN.txt	JUICE	9	6	[0, 0, 0]	n/a	FR1	0	R1102P
675.214	1.6	1055954	WORD	n/a	wordpools/wordpool_EN.txt	TOE	10	6	[0, 0, 0]	n/a	FR1	0	R1102P
677.815	1.6	1057254	WORD	n/a	wordpools/wordpool_EN.txt	PIT	11	6	[0, 0, 0]	n/a	FR1	0	R1102P
680.248	1.6	1058471	WORD	n/a	wordpools/wordpool_EN.txt	STEAK	12	6	[0, 0, 0]	n/a	FR1	0	R1102P
681.866	0.001	1059280	DISTRACT_START	n/a	n/a	n/a	-999	6	[0, 0, 0]	n/a	FR1	0	R1102P
681.867	0.016	1059280	START	n/a	n/a	n/a	-999	6	[-999, -999, -999]	n/a	FR1	0	R1102P
681.883	6.367	1059288	PROB	6.336	n/a	n/a	-999	6	[2, 6, 1]	9.0	FR1	0	R1102P
688.25	7.652	1062471	PROB	7.618	n/a	n/a	-999	6	[8, 5, 6]	19.0	FR1	0	R1102P
695.902	10.517	1066297	PROB	10.517	n/a	n/a	-999	6	[3, 6, 7]	16.0	FR1	0	R1102P
706.419	0.017	1071555	STOP	n/a	n/a	n/a	-999	6	[-999, -999, -999]	n/a	FR1	0	R1102P
706.436	1.101	1071564	DISTRACT_END	n/a	n/a	n/a	-999	6	[0, 0, 0]	n/a	FR1	0	R1102P
707.537	4.832	1072114	REC_START	n/a	n/a	n/a	-999	6	[0, 0, 0]	n/a	FR1	0	R1102P
712.369	1.372	1074530	REC_WORD_VV	4.832	n/a	<>	-999	6	[0, 0, 0]	n/a	FR1	0	R1102P
713.741	0.662	1075216	REC_WORD	6.204	n/a	SUIT	-999	6	[0, 0, 0]	n/a	FR1	0	R1102P
714.403	17.12	1075547	REC_WORD	6.866	n/a	SOUP	3	6	[0, 0, 0]	n/a	FR1	0	R1102P
731.523	1.0	1084107	REC_WORD_VV	23.986	n/a	<>	-999	6	[0, 0, 0]	n/a	FR1	0	R1102P
732.523	5.024	1084607	REC_WORD_VV	24.986	n/a	<>	-999	6	[0, 0, 0]	n/a	FR1	0	R1102P
737.547	3.313	1087119	REC_END	n/a	n/a	n/a	-999	6	[0, 0, 0]	n/a	FR1	0	R1102P
740.86	10.0	1088775	COUNTDOWN_START	n/a	n/a	n/a	-999	7	[0, 0, 0]	n/a	FR1	0	R1102P
740.861	10.427	1088776	TRIAL	n/a	n/a	n/a	-999	7	[0, 0, 0]	n/a	FR1	0	R1102P
751.288	0.007	1093989	COUNTDOWN_END	n/a	n/a	n/a	-999	7	[0, 0, 0]	n/a	FR1	0	R1102P
751.295	1.6	1093992	ORIENT	n/a	n/a	n/a	-999	7	[0, 0, 0]	n/a	FR1	0	R1102P
753.696	1.6	1095193	WORD	n/a	wordpools/wordpool_EN.txt	MOTH	1	7	[0, 0, 0]	n/a	FR1	0	R1102P
756.095	1.6	1096392	WORD	n/a	wordpools/wordpool_EN.txt	WING	2	7	[0, 0, 0]	n/a	FR1	0	R1102P
758.646	1.6	1097668	WORD	n/a	wordpools/wordpool_EN.txt	RIB	3	7	[0, 0, 0]	n/a	FR1	0	R1102P
761.146	1.6	1098918	WORD	n/a	wordpools/wordpool_EN.txt	THREAD	4	7	[0, 0, 0]	n/a	FR1	0	R1102P
763.665	1.6	1100177	WORD	n/a	wordpools/wordpool_EN.txt	NET	5	7	[0, 0, 0]	n/a	FR1	0	R1102P
766.131	1.6	1101410	WORD	n/a	wordpools/wordpool_EN.txt	POND	6	7	[0, 0, 0]	n/a	FR1	0	R1102P
768.631	1.6	1102660	WORD	n/a	wordpools/wordpool_EN.txt	SNAIL	7	7	[0, 0, 0]	n/a	FR1	0	R1102P
771.132	1.6	1103910	WORD	n/a	wordpools/wordpool_EN.txt	FISH	8	7	[0, 0, 0]	n/a	FR1	0	R1102P
773.632	1.6	1105160	WORD	n/a	wordpools/wordpool_EN.txt	STRING	9	7	[0, 0, 0]	n/a	FR1	0	R1102P
776.233	1.6	1106461	WORD	n/a	wordpools/wordpool_EN.txt	HAND	10	7	[0, 0, 0]	n/a	FR1	0	R1102P
778.734	1.6	1107711	WORD	n/a	wordpools/wordpool_EN.txt	OWL	11	7	[0, 0, 0]	n/a	FR1	0	R1102P
781.25	1.6	1108969	WORD	n/a	wordpools/wordpool_EN.txt	SKUNK	12	7	[0, 0, 0]	n/a	FR1	0	R1102P
782.868	0.001	1109778	DISTRACT_START	n/a	n/a	n/a	-999	7	[0, 0, 0]	n/a	FR1	0	R1102P
782.869	0.016	1109778	START	n/a	n/a	n/a	-999	7	[-999, -999, -999]	n/a	FR1	0	R1102P
782.885	7.3	1109786	PROB	7.27	n/a	n/a	-999	7	[2, 5, 9]	16.0	FR1	0	R1102P
790.185	4.985	1113436	PROB	4.962	n/a	n/a	-999	7	[5, 4, 4]	13.0	FR1	0	R1102P
795.17	5.618	1115929	PROB	5.586	n/a	n/a	-999	7	[6, 6, 2]	14.0	FR1	0	R1102P
800.788	5.024	1118737	PROB	5.024	n/a	n/a	-999	7	[2, 1, 4]	7.0	FR1	0	R1102P
805.812	0.01	1121249	STOP	n/a	n/a	n/a	-999	7	[-999, -999, -999]	n/a	FR1	0	R1102P
805.822	1.184	1121254	DISTRACT_END	n/a	n/a	n/a	-999	7	[0, 0, 0]	n/a	FR1	0	R1102P
807.006	3.93	1121846	REC_START	n/a	n/a	n/a	-999	7	[0, 0, 0]	n/a	FR1	0	R1102P
810.936	1.299	1123811	REC_WORD_VV	3.93	n/a	<>	-999	7	[0, 0, 0]	n/a	FR1	0	R1102P
812.235	1.729	1124461	REC_WORD	5.229	n/a	OWL	11	7	[0, 0, 0]	n/a	FR1	0	R1102P
813.964	23.052	1125325	REC_WORD	6.958	n/a	THREAD	4	7	[0, 0, 0]	n/a	FR1	0	R1102P
837.016	2.495	1136851	REC_END	n/a	n/a	n/a	-999	7	[0, 0, 0]	n/a	FR1	0	R1102P
839.511	0.0	1138098	TRIAL	n/a	n/a	n/a	-999	8	[0, 0, 0]	n/a	FR1	0	R1102P
839.511	10.0	1138098	COUNTDOWN_START	n/a	n/a	n/a	-999	8	[0, 0, 0]	n/a	FR1	0	R1102P
849.939	0.007	1143312	COUNTDOWN_END	n/a	n/a	n/a	-999	8	[0, 0, 0]	n/a	FR1	0	R1102P
849.946	1.6	1143315	ORIENT	n/a	n/a	n/a	-999	8	[0, 0, 0]	n/a	FR1	0	R1102P
852.38	1.6	1144532	WORD	n/a	wordpools/wordpool_EN.txt	JUDGE	1	8	[0, 0, 0]	n/a	FR1	0	R1102P
854.964	1.6	1145824	WORD	n/a	wordpools/wordpool_EN.txt	KEY	2	8	[0, 0, 0]	n/a	FR1	0	R1102P
857.414	1.6	1147049	WORD	n/a	wordpools/wordpool_EN.txt	BOY	3	8	[0, 0, 0]	n/a	FR1	0	R1102P
859.899	1.6	1148291	WORD	n/a	wordpools/wordpool_EN.txt	DESK	4	8	[0, 0, 0]	n/a	FR1	0	R1102P
862.415	1.6	1149549	WORD	n/a	wordpools/wordpool_EN.txt	CASH	5	8	[0, 0, 0]	n/a	FR1	0	R1102P
864.949	1.6	1150816	WORD	n/a	wordpools/wordpool_EN.txt	FLAG	6	8	[0, 0, 0]	n/a	FR1	0	R1102P
867.566	1.6	1152125	WORD	n/a	wordpools/wordpool_EN.txt	BADGE	7	8	[0, 0, 0]	n/a	FR1	0	R1102P
870.1	1.6	1153392	WORD	n/a	wordpools/wordpool_EN.txt	ROOM	8	8	[0, 0, 0]	n/a	FR1	0	R1102P
872.551	1.6	1154617	WORD	n/a	wordpools/wordpool_EN.txt	CAR	9	8	[0, 0, 0]	n/a	FR1	0	R1102P
875.101	1.6	1155892	WORD	n/a	wordpools/wordpool_EN.txt	SIGN	10	8	[0, 0, 0]	n/a	FR1	0	R1102P
877.585	1.6	1157134	WORD	n/a	wordpools/wordpool_EN.txt	ARK	11	8	[0, 0, 0]	n/a	FR1	0	R1102P
880.169	1.6	1158426	WORD	n/a	wordpools/wordpool_EN.txt	PIE	12	8	[0, 0, 0]	n/a	FR1	0	R1102P
881.787	0.001	1159235	DISTRACT_START	n/a	n/a	n/a	-999	8	[0, 0, 0]	n/a	FR1	0	R1102P
881.788	0.015	1159235	START	n/a	n/a	n/a	-999	8	[-999, -999, -999]	n/a	FR1	0	R1102P
881.803	6.584	1159243	PROB	6.56	n/a	n/a	-999	8	[1, 2, 2]	5.0	FR1	0	R1102P
888.387	5.918	1162535	PROB	5.888	n/a	n/a	-999	8	[3, 6, 5]	14.0	FR1	0	R1102P
894.305	12.922	1165494	PROB	12.922	n/a	n/a	-999	8	[4, 7, 6]	17.0	FR1	0	R1102P
907.227	0.014	1171954	STOP	n/a	n/a	n/a	-999	8	[-999, -999, -999]	n/a	FR1	0	R1102P
907.241	1.067	1171961	DISTRACT_END	n/a	n/a	n/a	-999	8	[0, 0, 0]	n/a	FR1	0	R1102P
908.308	3.998	1172495	REC_START	n/a	n/a	n/a	-999	8	[0, 0, 0]	n/a	FR1	0	R1102P
912.306	1.092	1174494	REC_WORD	3.998	n/a	JUDGE	1	8	[0, 0, 0]	n/a	FR1	0	R1102P
913.398	0.904	1175039	REC_WORD	5.09	n/a	CUBE	-999	8	[0, 0, 0]	n/a	FR1	0	R1102P
914.302	0.537	1175491	REC_WORD	5.994	n/a	BADGE	7	8	[0, 0, 0]	n/a	FR1	0	R1102P
914.839	0.348	1175760	REC_WORD	6.531	n/a	ROOM	8	8	[0, 0, 0]	n/a	FR1	0	R1102P
915.187	23.131	1175934	REC_WORD	6.879	n/a	CAR	9	8	[0, 0, 0]	n/a	FR1	0	R1102P
938.318	3.896	1187499	REC_END	n/a	n/a	n/a	-999	8	[0, 0, 0]	n/a	FR1	0	R1102P
942.214	0.0	1189447	TRIAL	n/a	n/a	n/a	-999	9	[0, 0, 0]	n/a	FR1	0	R1102P
942.214	10.0	1189447	COUNTDOWN_START	n/a	n/a	n/a	-999	9	[0, 0, 0]	n/a	FR1	0	R1102P
952.642	0.008	1194660	COUNTDOWN_END	n/a	n/a	n/a	-999	9	[0, 0, 0]	n/a	FR1	0	R1102P
952.65	1.6	1194664	ORIENT	n/a	n/a	n/a	-999	9	[0, 0, 0]	n/a	FR1	0	R1102P
955.066	1.6	1195872	WORD	n/a	wordpools/wordpool_EN.txt	RAKE	1	9	[0, 0, 0]	n/a	FR1	0	R1102P
957.684	1.6	1197181	WORD	n/a	wordpools/wordpool_EN.txt	SPRING	2	9	[0, 0, 0]	n/a	FR1	0	R1102P
960.134	1.6	1198406	WORD	n/a	wordpools/wordpool_EN.txt	WORM	3	9	[0, 0, 0]	n/a	FR1	0	R1102P
962.501	1.6	1199590	WORD	n/a	wordpools/wordpool_EN.txt	BLUSH	4	9	[0, 0, 0]	n/a	FR1	0	R1102P
965.101	1.6	1200890	WORD	n/a	wordpools/wordpool_EN.txt	MOLE	5	9	[0, 0, 0]	n/a	FR1	0	R1102P
967.669	1.6	1202174	WORD	n/a	wordpools/wordpool_EN.txt	ROAD	6	9	[0, 0, 0]	n/a	FR1	0	R1102P
970.086	1.6	1203382	WORD	n/a	wordpools/wordpool_EN.txt	LEAF	7	9	[0, 0, 0]	n/a	FR1	0	R1102P
972.486	1.6	1204582	WORD	n/a	wordpools/wordpool_EN.txt	WEB	8	9	[0, 0, 0]	n/a	FR1	0	R1102P
974.986	1.6	1205832	WORD	n/a	wordpools/wordpool_EN.txt	TAIL	9	9	[0, 0, 0]	n/a	FR1	0	R1102P
977.52	1.6	1207099	WORD	n/a	wordpools/wordpool_EN.txt	BUSH	10	9	[0, 0, 0]	n/a	FR1	0	R1102P
980.104	1.6	1208391	WORD	n/a	wordpools/wordpool_EN.txt	FLEA	11	9	[0, 0, 0]	n/a	FR1	0	R1102P
982.504	1.6	1209591	WORD	n/a	wordpools/wordpool_EN.txt	CAGE	12	9	[0, 0, 0]	n/a	FR1	0	R1102P
984.122	0.001	1210400	DISTRACT_START	n/a	n/a	n/a	-999	9	[0, 0, 0]	n/a	FR1	0	R1102P
984.123	0.015	1210400	START	n/a	n/a	n/a	-999	9	[-999, -999, -999]	n/a	FR1	0	R1102P
984.138	7.753	1210408	PROB	7.722	n/a	n/a	-999	9	[3, 6, 8]	17.0	FR1	0	R1102P
991.891	4.533	1214284	PROB	4.512	n/a	n/a	-999	9	[9, 1, 4]	14.0	FR1	0	R1102P
996.424	5.134	1216550	PROB	5.098	n/a	n/a	-999	9	[3, 2, 4]	9.0	FR1	0	R1102P
1001.558	5.701	1219117	PROB	5.701	n/a	n/a	-999	9	[9, 4, 2]	15.0	FR1	0	R1102P
1007.259	0.017	1221968	STOP	n/a	n/a	n/a	-999	9	[-999, -999, -999]	n/a	FR1	0	R1102P
1007.276	1.167	1221976	DISTRACT_END	n/a	n/a	n/a	-999	9	[0, 0, 0]	n/a	FR1	0	R1102P
1008.443	5.429	1222559	REC_START	n/a	n/a	n/a	-999	9	[0, 0, 0]	n/a	FR1	0	R1102P
1013.872	1.958	1225274	REC_WORD_VV	5.429	n/a	<>	-999	9	[0, 0, 0]	n/a	FR1	0	R1102P
1015.83	1.413	1226253	REC_WORD	7.387	n/a	RAKE	1	9	[0, 0, 0]	n/a	FR1	0	R1102P
1017.243	3.734	1226959	REC_WORD	8.8	n/a	LEAF	7	9	[0, 0, 0]	n/a	FR1	0	R1102P
1020.977	1.653	1228826	REC_WORD	12.534	n/a	BLUSH	4	9	[0, 0, 0]	n/a	FR1	0	R1102P
1022.63	8.851	1229653	REC_WORD	14.187	n/a	BUSH	10	9	[0, 0, 0]	n/a	FR1	0	R1102P
1031.481	2.436	1234078	REC_WORD_VV	23.038	n/a	<>	-999	9	[0, 0, 0]	n/a	FR1	0	R1102P
1033.917	1.0	1235296	REC_WORD_VV	25.474	n/a	<>	-999	9	[0, 0, 0]	n/a	FR1	0	R1102P
1034.917	1.0	1235796	REC_WORD_VV	26.474	n/a	<>	-999	9	[0, 0, 0]	n/a	FR1	0	R1102P
1035.917	2.54	1236296	REC_WORD_VV	27.474	n/a	<>	-999	9	[0, 0, 0]	n/a	FR1	0	R1102P
1038.457	3.276	1237566	REC_END	n/a	n/a	n/a	-999	9	[0, 0, 0]	n/a	FR1	0	R1102P
1041.733	10.0	1239204	COUNTDOWN_START	n/a	n/a	n/a	-999	10	[0, 0, 0]	n/a	FR1	0	R1102P
1041.734	10.427	1239204	TRIAL	n/a	n/a	n/a	-999	10	[0, 0, 0]	n/a	FR1	0	R1102P
1052.161	0.007	1244417	COUNTDOWN_END	n/a	n/a	n/a	-999	10	[0, 0, 0]	n/a	FR1	0	R1102P
1052.168	1.6	1244421	ORIENT	n/a	n/a	n/a	-999	10	[0, 0, 0]	n/a	FR1	0	R1102P
1054.686	1.6	1245680	WORD	n/a	wordpools/wordpool_EN.txt	HOLE	1	10	[0, 0, 0]	n/a	FR1	0	R1102P
1057.285	1.6	1246979	WORD	n/a	wordpools/wordpool_EN.txt	BED	2	10	[0, 0, 0]	n/a	FR1	0	R1102P
1059.82	1.6	1248247	WORD	n/a	wordpools/wordpool_EN.txt	TRAIN	3	10	[0, 0, 0]	n/a	FR1	0	R1102P
1062.319	1.6	1249496	WORD	n/a	wordpools/wordpool_EN.txt	CART	4	10	[0, 0, 0]	n/a	FR1	0	R1102P
1064.788	1.6	1250730	WORD	n/a	wordpools/wordpool_EN.txt	MAT	5	10	[0, 0, 0]	n/a	FR1	0	R1102P
1067.187	1.6	1251930	WORD	n/a	wordpools/wordpool_EN.txt	MAZE	6	10	[0, 0, 0]	n/a	FR1	0	R1102P
1069.571	1.6	1253122	WORD	n/a	wordpools/wordpool_EN.txt	HAT	7	10	[0, 0, 0]	n/a	FR1	0	R1102P
1072.188	1.6	1254430	WORD	n/a	wordpools/wordpool_EN.txt	PARK	8	10	[0, 0, 0]	n/a	FR1	0	R1102P
1074.572	1.6	1255622	WORD	n/a	wordpools/wordpool_EN.txt	TRUCK	9	10	[0, 0, 0]	n/a	FR1	0	R1102P
1077.156	1.6	1256914	WORD	n/a	wordpools/wordpool_EN.txt	SQUARE	10	10	[0, 0, 0]	n/a	FR1	0	R1102P
1079.606	1.6	1258139	WORD	n/a	wordpools/wordpool_EN.txt	PRINCE	11	10	[0, 0, 0]	n/a	FR1	0	R1102P
1082.007	1.6	1259340	WORD	n/a	wordpools/wordpool_EN.txt	HOOF	12	10	[0, 0, 0]	n/a	FR1	0	R1102P
1083.624	0.0	1260148	DISTRACT_START	n/a	n/a	n/a	-999	10	[0, 0, 0]	n/a	FR1	0	R1102P
1083.624	0.016	1260148	START	n/a	n/a	n/a	-999	10	[-999, -999, -999]	n/a	FR1	0	R1102P
1083.64	7.502	1260156	PROB	7.467	n/a	n/a	-999	10	[2, 7, 7]	16.0	FR1	0	R1102P
1091.142	5.635	1263907	PROB	5.606	n/a	n/a	-999	10	[2, 7, 4]	13.0	FR1	0	R1102P
1096.777	3.984	1266724	PROB	3.963	n/a	n/a	-999	10	[9, 1, 9]	19.0	FR1	0	R1102P
1100.761	6.578	1268716	PROB	6.578	n/a	n/a	-999	10	[5, 7, 6]	18.0	FR1	0	R1102P
1107.339	0.006	1272005	STOP	n/a	n/a	n/a	-999	10	[-999, -999, -999]	n/a	FR1	0	R1102P
1107.345	1.1	1272008	DISTRACT_END	n/a	n/a	n/a	-999	10	[0, 0, 0]	n/a	FR1	0	R1102P
1108.445	4.808	1272558	REC_START	n/a	n/a	n/a	-999	10	[0, 0, 0]	n/a	FR1	0	R1102P
1113.253	1.593	1274962	REC_WORD_VV	4.808	n/a	<>	-999	10	[0, 0, 0]	n/a	FR1	0	R1102P
1114.846	1.905	1275758	REC_WORD	6.401	n/a	PET	-999	10	[0, 0, 0]	n/a	FR1	0	R1102P
1116.751	0.886	1276711	REC_WORD	8.306	n/a	KEY	-999	10	[0, 0, 0]	n/a	FR1	0	R1102P
1117.637	20.822	1277154	REC_WORD	9.192	n/a	HOOF	12	10	[0, 0, 0]	n/a	FR1	0	R1102P
1138.459	2.475	1287564	REC_END	n/a	n/a	n/a	-999	10	[0, 0, 0]	n/a	FR1	0	R1102P
1140.934	0.0	1288801	TRIAL	n/a	n/a	n/a	-999	11	[0, 0, 0]	n/a	FR1	0	R1102P
1140.934	10.0	1288801	COUNTDOWN_START	n/a	n/a	n/a	-999	11	[0, 0, 0]	n/a	FR1	0	R1102P
1151.362	0.008	1294015	COUNTDOWN_END	n/a	n/a	n/a	-999	11	[0, 0, 0]	n/a	FR1	0	R1102P
1151.37	1.6	1294019	ORIENT	n/a	n/a	n/a	-999	11	[0, 0, 0]	n/a	FR1	0	R1102P
1153.904	1.6	1295286	WORD	n/a	wordpools/wordpool_EN.txt	OAK	1	11	[0, 0, 0]	n/a	FR1	0	R1102P
1156.504	1.6	1296586	WORD	n/a	wordpools/wordpool_EN.txt	CUP	2	11	[0, 0, 0]	n/a	FR1	0	R1102P
1158.921	1.6	1297795	WORD	n/a	wordpools/wordpool_EN.txt	MUG	3	11	[0, 0, 0]	n/a	FR1	0	R1102P
1161.338	1.6	1299003	WORD	n/a	wordpools/wordpool_EN.txt	SHELL	4	11	[0, 0, 0]	n/a	FR1	0	R1102P
1163.939	1.6	1300303	WORD	n/a	wordpools/wordpool_EN.txt	PASTE	5	11	[0, 0, 0]	n/a	FR1	0	R1102P
1166.406	1.6	1301537	WORD	n/a	wordpools/wordpool_EN.txt	EGG	6	11	[0, 0, 0]	n/a	FR1	0	R1102P
1168.79	1.6	1302729	WORD	n/a	wordpools/wordpool_EN.txt	WAND	7	11	[0, 0, 0]	n/a	FR1	0	R1102P
1171.39	1.6	1304029	WORD	n/a	wordpools/wordpool_EN.txt	SPOON	8	11	[0, 0, 0]	n/a	FR1	0	R1102P
1174.007	1.6	1305337	WORD	n/a	wordpools/wordpool_EN.txt	HEN	9	11	[0, 0, 0]	n/a	FR1	0	R1102P
1176.441	1.6	1306554	WORD	n/a	wordpools/wordpool_EN.txt	LAMB	10	11	[0, 0, 0]	n/a	FR1	0	R1102P
1179.058	1.6	1307862	WORD	n/a	wordpools/wordpool_EN.txt	WOOD	11	11	[0, 0, 0]	n/a	FR1	0	R1102P
1181.575	1.6	1309121	WORD	n/a	wordpools/wordpool_EN.txt	PEACH	12	11	[0, 0, 0]	n/a	FR1	0	R1102P
1183.192	0.001	1309929	DISTRACT_START	n/a	n/a	n/a	-999	11	[0, 0, 0]	n/a	FR1	0	R1102P
1183.193	0.016	1309930	START	n/a	n/a	n/a	-999	11	[-999, -999, -999]	n/a	FR1	0	R1102P
1183.209	10.068	1309938	PROB	10.042	n/a	n/a	-999	11	[8, 8, 5]	22.0	FR1	0	R1102P
1193.277	22.358	1314972	PROB	22.358	n/a	n/a	-999	11	[1, 6, 8]	15.0	FR1	0	R1102P
1215.635	0.014	1326150	STOP	n/a	n/a	n/a	-999	11	[-999, -999, -999]	n/a	FR1	0	R1102P
1215.649	1.168	1326157	DISTRACT_END	n/a	n/a	n/a	-999	11	[0, 0, 0]	n/a	FR1	0	R1102P
1216.817	5.86	1326741	REC_START	n/a	n/a	n/a	-999	11	[0, 0, 0]	n/a	FR1	0	R1102P
1222.677	1.29	1329671	REC_WORD	5.86	n/a	OAK	1	11	[0, 0, 0]	n/a	FR1	0	R1102P
1223.967	2.4	1330316	REC_WORD	7.15	n/a	EGG	6	11	[0, 0, 0]	n/a	FR1	0	R1102P
1226.367	5.704	1331516	REC_WORD	9.55	n/a	PASTE	5	11	[0, 0, 0]	n/a	FR1	0	R1102P
1232.071	14.591	1334368	REC_WORD	15.254	n/a	SPOON	8	11	[0, 0, 0]	n/a	FR1	0	R1102P
1246.662	0.165	1341663	REC_WORD_VV	29.845	n/a	<>	-999	11	[0, 0, 0]	n/a	FR1	0	R1102P
1246.827	4.394	1341745	REC_END	n/a	n/a	n/a	-999	11	[0, 0, 0]	n/a	FR1	0	R1102P
1251.221	0.0	1343942	TRIAL	n/a	n/a	n/a	-999	12	[0, 0, 0]	n/a	FR1	0	R1102P
1251.221	10.0	1343942	COUNTDOWN_START	n/a	n/a	n/a	-999	12	[0, 0, 0]	n/a	FR1	0	R1102P
1261.649	0.009	1349156	COUNTDOWN_END	n/a	n/a	n/a	-999	12	[0, 0, 0]	n/a	FR1	0	R1102P
1261.658	1.6	1349160	ORIENT	n/a	n/a	n/a	-999	12	[0, 0, 0]	n/a	FR1	0	R1102P
1264.057	1.6	1350360	WORD	n/a	wordpools/wordpool_EN.txt	THUMB	1	12	[0, 0, 0]	n/a	FR1	0	R1102P
1266.591	1.6	1351627	WORD	n/a	wordpools/wordpool_EN.txt	SLEEVE	2	12	[0, 0, 0]	n/a	FR1	0	R1102P
1269.075	1.6	1352869	WORD	n/a	wordpools/wordpool_EN.txt	FROG	3	12	[0, 0, 0]	n/a	FR1	0	R1102P
1271.509	1.6	1354086	WORD	n/a	wordpools/wordpool_EN.txt	SUIT	4	12	[0, 0, 0]	n/a	FR1	0	R1102P
1273.942	1.6	1355302	WORD	n/a	wordpools/wordpool_EN.txt	BOARD	5	12	[0, 0, 0]	n/a	FR1	0	R1102P
1276.376	1.6	1356519	WORD	n/a	wordpools/wordpool_EN.txt	BRUSH	6	12	[0, 0, 0]	n/a	FR1	0	R1102P
1278.927	1.6	1357794	WORD	n/a	wordpools/wordpool_EN.txt	PIPE	7	12	[0, 0, 0]	n/a	FR1	0	R1102P
1281.527	1.6	1359094	WORD	n/a	wordpools/wordpool_EN.txt	NAIL	8	12	[0, 0, 0]	n/a	FR1	0	R1102P
1283.928	1.6	1360295	WORD	n/a	wordpools/wordpool_EN.txt	PURSE	9	12	[0, 0, 0]	n/a	FR1	0	R1102P
1286.428	1.6	1361545	WORD	n/a	wordpools/wordpool_EN.txt	FORK	10	12	[0, 0, 0]	n/a	FR1	0	R1102P
1288.928	1.6	1362795	WORD	n/a	wordpools/wordpool_EN.txt	BENCH	11	12	[0, 0, 0]	n/a	FR1	0	R1102P
1291.496	1.6	1364079	WORD	n/a	wordpools/wordpool_EN.txt	SINK	12	12	[0, 0, 0]	n/a	FR1	0	R1102P
1293.113	0.001	1364887	DISTRACT_START	n/a	n/a	n/a	-999	12	[0, 0, 0]	n/a	FR1	0	R1102P
1293.114	0.015	1364887	START	n/a	n/a	n/a	-999	12	[-999, -999, -999]	n/a	FR1	0	R1102P
1293.129	7.118	1364895	PROB	7.09	n/a	n/a	-999	12	[6, 3, 1]	10.0	FR1	0	R1102P
1300.247	7.135	1368454	PROB	7.107	n/a	n/a	-999	12	[8, 1, 5]	14.0	FR1	0	R1102P
1307.382	5.485	1372021	PROB	5.462	n/a	n/a	-999	12	[3, 5, 1]	9.0	FR1	0	R1102P
1312.867	7.2	1374763	PROB	7.2	n/a	n/a	-999	12	[7, 7, 9]	23.0	FR1	0	R1102P
1320.067	0.018	1378363	STOP	n/a	n/a	n/a	-999	12	[-999, -999, -999]	n/a	FR1	0	R1102P
1320.085	1.184	1378372	DISTRACT_END	n/a	n/a	n/a	-999	12	[0, 0, 0]	n/a	FR1	0	R1102P
1321.269	6.028	1378964	REC_START	n/a	n/a	n/a	-999	12	[0, 0, 0]	n/a	FR1	0	R1102P
1327.297	0.714	1381978	REC_WORD	6.028	n/a	BOARD	5	12	[0, 0, 0]	n/a	FR1	0	R1102P
1328.011	1.059	1382335	REC_WORD	6.742	n/a	PURSE	9	12	[0, 0, 0]	n/a	FR1	0	R1102P
1329.07	7.128	1382865	REC_WORD_VV	7.801	n/a	<>	-999	12	[0, 0, 0]	n/a	FR1	0	R1102P
1336.198	15.081	1386428	REC_WORD_VV	14.929	n/a	<>	-999	12	[0, 0, 0]	n/a	FR1	0	R1102P
1351.279	2.795	1393968	REC_END	n/a	n/a	n/a	-999	12	[0, 0, 0]	n/a	FR1	0	R1102P
1354.074	10.0	1395366	COUNTDOWN_START	n/a	n/a	n/a	-999	13	[0, 0, 0]	n/a	FR1	0	R1102P
1354.074	10.428	1395366	TRIAL	n/a	n/a	n/a	-999	13	[0, 0, 0]	n/a	FR1	0	R1102P
1364.502	0.007	1400580	COUNTDOWN_END	n/a	n/a	n/a	-999	13	[0, 0, 0]	n/a	FR1	0	R1102P
1364.509	1.6	1400583	ORIENT	n/a	n/a	n/a	-999	13	[0, 0, 0]	n/a	FR1	0	R1102P
1367.077	1.6	1401867	WORD	n/a	wordpools/wordpool_EN.txt	GATE	1	13	[0, 0, 0]	n/a	FR1	0	R1102P
1369.494	1.6	1403075	WORD	n/a	wordpools/wordpool_EN.txt	HILL	2	13	[0, 0, 0]	n/a	FR1	0	R1102P
1372.094	1.6	1404375	WORD	n/a	wordpools/wordpool_EN.txt	MULE	3	13	[0, 0, 0]	n/a	FR1	0	R1102P
1374.578	1.6	1405617	WORD	n/a	wordpools/wordpool_EN.txt	NEST	4	13	[0, 0, 0]	n/a	FR1	0	R1102P
1377.112	1.6	1406884	WORD	n/a	wordpools/wordpool_EN.txt	DOG	5	13	[0, 0, 0]	n/a	FR1	0	R1102P
1379.512	1.6	1408084	WORD	n/a	wordpools/wordpool_EN.txt	GEESE	6	13	[0, 0, 0]	n/a	FR1	0	R1102P
1381.979	1.6	1409318	WORD	n/a	wordpools/wordpool_EN.txt	CHIEF	7	13	[0, 0, 0]	n/a	FR1	0	R1102P
1384.43	1.6	1410543	WORD	n/a	wordpools/wordpool_EN.txt	EEL	8	13	[0, 0, 0]	n/a	FR1	0	R1102P
1386.98	1.6	1411818	WORD	n/a	wordpools/wordpool_EN.txt	GOAT	9	13	[0, 0, 0]	n/a	FR1	0	R1102P
1389.431	1.6	1413043	WORD	n/a	wordpools/wordpool_EN.txt	SKY	10	13	[0, 0, 0]	n/a	FR1	0	R1102P
1392.014	1.6	1414335	WORD	n/a	wordpools/wordpool_EN.txt	DUCK	11	13	[0, 0, 0]	n/a	FR1	0	R1102P
1394.465	1.6	1415560	WORD	n/a	wordpools/wordpool_EN.txt	SWORD	12	13	[0, 0, 0]	n/a	FR1	0	R1102P
1396.082	0.001	1416369	DISTRACT_START	n/a	n/a	n/a	-999	13	[0, 0, 0]	n/a	FR1	0	R1102P
1396.083	0.016	1416369	START	n/a	n/a	n/a	-999	13	[-999, -999, -999]	n/a	FR1	0	R1102P
1396.099	7.602	1416377	PROB	7.576	n/a	n/a	-999	13	[8, 2, 9]	19.0	FR1	0	R1102P
1403.701	6.085	1420178	PROB	6.063	n/a	n/a	-999	13	[2, 1, 8]	11.0	FR1	0	R1102P
1409.786	7.761	1423220	PROB	7.761	n/a	n/a	-999	13	[3, 4, 6]	13.0	FR1	0	R1102P
1417.547	0.006	1427101	STOP	n/a	n/a	n/a	-999	13	[-999, -999, -999]	n/a	FR1	0	R1102P
1417.553	1.218	1427104	DISTRACT_END	n/a	n/a	n/a	-999	13	[0, 0, 0]	n/a	FR1	0	R1102P
1418.771	4.269	1427713	REC_START	n/a	n/a	n/a	-999	13	[0, 0, 0]	n/a	FR1	0	R1102P
1423.04	0.933	1429847	REC_WORD	4.269	n/a	GATE	1	13	[0, 0, 0]	n/a	FR1	0	R1102P
1423.973	0.909	1430314	REC_WORD	5.202	n/a	GEESE	6	13	[0, 0, 0]	n/a	FR1	0	R1102P
1424.882	1.221	1430768	REC_WORD	6.111	n/a	EEL	8	13	[0, 0, 0]	n/a	FR1	0	R1102P
1426.103	22.68	1431378	REC_WORD	7.332	n/a	GOAT	9	13	[0, 0, 0]	n/a	FR1	0	R1102P
1448.783	6.677	1442718	REC_END	n/a	n/a	n/a	-999	13	[0, 0, 0]	n/a	FR1	0	R1102P
1455.46	0.0	1446056	TRIAL	n/a	n/a	n/a	-999	14	[0, 0, 0]	n/a	FR1	0	R1102P
1455.46	10.0	1446056	COUNTDOWN_START	n/a	n/a	n/a	-999	14	[0, 0, 0]	n/a	FR1	0	R1102P
1465.888	0.008	1451270	COUNTDOWN_END	n/a	n/a	n/a	-999	14	[0, 0, 0]	n/a	FR1	0	R1102P
1465.896	1.6	1451274	ORIENT	n/a	n/a	n/a	-999	14	[0, 0, 0]	n/a	FR1	0	R1102P
1468.279	1.6	1452465	WORD	n/a	wordpools/wordpool_EN.txt	SOAP	1	14	[0, 0, 0]	n/a	FR1	0	R1102P
1470.747	1.6	1453699	WORD	n/a	wordpools/wordpool_EN.txt	PALM	2	14	[0, 0, 0]	n/a	FR1	0	R1102P
1473.196	1.6	1454924	WORD	n/a	wordpools/wordpool_EN.txt	CANE	3	14	[0, 0, 0]	n/a	FR1	0	R1102P
1475.648	1.6	1456150	WORD	n/a	wordpools/wordpool_EN.txt	JAR	4	14	[0, 0, 0]	n/a	FR1	0	R1102P
1478.131	1.6	1457391	WORD	n/a	wordpools/wordpool_EN.txt	POOL	5	14	[0, 0, 0]	n/a	FR1	0	R1102P
1480.615	1.6	1458633	WORD	n/a	wordpools/wordpool_EN.txt	TOAST	6	14	[0, 0, 0]	n/a	FR1	0	R1102P
1482.998	1.6	1459824	WORD	n/a	wordpools/wordpool_EN.txt	VASE	7	14	[0, 0, 0]	n/a	FR1	0	R1102P
1485.482	1.6	1461066	WORD	n/a	wordpools/wordpool_EN.txt	TRAY	8	14	[0, 0, 0]	n/a	FR1	0	R1102P
1488.066	1.6	1462358	WORD	n/a	wordpools/wordpool_EN.txt	COUCH	9	14	[0, 0, 0]	n/a	FR1	0	R1102P
1490.651	1.6	1463651	WORD	n/a	wordpools/wordpool_EN.txt	HOUSE	10	14	[0, 0, 0]	n/a	FR1	0	R1102P
1493.117	1.6	1464884	WORD	n/a	wordpools/wordpool_EN.txt	CUBE	11	14	[0, 0, 0]	n/a	FR1	0	R1102P
1495.601	1.6	1466126	WORD	n/a	wordpools/wordpool_EN.txt	VAN	12	14	[0, 0, 0]	n/a	FR1	0	R1102P
1497.218	0.0	1466934	DISTRACT_START	n/a	n/a	n/a	-999	14	[0, 0, 0]	n/a	FR1	0	R1102P
1497.218	0.016	1466934	START	n/a	n/a	n/a	-999	14	[-999, -999, -999]	n/a	FR1	0	R1102P
1497.234	7.002	1466942	PROB	6.977	n/a	n/a	-999	14	[4, 6, 6]	16.0	FR1	0	R1102P
1504.236	8.351	1470443	PROB	8.319	n/a	n/a	-999	14	[6, 7, 4]	17.0	FR1	0	R1102P
1512.587	5.281	1474618	PROB	5.281	n/a	n/a	-999	14	[2, 7, 5]	14.0	FR1	0	R1102P
1517.868	0.004	1477259	STOP	n/a	n/a	n/a	-999	14	[-999, -999, -999]	n/a	FR1	0	R1102P
1517.872	1.2	1477261	DISTRACT_END	n/a	n/a	n/a	-999	14	[0, 0, 0]	n/a	FR1	0	R1102P
1519.072	4.187	1477861	REC_START	n/a	n/a	n/a	-999	14	[0, 0, 0]	n/a	FR1	0	R1102P
1523.259	1.377	1479954	REC_WORD	4.187	n/a	SOAP	1	14	[0, 0, 0]	n/a	FR1	0	R1102P
1524.636	0.552	1480642	REC_WORD	5.564	n/a	SOAP	1	14	[0, 0, 0]	n/a	FR1	0	R1102P
1525.188	2.228	1480918	REC_WORD	6.116	n/a	PALM	2	14	[0, 0, 0]	n/a	FR1	0	R1102P
1527.416	0.45	1482032	REC_WORD_VV	8.344	n/a	<>	-999	14	[0, 0, 0]	n/a	FR1	0	R1102P
1527.866	8.966	1482257	REC_WORD	8.794	n/a	HOUSE	10	14	[0, 0, 0]	n/a	FR1	0	R1102P
1536.832	12.254	1486740	REC_WORD	17.76	n/a	CUBE	11	14	[0, 0, 0]	n/a	FR1	0	R1102P
1549.086	2.492	1492867	REC_END	n/a	n/a	n/a	-999	14	[0, 0, 0]	n/a	FR1	0	R1102P
1551.578	10.0	1494113	COUNTDOWN_START	n/a	n/a	n/a	-999	15	[0, 0, 0]	n/a	FR1	0	R1102P
1551.578	10.428	1494113	TRIAL	n/a	n/a	n/a	-999	15	[0, 0, 0]	n/a	FR1	0	R1102P
1562.006	0.007	1499326	COUNTDOWN_END	n/a	n/a	n/a	-999	15	[0, 0, 0]	n/a	FR1	0	R1102P
1562.013	1.6	1499330	ORIENT	n/a	n/a	n/a	-999	15	[0, 0, 0]	n/a	FR1	0	R1102P
1564.514	1.6	1500580	WORD	n/a	wordpools/wordpool_EN.txt	PHONE	1	15	[0, 0, 0]	n/a	FR1	0	R1102P
1567.014	1.6	1501830	WORD	n/a	wordpools/wordpool_EN.txt	GRAPE	2	15	[0, 0, 0]	n/a	FR1	0	R1102P
1569.498	1.6	1503072	WORD	n/a	wordpools/wordpool_EN.txt	KITE	3	15	[0, 0, 0]	n/a	FR1	0	R1102P
1571.965	1.6	1504306	WORD	n/a	wordpools/wordpool_EN.txt	CONE	4	15	[0, 0, 0]	n/a	FR1	0	R1102P
1574.382	1.6	1505514	WORD	n/a	wordpools/wordpool_EN.txt	LOCK	5	15	[0, 0, 0]	n/a	FR1	0	R1102P
1576.999	1.6	1506822	WORD	n/a	wordpools/wordpool_EN.txt	MILK	6	15	[0, 0, 0]	n/a	FR1	0	R1102P
1579.433	1.6	1508039	WORD	n/a	wordpools/wordpool_EN.txt	MOUSE	7	15	[0, 0, 0]	n/a	FR1	0	R1102P
1581.95	1.6	1509298	WORD	n/a	wordpools/wordpool_EN.txt	CROWN	8	15	[0, 0, 0]	n/a	FR1	0	R1102P
1584.501	1.6	1510573	WORD	n/a	wordpools/wordpool_EN.txt	PEAR	9	15	[0, 0, 0]	n/a	FR1	0	R1102P
1586.885	1.6	1511765	WORD	n/a	wordpools/wordpool_EN.txt	SNAKE	10	15	[0, 0, 0]	n/a	FR1	0	R1102P
1589.452	1.6	1513049	WORD	n/a	wordpools/wordpool_EN.txt	SHOE	11	15	[0, 0, 0]	n/a	FR1	0	R1102P
1591.87	1.6	1514258	WORD	n/a	wordpools/wordpool_EN.txt	PEARL	12	15	[0, 0, 0]	n/a	FR1	0	R1102P
1593.486	0.001	1515066	DISTRACT_START	n/a	n/a	n/a	-999	15	[0, 0, 0]	n/a	FR1	0	R1102P
1593.487	0.015	1515066	START	n/a	n/a	n/a	-999	15	[-999, -999, -999]	n/a	FR1	0	R1102P
1593.502	8.052	1515074	PROB	8.021	n/a	n/a	-999	15	[3, 3, 4]	10.0	FR1	0	R1102P
1601.554	3.867	1519099	PROB	3.833	n/a	n/a	-999	15	[7, 3, 2]	12.0	FR1	0	R1102P
1605.421	5.286	1521033	PROB	5.263	n/a	n/a	-999	15	[7, 7, 8]	22.0	FR1	0	R1102P
1610.707	6.985	1523676	PROB	6.985	n/a	n/a	-999	15	[4, 7, 6]	17.0	FR1	0	R1102P
1617.692	0.016	1527168	STOP	n/a	n/a	n/a	-999	15	[-999, -999, -999]	n/a	FR1	0	R1102P
1617.708	1.134	1527176	DISTRACT_END	n/a	n/a	n/a	-999	15	[0, 0, 0]	n/a	FR1	0	R1102P
1618.842	6.538	1527743	REC_START	n/a	n/a	n/a	-999	15	[0, 0, 0]	n/a	FR1	0	R1102P
1625.38	0.707	1531012	REC_WORD	6.538	n/a	MILK	6	15	[0, 0, 0]	n/a	FR1	0	R1102P
1626.087	12.378	1531365	REC_WORD	7.245	n/a	MOUSE	7	15	[0, 0, 0]	n/a	FR1	0	R1102P
1638.465	10.387	1537554	REC_WORD_VV	19.623	n/a	<>	-999	15	[0, 0, 0]	n/a	FR1	0	R1102P
1648.852	2.912	1542747	REC_END	n/a	n/a	n/a	-999	15	[0, 0, 0]	n/a	FR1	0	R1102P
1651.764	10.0	1544203	COUNTDOWN_START	n/a	n/a	n/a	-999	16	[0, 0, 0]	n/a	FR1	0	R1102P
1651.765	10.427	1544204	TRIAL	n/a	n/a	n/a	-999	16	[0, 0, 0]	n/a	FR1	0	R1102P
1662.192	0.007	1549417	COUNTDOWN_END	n/a	n/a	n/a	-999	16	[0, 0, 0]	n/a	FR1	0	R1102P
1662.199	1.6	1549420	ORIENT	n/a	n/a	n/a	-999	16	[0, 0, 0]	n/a	FR1	0	R1102P
1664.599	1.6	1550620	WORD	n/a	wordpools/wordpool_EN.txt	LAND	1	16	[0, 0, 0]	n/a	FR1	0	R1102P
1667.099	1.6	1551870	WORD	n/a	wordpools/wordpool_EN.txt	LAKE	2	16	[0, 0, 0]	n/a	FR1	0	R1102P
1669.583	1.6	1553112	WORD	n/a	wordpools/wordpool_EN.txt	FARM	3	16	[0, 0, 0]	n/a	FR1	0	R1102P
1671.967	1.6	1554304	WORD	n/a	wordpools/wordpool_EN.txt	TOY	4	16	[0, 0, 0]	n/a	FR1	0	R1102P
1674.351	1.6	1555496	WORD	n/a	wordpools/wordpool_EN.txt	ZOO	5	16	[0, 0, 0]	n/a	FR1	0	R1102P
1676.802	1.6	1556721	WORD	n/a	wordpools/wordpool_EN.txt	TEA	6	16	[0, 0, 0]	n/a	FR1	0	R1102P
1679.318	1.6	1557979	WORD	n/a	wordpools/wordpool_EN.txt	HEART	7	16	[0, 0, 0]	n/a	FR1	0	R1102P
1681.703	1.6	1559172	WORD	n/a	wordpools/wordpool_EN.txt	CAT	8	16	[0, 0, 0]	n/a	FR1	0	R1102P
1684.269	1.6	1560455	WORD	n/a	wordpools/wordpool_EN.txt	BRIDGE	9	16	[0, 0, 0]	n/a	FR1	0	R1102P
1686.837	1.6	1561739	WORD	n/a	wordpools/wordpool_EN.txt	SHRIMP	10	16	[0, 0, 0]	n/a	FR1	0	R1102P
1689.237	1.6	1562939	WORD	n/a	wordpools/wordpool_EN.txt	FORT	11	16	[0, 0, 0]	n/a	FR1	0	R1102P
1691.772	1.6	1564206	WORD	n/a	wordpools/wordpool_EN.txt	GOLD	12	16	[0, 0, 0]	n/a	FR1	0	R1102P
1693.388	0.001	1565014	DISTRACT_START	n/a	n/a	n/a	-999	16	[0, 0, 0]	n/a	FR1	0	R1102P
1693.389	0.015	1565014	START	n/a	n/a	n/a	-999	16	[-999, -999, -999]	n/a	FR1	0	R1102P
1693.404	9.202	1565022	PROB	9.175	n/a	n/a	-999	16	[8, 3, 9]	20.0	FR1	0	R1102P
1702.606	5.884	1569623	PROB	5.852	n/a	n/a	-999	16	[4, 7, 5]	16.0	FR1	0	R1102P
1708.49	6.735	1572565	PROB	6.735	n/a	n/a	-999	16	[2, 7, 3]	12.0	FR1	0	R1102P
1715.225	0.017	1575932	STOP	n/a	n/a	n/a	-999	16	[-999, -999, -999]	n/a	FR1	0	R1102P
1715.242	1.051	1575940	DISTRACT_END	n/a	n/a	n/a	-999	16	[0, 0, 0]	n/a	FR1	0	R1102P
1716.293	4.578	1576466	REC_START	n/a	n/a	n/a	-999	16	[0, 0, 0]	n/a	FR1	0	R1102P
1720.871	0.83	1578755	REC_WORD	4.578	n/a	LAND	1	16	[0, 0, 0]	n/a	FR1	0	R1102P
1721.701	0.402	1579170	REC_WORD	5.408	n/a	LAKE	2	16	[0, 0, 0]	n/a	FR1	0	R1102P
1722.103	1.133	1579371	REC_WORD	5.81	n/a	HEART	7	16	[0, 0, 0]	n/a	FR1	0	R1102P
1723.236	2.142	1579937	REC_WORD	6.943	n/a	ZOO	5	16	[0, 0, 0]	n/a	FR1	0	R1102P
1725.378	20.925	1581008	REC_WORD	9.085	n/a	BRIDGE	9	16	[0, 0, 0]	n/a	FR1	0	R1102P
1746.303	2.912	1591470	REC_END	n/a	n/a	n/a	-999	16	[0, 0, 0]	n/a	FR1	0	R1102P
1749.215	0.0	1592926	TRIAL	n/a	n/a	n/a	-999	17	[0, 0, 0]	n/a	FR1	0	R1102P
1749.215	10.0	1592926	COUNTDOWN_START	n/a	n/a	n/a	-999	17	[0, 0, 0]	n/a	FR1	0	R1102P
1759.643	0.008	1598140	COUNTDOWN_END	n/a	n/a	n/a	-999	17	[0, 0, 0]	n/a	FR1	0	R1102P
1759.651	1.6	1598144	ORIENT	n/a	n/a	n/a	-999	17	[0, 0, 0]	n/a	FR1	0	R1102P
1762.234	1.6	1599435	WORD	n/a	wordpools/wordpool_EN.txt	MAP	1	17	[0, 0, 0]	n/a	FR1	0	R1102P
1764.785	1.6	1600711	WORD	n/a	wordpools/wordpool_EN.txt	BEAR	2	17	[0, 0, 0]	n/a	FR1	0	R1102P
1767.352	1.6	1601994	WORD	n/a	wordpools/wordpool_EN.txt	STEM	3	17	[0, 0, 0]	n/a	FR1	0	R1102P
1769.969	1.6	1603302	WORD	n/a	wordpools/wordpool_EN.txt	POLE	4	17	[0, 0, 0]	n/a	FR1	0	R1102P
1772.369	1.6	1604502	WORD	n/a	wordpools/wordpool_EN.txt	TOOTH	5	17	[0, 0, 0]	n/a	FR1	0	R1102P
1774.771	1.6	1605703	WORD	n/a	wordpools/wordpool_EN.txt	INK	6	17	[0, 0, 0]	n/a	FR1	0	R1102P
1777.237	1.6	1606936	WORD	n/a	wordpools/wordpool_EN.txt	TEETH	7	17	[0, 0, 0]	n/a	FR1	0	R1102P
1779.805	1.6	1608220	WORD	n/a	wordpools/wordpool_EN.txt	SLIME	8	17	[0, 0, 0]	n/a	FR1	0	R1102P
1782.321	1.6	1609478	WORD	n/a	wordpools/wordpool_EN.txt	SALT	9	17	[0, 0, 0]	n/a	FR1	0	R1102P
1784.756	1.6	1610695	WORD	n/a	wordpools/wordpool_EN.txt	ROOT	10	17	[0, 0, 0]	n/a	FR1	0	R1102P
1787.205	1.6	1611920	WORD	n/a	wordpools/wordpool_EN.txt	WHEEL	11	17	[0, 0, 0]	n/a	FR1	0	R1102P
1789.707	1.6	1613171	WORD	n/a	wordpools/wordpool_EN.txt	BANK	12	17	[0, 0, 0]	n/a	FR1	0	R1102P
1791.323	0.001	1613979	DISTRACT_START	n/a	n/a	n/a	-999	17	[0, 0, 0]	n/a	FR1	0	R1102P
1791.324	0.015	1613979	START	n/a	n/a	n/a	-999	17	[-999, -999, -999]	n/a	FR1	0	R1102P
1791.339	7.403	1613987	PROB	7.369	n/a	n/a	-999	17	[1, 4, 8]	13.0	FR1	0	R1102P
1798.742	8.884	1617688	PROB	8.853	n/a	n/a	-999	17	[1, 2, 7]	10.0	FR1	0	R1102P
1807.626	3.776	1622130	PROB	3.776	n/a	n/a	-999	17	[2, 2, 7]	11.0	FR1	0	R1102P
1811.402	0.008	1624018	STOP	n/a	n/a	n/a	-999	17	[-999, -999, -999]	n/a	FR1	0	R1102P
1811.41	1.034	1624022	DISTRACT_END	n/a	n/a	n/a	-999	17	[0, 0, 0]	n/a	FR1	0	R1102P
1812.444	3.964	1624539	REC_START	n/a	n/a	n/a	-999	17	[0, 0, 0]	n/a	FR1	0	R1102P
1816.408	1.956	1626521	REC_WORD_VV	3.964	n/a	<>	-999	17	[0, 0, 0]	n/a	FR1	0	R1102P
1818.364	1.406	1627499	REC_WORD	5.92	n/a	MAP	1	17	[0, 0, 0]	n/a	FR1	0	R1102P
1819.77	2.492	1628202	REC_WORD	7.326	n/a	BEAR	2	17	[0, 0, 0]	n/a	FR1	0	R1102P
1822.262	1.833	1629448	REC_WORD	9.818	n/a	TOOTH	5	17	[0, 0, 0]	n/a	FR1	0	R1102P
1824.095	1.967	1630364	REC_WORD	11.651	n/a	SALT	9	17	[0, 0, 0]	n/a	FR1	0	R1102P
1826.062	16.392	1631347	REC_WORD	13.618	n/a	SALT	9	17	[0, 0, 0]	n/a	FR1	0	R1102P
1842.454	5.896	1639543	REC_END	n/a	n/a	n/a	-999	17	[0, 0, 0]	n/a	FR1	0	R1102P
1848.35	0.0	1642491	TRIAL	n/a	n/a	n/a	-999	18	[0, 0, 0]	n/a	FR1	0	R1102P
1848.35	10.0	1642491	COUNTDOWN_START	n/a	n/a	n/a	-999	18	[0, 0, 0]	n/a	FR1	0	R1102P
1858.778	0.008	1647705	COUNTDOWN_END	n/a	n/a	n/a	-999	18	[0, 0, 0]	n/a	FR1	0	R1102P
1858.786	1.6	1647709	ORIENT	n/a	n/a	n/a	-999	18	[0, 0, 0]	n/a	FR1	0	R1102P
1861.286	1.6	1648958	WORD	n/a	wordpools/wordpool_EN.txt	COIN	1	18	[0, 0, 0]	n/a	FR1	0	R1102P
1863.804	1.6	1650217	WORD	n/a	wordpools/wordpool_EN.txt	WALL	2	18	[0, 0, 0]	n/a	FR1	0	R1102P
1866.253	1.6	1651442	WORD	n/a	wordpools/wordpool_EN.txt	GLOVE	3	18	[0, 0, 0]	n/a	FR1	0	R1102P
1868.821	1.6	1652726	WORD	n/a	wordpools/wordpool_EN.txt	SHIELD	4	18	[0, 0, 0]	n/a	FR1	0	R1102P
1871.254	1.6	1653942	WORD	n/a	wordpools/wordpool_EN.txt	SPARK	5	18	[0, 0, 0]	n/a	FR1	0	R1102P
1873.673	1.6	1655152	WORD	n/a	wordpools/wordpool_EN.txt	RAIN	6	18	[0, 0, 0]	n/a	FR1	0	R1102P
1876.139	1.6	1656385	WORD	n/a	wordpools/wordpool_EN.txt	SPONGE	7	18	[0, 0, 0]	n/a	FR1	0	R1102P
1878.673	1.6	1657652	WORD	n/a	wordpools/wordpool_EN.txt	BOX	8	18	[0, 0, 0]	n/a	FR1	0	R1102P
1881.206	1.6	1658918	WORD	n/a	wordpools/wordpool_EN.txt	HOOK	9	18	[0, 0, 0]	n/a	FR1	0	R1102P
1883.708	1.6	1660169	WORD	n/a	wordpools/wordpool_EN.txt	BALL	10	18	[0, 0, 0]	n/a	FR1	0	R1102P
1886.207	1.6	1661418	WORD	n/a	wordpools/wordpool_EN.txt	ELF	11	18	[0, 0, 0]	n/a	FR1	0	R1102P
1888.675	1.6	1662652	WORD	n/a	wordpools/wordpool_EN.txt	HOSE	12	18	[0, 0, 0]	n/a	FR1	0	R1102P
1890.291	0.001	1663460	DISTRACT_START	n/a	n/a	n/a	-999	18	[0, 0, 0]	n/a	FR1	0	R1102P
1890.292	0.016	1663461	START	n/a	n/a	n/a	-999	18	[-999, -999, -999]	n/a	FR1	0	R1102P
1890.308	5.284	1663469	PROB	5.254	n/a	n/a	-999	18	[1, 2, 1]	4.0	FR1	0	R1102P
1895.592	7.585	1666111	PROB	7.555	n/a	n/a	-999	18	[1, 2, 7]	10.0	FR1	0	R1102P
1903.177	4.735	1669903	PROB	4.707	n/a	n/a	-999	18	[2, 1, 2]	5.0	FR1	0	R1102P
1907.912	8.796	1672270	PROB	8.796	n/a	n/a	-999	18	[9, 8, 7]	24.0	FR1	0	R1102P
1916.708	0.006	1676668	STOP	n/a	n/a	n/a	-999	18	[-999, -999, -999]	n/a	FR1	0	R1102P
1916.714	1.101	1676671	DISTRACT_END	n/a	n/a	n/a	-999	18	[0, 0, 0]	n/a	FR1	0	R1102P
1917.815	2.902	1677221	REC_START	n/a	n/a	n/a	-999	18	[0, 0, 0]	n/a	FR1	0	R1102P
1920.717	0.682	1678672	REC_WORD_VV	2.902	n/a	<>	-999	18	[0, 0, 0]	n/a	FR1	0	R1102P
1921.399	3.485	1679013	REC_WORD	3.584	n/a	SPARK	5	18	[0, 0, 0]	n/a	FR1	0	R1102P
1924.884	1.834	1680756	REC_WORD_VV	7.069	n/a	<>	-999	18	[0, 0, 0]	n/a	FR1	0	R1102P
1926.718	0.648	1681673	REC_WORD	8.903	n/a	RAIN	6	18	[0, 0, 0]	n/a	FR1	0	R1102P
1927.366	1.0	1681997	REC_WORD	9.551	n/a	SPONGE	7	18	[0, 0, 0]	n/a	FR1	0	R1102P
1928.366	1.171	1682497	REC_WORD_VV	10.551	n/a	<>	-999	18	[0, 0, 0]	n/a	FR1	0	R1102P
1929.537	3.306	1683082	REC_WORD	11.722	n/a	BOX	8	18	[0, 0, 0]	n/a	FR1	0	R1102P
1932.843	7.938	1684735	REC_WORD	15.028	n/a	WALL	2	18	[0, 0, 0]	n/a	FR1	0	R1102P
1940.781	5.072	1688704	REC_WORD_VV	22.966	n/a	<>	-999	18	[0, 0, 0]	n/a	FR1	0	R1102P
1945.853	1.972	1691240	REC_WORD_VV	28.038	n/a	<>	-999	18	[0, 0, 0]	n/a	FR1	0	R1102P
1947.825	2.845	1692226	REC_END	n/a	n/a	n/a	-999	18	[0, 0, 0]	n/a	FR1	0	R1102P
1950.67	0.0	1693648	TRIAL	n/a	n/a	n/a	-999	19	[0, 0, 0]	n/a	FR1	0	R1102P
1950.67	10.0	1693648	COUNTDOWN_START	n/a	n/a	n/a	-999	19	[0, 0, 0]	n/a	FR1	0	R1102P
1961.098	0.007	1698862	COUNTDOWN_END	n/a	n/a	n/a	-999	19	[0, 0, 0]	n/a	FR1	0	R1102P
1961.105	1.6	1698865	ORIENT	n/a	n/a	n/a	-999	19	[0, 0, 0]	n/a	FR1	0	R1102P
1963.538	1.6	1700082	WORD	n/a	wordpools/wordpool_EN.txt	FLAME	1	19	[0, 0, 0]	n/a	FR1	0	R1102P
1966.105	1.6	1701365	WORD	n/a	wordpools/wordpool_EN.txt	SKI	2	19	[0, 0, 0]	n/a	FR1	0	R1102P
1968.623	1.6	1702624	WORD	n/a	wordpools/wordpool_EN.txt	PIN	3	19	[0, 0, 0]	n/a	FR1	0	R1102P
1971.156	1.6	1703891	WORD	n/a	wordpools/wordpool_EN.txt	APE	4	19	[0, 0, 0]	n/a	FR1	0	R1102P
1973.691	1.6	1705158	WORD	n/a	wordpools/wordpool_EN.txt	WAVE	5	19	[0, 0, 0]	n/a	FR1	0	R1102P
1976.257	1.6	1706441	WORD	n/a	wordpools/wordpool_EN.txt	BROOM	6	19	[0, 0, 0]	n/a	FR1	0	R1102P
1978.692	1.6	1707658	WORD	n/a	wordpools/wordpool_EN.txt	FUR	7	19	[0, 0, 0]	n/a	FR1	0	R1102P
1981.292	1.6	1708958	WORD	n/a	wordpools/wordpool_EN.txt	SNOW	8	19	[0, 0, 0]	n/a	FR1	0	R1102P
1983.793	1.6	1710209	WORD	n/a	wordpools/wordpool_EN.txt	FOG	9	19	[0, 0, 0]	n/a	FR1	0	R1102P
1986.192	1.6	1711408	WORD	n/a	wordpools/wordpool_EN.txt	BEACH	10	19	[0, 0, 0]	n/a	FR1	0	R1102P
1988.643	1.6	1712634	WORD	n/a	wordpools/wordpool_EN.txt	DRUM	11	19	[0, 0, 0]	n/a	FR1	0	R1102P
1991.043	1.6	1713834	WORD	n/a	wordpools/wordpool_EN.txt	LIP	12	19	[0, 0, 0]	n/a	FR1	0	R1102P
1992.661	0.001	1714643	DISTRACT_START	n/a	n/a	n/a	-999	19	[0, 0, 0]	n/a	FR1	0	R1102P
1992.662	0.016	1714643	START	n/a	n/a	n/a	-999	19	[-999, -999, -999]	n/a	FR1	0	R1102P
1992.678	16.585	1714651	PROB	16.565	n/a	n/a	-999	19	[9, 2, 2]	13.0	FR1	0	R1102P
2009.263	6.485	1722943	PROB	6.485	n/a	n/a	-999	19	[9, 2, 9]	20.0	FR1	0	R1102P
2015.748	0.018	1726185	STOP	n/a	n/a	n/a	-999	19	[-999, -999, -999]	n/a	FR1	0	R1102P
2015.766	1.034	1726194	DISTRACT_END	n/a	n/a	n/a	-999	19	[0, 0, 0]	n/a	FR1	0	R1102P
2016.8	5.197	1726711	REC_START	n/a	n/a	n/a	-999	19	[0, 0, 0]	n/a	FR1	0	R1102P
2021.997	1.108	1729310	REC_WORD	5.197	n/a	PIN	3	19	[0, 0, 0]	n/a	FR1	0	R1102P
2023.105	0.624	1729864	REC_WORD	6.305	n/a	APE	4	19	[0, 0, 0]	n/a	FR1	0	R1102P
2023.729	0.657	1730176	REC_WORD	6.929	n/a	SNOW	8	19	[0, 0, 0]	n/a	FR1	0	R1102P
2024.386	0.589	1730504	REC_WORD	7.586	n/a	FUR	7	19	[0, 0, 0]	n/a	FR1	0	R1102P
2024.975	3.258	1730799	REC_WORD	8.175	n/a	FOG	9	19	[0, 0, 0]	n/a	FR1	0	R1102P
2028.233	18.576	1732428	REC_WORD	11.433	n/a	BOOK	-999	19	[0, 0, 0]	n/a	FR1	0	R1102P
2046.809	3.346	1741715	REC_END	n/a	n/a	n/a	-999	19	[0, 0, 0]	n/a	FR1	0	R1102P
2050.155	0.0	1743388	TRIAL	n/a	n/a	n/a	-999	20	[0, 0, 0]	n/a	FR1	0	R1102P
2050.155	10.0	1743388	COUNTDOWN_START	n/a	n/a	n/a	-999	20	[0, 0, 0]	n/a	FR1	0	R1102P
2060.583	0.007	1748602	COUNTDOWN_END	n/a	n/a	n/a	-999	20	[0, 0, 0]	n/a	FR1	0	R1102P
2060.59	1.6	1748605	ORIENT	n/a	n/a	n/a	-999	20	[0, 0, 0]	n/a	FR1	0	R1102P
2063.09	1.6	1749855	WORD	n/a	wordpools/wordpool_EN.txt	SUN	1	20	[0, 0, 0]	n/a	FR1	0	R1102P
2065.692	1.6	1751156	WORD	n/a	wordpools/wordpool_EN.txt	CAPE	2	20	[0, 0, 0]	n/a	FR1	0	R1102P
2068.175	1.6	1752398	WORD	n/a	wordpools/wordpool_EN.txt	BATH	3	20	[0, 0, 0]	n/a	FR1	0	R1102P
2070.575	1.6	1753597	WORD	n/a	wordpools/wordpool_EN.txt	SAIL	4	20	[0, 0, 0]	n/a	FR1	0	R1102P
2073.109	1.6	1754864	WORD	n/a	wordpools/wordpool_EN.txt	LEG	5	20	[0, 0, 0]	n/a	FR1	0	R1102P
2075.727	1.6	1756173	WORD	n/a	wordpools/wordpool_EN.txt	ROSE	6	20	[0, 0, 0]	n/a	FR1	0	R1102P
2078.293	1.6	1757456	WORD	n/a	wordpools/wordpool_EN.txt	RUG	7	20	[0, 0, 0]	n/a	FR1	0	R1102P
2080.761	1.6	1758690	WORD	n/a	wordpools/wordpool_EN.txt	MOOSE	8	20	[0, 0, 0]	n/a	FR1	0	R1102P
2083.344	1.6	1759982	WORD	n/a	wordpools/wordpool_EN.txt	BOAT	9	20	[0, 0, 0]	n/a	FR1	0	R1102P
2085.945	1.6	1761282	WORD	n/a	wordpools/wordpool_EN.txt	ICE	10	20	[0, 0, 0]	n/a	FR1	0	R1102P
2088.378	1.6	1762498	WORD	n/a	wordpools/wordpool_EN.txt	CAKE	11	20	[0, 0, 0]	n/a	FR1	0	R1102P
2090.88	1.6	1763749	WORD	n/a	wordpools/wordpool_EN.txt	FENCE	12	20	[0, 0, 0]	n/a	FR1	0	R1102P
2092.496	0.0	1764557	DISTRACT_START	n/a	n/a	n/a	-999	20	[0, 0, 0]	n/a	FR1	0	R1102P
2092.496	0.017	1764557	START	n/a	n/a	n/a	-999	20	[-999, -999, -999]	n/a	FR1	0	R1102P
2092.513	9.768	1764566	PROB	9.737	n/a	n/a	-999	20	[8, 5, 7]	20.0	FR1	0	R1102P
2102.281	5.884	1769450	PROB	5.85	n/a	n/a	-999	20	[9, 7, 5]	21.0	FR1	0	R1102P
2108.165	10.294	1772391	PROB	10.294	n/a	n/a	-999	20	[5, 3, 9]	16.0	FR1	0	R1102P
2118.459	0.008	1777538	STOP	n/a	n/a	n/a	-999	20	[-999, -999, -999]	n/a	FR1	0	R1102P
2118.467	1.134	1777542	DISTRACT_END	n/a	n/a	n/a	-999	20	[0, 0, 0]	n/a	FR1	0	R1102P
2119.601	1.703	1778109	REC_START	n/a	n/a	n/a	-999	20	[0, 0, 0]	n/a	FR1	0	R1102P
2121.304	1.0	1778961	REC_WORD_VV	1.703	n/a	<>	-999	20	[0, 0, 0]	n/a	FR1	0	R1102P
2122.304	5.361	1779461	REC_WORD_VV	2.703	n/a	<>	-999	20	[0, 0, 0]	n/a	FR1	0	R1102P
2127.665	3.869	1782141	REC_WORD	8.064	n/a	SUN	1	20	[0, 0, 0]	n/a	FR1	0	R1102P
2131.534	8.056	1784075	REC_WORD_VV	11.933	n/a	<>	-999	20	[0, 0, 0]	n/a	FR1	0	R1102P
2139.59	10.02	1788103	REC_WORD	19.989	n/a	APE	-999	20	[0, 0, 0]	n/a	FR1	0	R1102P
2149.61	8.898	1793113	REC_END	n/a	n/a	n/a	-999	20	[0, 0, 0]	n/a	FR1	0	R1102P
2158.508	0.0	1797562	TRIAL	n/a	n/a	n/a	-999	21	[0, 0, 0]	n/a	FR1	0	R1102P
2158.508	10.0	1797562	COUNTDOWN_START	n/a	n/a	n/a	-999	21	[0, 0, 0]	n/a	FR1	0	R1102P
2168.936	0.007	1802775	COUNTDOWN_END	n/a	n/a	n/a	-999	21	[0, 0, 0]	n/a	FR1	0	R1102P
2168.943	1.6	1802779	ORIENT	n/a	n/a	n/a	-999	21	[0, 0, 0]	n/a	FR1	0	R1102P
2171.327	1.6	1803971	WORD	n/a	wordpools/wordpool_EN.txt	SEA	1	21	[0, 0, 0]	n/a	FR1	0	R1102P
2173.944	1.6	1805279	WORD	n/a	wordpools/wordpool_EN.txt	STAR	2	21	[0, 0, 0]	n/a	FR1	0	R1102P
2176.411	1.6	1806513	WORD	n/a	wordpools/wordpool_EN.txt	SHIP	3	21	[0, 0, 0]	n/a	FR1	0	R1102P
2178.879	1.6	1807747	WORD	n/a	wordpools/wordpool_EN.txt	STEAM	4	21	[0, 0, 0]	n/a	FR1	0	R1102P
2181.262	1.6	1808938	WORD	n/a	wordpools/wordpool_EN.txt	BOMB	5	21	[0, 0, 0]	n/a	FR1	0	R1102P
2183.797	1.6	1810205	WORD	n/a	wordpools/wordpool_EN.txt	JEEP	6	21	[0, 0, 0]	n/a	FR1	0	R1102P
2186.18	1.6	1811397	WORD	n/a	wordpools/wordpool_EN.txt	PLANE	7	21	[0, 0, 0]	n/a	FR1	0	R1102P
2188.748	1.6	1812681	WORD	n/a	wordpools/wordpool_EN.txt	MOON	8	21	[0, 0, 0]	n/a	FR1	0	R1102P
2191.314	1.6	1813964	WORD	n/a	wordpools/wordpool_EN.txt	FILM	9	21	[0, 0, 0]	n/a	FR1	0	R1102P
2193.882	1.6	1815248	WORD	n/a	wordpools/wordpool_EN.txt	CLOUD	10	21	[0, 0, 0]	n/a	FR1	0	R1102P
2196.382	1.6	1816498	WORD	n/a	wordpools/wordpool_EN.txt	TANK	11	21	[0, 0, 0]	n/a	FR1	0	R1102P
2198.767	1.6	1817690	WORD	n/a	wordpools/wordpool_EN.txt	FLUTE	12	21	[0, 0, 0]	n/a	FR1	0	R1102P
2200.383	0.0	1818498	DISTRACT_START	n/a	n/a	n/a	-999	21	[0, 0, 0]	n/a	FR1	0	R1102P
2200.383	0.016	1818498	START	n/a	n/a	n/a	-999	21	[-999, -999, -999]	n/a	FR1	0	R1102P
2200.399	6.469	1818506	PROB	6.437	n/a	n/a	-999	21	[9, 8, 1]	18.0	FR1	0	R1102P
2206.868	5.567	1821740	PROB	5.535	n/a	n/a	-999	21	[4, 1, 4]	9.0	FR1	0	R1102P
2212.435	26.816	1824524	PROB	26.816	n/a	n/a	-999	21	[8, 3, 9]	20.0	FR1	0	R1102P
2239.251	0.006	1837931	STOP	n/a	n/a	n/a	-999	21	[-999, -999, -999]	n/a	FR1	0	R1102P
2239.257	1.085	1837934	DISTRACT_END	n/a	n/a	n/a	-999	21	[0, 0, 0]	n/a	FR1	0	R1102P
2240.342	2.708	1838476	REC_START	n/a	n/a	n/a	-999	21	[0, 0, 0]	n/a	FR1	0	R1102P
2243.05	4.001	1839830	REC_WORD_VV	2.708	n/a	<>	-999	21	[0, 0, 0]	n/a	FR1	0	R1102P
2247.051	1.877	1841831	REC_WORD	6.709	n/a	SEA	1	21	[0, 0, 0]	n/a	FR1	0	R1102P
2248.928	3.224	1842769	REC_WORD	8.586	n/a	STAR	2	21	[0, 0, 0]	n/a	FR1	0	R1102P
2252.152	9.127	1844381	REC_WORD	11.81	n/a	SHIP	3	21	[0, 0, 0]	n/a	FR1	0	R1102P
2261.279	1.542	1848944	REC_WORD_VV	20.937	n/a	<>	-999	21	[0, 0, 0]	n/a	FR1	0	R1102P
2262.821	7.528	1849715	REC_WORD	22.479	n/a	MOOSE	-999	21	[0, 0, 0]	n/a	FR1	0	R1102P
2270.349	3.047	1853479	REC_END	n/a	n/a	n/a	-999	21	[0, 0, 0]	n/a	FR1	0	R1102P
2273.396	10.0	1855003	COUNTDOWN_START	n/a	n/a	n/a	-999	22	[0, 0, 0]	n/a	FR1	0	R1102P
2273.397	10.427	1855003	TRIAL	n/a	n/a	n/a	-999	22	[0, 0, 0]	n/a	FR1	0	R1102P
2283.824	0.009	1860216	COUNTDOWN_END	n/a	n/a	n/a	-999	22	[0, 0, 0]	n/a	FR1	0	R1102P
2283.833	1.6	1860221	ORIENT	n/a	n/a	n/a	-999	22	[0, 0, 0]	n/a	FR1	0	R1102P
2286.449	1.6	1861529	WORD	n/a	wordpools/wordpool_EN.txt	DOOR	1	22	[0, 0, 0]	n/a	FR1	0	R1102P
2289.066	1.6	1862837	WORD	n/a	wordpools/wordpool_EN.txt	SMILE	2	22	[0, 0, 0]	n/a	FR1	0	R1102P
2291.533	1.6	1864071	WORD	n/a	wordpools/wordpool_EN.txt	CLOCK	3	22	[0, 0, 0]	n/a	FR1	0	R1102P
2294.117	1.6	1865363	WORD	n/a	wordpools/wordpool_EN.txt	OAR	4	22	[0, 0, 0]	n/a	FR1	0	R1102P
2296.668	1.6	1866638	WORD	n/a	wordpools/wordpool_EN.txt	LAMP	5	22	[0, 0, 0]	n/a	FR1	0	R1102P
2299.151	1.6	1867879	WORD	n/a	wordpools/wordpool_EN.txt	STOVE	6	22	[0, 0, 0]	n/a	FR1	0	R1102P
2301.585	1.6	1869096	WORD	n/a	wordpools/wordpool_EN.txt	FLOOR	7	22	[0, 0, 0]	n/a	FR1	0	R1102P
2304.019	1.6	1870313	WORD	n/a	wordpools/wordpool_EN.txt	PEN	8	22	[0, 0, 0]	n/a	FR1	0	R1102P
2306.603	1.6	1871605	WORD	n/a	wordpools/wordpool_EN.txt	STICK	9	22	[0, 0, 0]	n/a	FR1	0	R1102P
2309.186	1.6	1872897	WORD	n/a	wordpools/wordpool_EN.txt	BOOT	10	22	[0, 0, 0]	n/a	FR1	0	R1102P
2311.671	1.6	1874139	WORD	n/a	wordpools/wordpool_EN.txt	DIME	11	22	[0, 0, 0]	n/a	FR1	0	R1102P
2314.287	1.6	1875447	WORD	n/a	wordpools/wordpool_EN.txt	ARM	12	22	[0, 0, 0]	n/a	FR1	0	R1102P
2315.888	0.002	1876247	DISTRACT_START	n/a	n/a	n/a	-999	22	[0, 0, 0]	n/a	FR1	0	R1102P
2315.89	0.015	1876248	START	n/a	n/a	n/a	-999	22	[-999, -999, -999]	n/a	FR1	0	R1102P
2315.905	6.534	1876256	PROB	6.497	n/a	n/a	-999	22	[5, 2, 2]	9.0	FR1	0	R1102P
2322.439	6.935	1879523	PROB	6.899	n/a	n/a	-999	22	[6, 7, 9]	22.0	FR1	0	R1102P
2329.374	8.565	1882990	PROB	8.565	n/a	n/a	-999	22	[3, 2, 9]	14.0	FR1	0	R1102P
2337.939	0.019	1887272	STOP	n/a	n/a	n/a	-999	22	[-999, -999, -999]	n/a	FR1	0	R1102P
2337.958	1.084	1887282	DISTRACT_END	n/a	n/a	n/a	-999	22	[0, 0, 0]	n/a	FR1	0	R1102P
2339.042	20.171	1887824	REC_START	n/a	n/a	n/a	-999	22	[0, 0, 0]	n/a	FR1	0	R1102P
2359.213	2.061	1897909	REC_WORD_VV	20.171	n/a	<>	-999	22	[0, 0, 0]	n/a	FR1	0	R1102P
2361.274	2.614	1898939	REC_WORD	22.232	n/a	BOAT	-999	22	[0, 0, 0]	n/a	FR1	0	R1102P
2363.888	5.165	1900246	REC_WORD_VV	24.846	n/a	<>	-999	22	[0, 0, 0]	n/a	FR1	0	R1102P
2369.053	4.045	1902829	REC_END	n/a	n/a	n/a	-999	22	[0, 0, 0]	n/a	FR1	0	R1102P
2373.098	10.0	1904851	COUNTDOWN_START	n/a	n/a	n/a	-999	23	[0, 0, 0]	n/a	FR1	0	R1102P
2373.099	10.427	1904851	TRIAL	n/a	n/a	n/a	-999	23	[0, 0, 0]	n/a	FR1	0	R1102P
2383.526	0.008	1910065	COUNTDOWN_END	n/a	n/a	n/a	-999	23	[0, 0, 0]	n/a	FR1	0	R1102P
2383.534	1.6	1910069	ORIENT	n/a	n/a	n/a	-999	23	[0, 0, 0]	n/a	FR1	0	R1102P
2386.084	1.6	1911344	WORD	n/a	wordpools/wordpool_EN.txt	DRESS	1	23	[0, 0, 0]	n/a	FR1	0	R1102P
2388.635	1.6	1912619	WORD	n/a	wordpools/wordpool_EN.txt	LAWN	2	23	[0, 0, 0]	n/a	FR1	0	R1102P
2391.218	1.6	1913910	WORD	n/a	wordpools/wordpool_EN.txt	BARN	3	23	[0, 0, 0]	n/a	FR1	0	R1102P
2393.703	1.6	1915153	WORD	n/a	wordpools/wordpool_EN.txt	SCHOOL	4	23	[0, 0, 0]	n/a	FR1	0	R1102P
2396.186	1.6	1916394	WORD	n/a	wordpools/wordpool_EN.txt	VEST	5	23	[0, 0, 0]	n/a	FR1	0	R1102P
2398.553	1.6	1917578	WORD	n/a	wordpools/wordpool_EN.txt	MUD	6	23	[0, 0, 0]	n/a	FR1	0	R1102P
2401.054	1.6	1918828	WORD	n/a	wordpools/wordpool_EN.txt	ROOF	7	23	[0, 0, 0]	n/a	FR1	0	R1102P
2403.471	1.6	1920037	WORD	n/a	wordpools/wordpool_EN.txt	NOSE	8	23	[0, 0, 0]	n/a	FR1	0	R1102P
2405.955	1.6	1921279	WORD	n/a	wordpools/wordpool_EN.txt	FACE	9	23	[0, 0, 0]	n/a	FR1	0	R1102P
2408.388	1.6	1922495	WORD	n/a	wordpools/wordpool_EN.txt	STREET	10	23	[0, 0, 0]	n/a	FR1	0	R1102P
2410.806	1.6	1923704	WORD	n/a	wordpools/wordpool_EN.txt	SHARK	11	23	[0, 0, 0]	n/a	FR1	0	R1102P
2413.189	1.6	1924895	WORD	n/a	wordpools/wordpool_EN.txt	CHEEK	12	23	[0, 0, 0]	n/a	FR1	0	R1102P
2414.79	0.001	1925696	DISTRACT_START	n/a	n/a	n/a	-999	23	[0, 0, 0]	n/a	FR1	0	R1102P
2414.791	0.016	1925696	START	n/a	n/a	n/a	-999	23	[-999, -999, -999]	n/a	FR1	0	R1102P
2414.807	5.317	1925704	PROB	5.284	n/a	n/a	-999	23	[6, 7, 1]	14.0	FR1	0	R1102P
2420.124	11.852	1928363	PROB	11.823	n/a	n/a	-999	23	[4, 4, 9]	17.0	FR1	0	R1102P
2431.976	6.578	1934288	PROB	6.578	n/a	n/a	-999	23	[9, 6, 3]	18.0	FR1	0	R1102P
2438.554	0.007	1937577	STOP	n/a	n/a	n/a	-999	23	[-999, -999, -999]	n/a	FR1	0	R1102P
2438.561	1.235	1937581	DISTRACT_END	n/a	n/a	n/a	-999	23	[0, 0, 0]	n/a	FR1	0	R1102P
2439.796	4.266	1938198	REC_START	n/a	n/a	n/a	-999	23	[0, 0, 0]	n/a	FR1	0	R1102P
2444.062	1.004	1940331	REC_WORD	4.266	n/a	SHARK	11	23	[0, 0, 0]	n/a	FR1	0	R1102P
2445.066	3.176	1940833	REC_WORD	5.27	n/a	STREET	10	23	[0, 0, 0]	n/a	FR1	0	R1102P
2448.242	0.426	1942421	REC_WORD_VV	8.446	n/a	<>	-999	23	[0, 0, 0]	n/a	FR1	0	R1102P
2448.668	21.138	1942634	REC_WORD	8.872	n/a	SCHOOL	4	23	[0, 0, 0]	n/a	FR1	0	R1102P
2469.806	2.929	1953202	REC_END	n/a	n/a	n/a	-999	23	[0, 0, 0]	n/a	FR1	0	R1102P
2472.735	0.0	1954667	TRIAL	n/a	n/a	n/a	-999	24	[0, 0, 0]	n/a	FR1	0	R1102P
2472.735	10.0	1954667	COUNTDOWN_START	n/a	n/a	n/a	-999	24	[0, 0, 0]	n/a	FR1	0	R1102P
2483.163	0.006	1959881	COUNTDOWN_END	n/a	n/a	n/a	-999	24	[0, 0, 0]	n/a	FR1	0	R1102P
2483.169	1.6	1959884	ORIENT	n/a	n/a	n/a	-999	24	[0, 0, 0]	n/a	FR1	0	R1102P
2485.619	1.6	1961108	WORD	n/a	wordpools/wordpool_EN.txt	GUARD	1	24	[0, 0, 0]	n/a	FR1	0	R1102P
2488.17	1.6	1962384	WORD	n/a	wordpools/wordpool_EN.txt	SWAMP	2	24	[0, 0, 0]	n/a	FR1	0	R1102P
2490.738	1.6	1963668	WORD	n/a	wordpools/wordpool_EN.txt	STONE	3	24	[0, 0, 0]	n/a	FR1	0	R1102P
2493.138	1.6	1964868	WORD	n/a	wordpools/wordpool_EN.txt	DART	4	24	[0, 0, 0]	n/a	FR1	0	R1102P
2495.571	1.6	1966084	WORD	n/a	wordpools/wordpool_EN.txt	CALF	5	24	[0, 0, 0]	n/a	FR1	0	R1102P
2498.088	1.6	1967343	WORD	n/a	wordpools/wordpool_EN.txt	CAVE	6	24	[0, 0, 0]	n/a	FR1	0	R1102P
2500.522	1.6	1968560	WORD	n/a	wordpools/wordpool_EN.txt	CORN	7	24	[0, 0, 0]	n/a	FR1	0	R1102P
2503.123	1.6	1969860	WORD	n/a	wordpools/wordpool_EN.txt	PIG	8	24	[0, 0, 0]	n/a	FR1	0	R1102P
2505.741	1.6	1971169	WORD	n/a	wordpools/wordpool_EN.txt	CLAY	9	24	[0, 0, 0]	n/a	FR1	0	R1102P
2508.34	1.6	1972468	WORD	n/a	wordpools/wordpool_EN.txt	DEER	10	24	[0, 0, 0]	n/a	FR1	0	R1102P
2510.875	1.6	1973736	WORD	n/a	wordpools/wordpool_EN.txt	DITCH	11	24	[0, 0, 0]	n/a	FR1	0	R1102P
2513.358	1.6	1974977	WORD	n/a	wordpools/wordpool_EN.txt	SPEAR	12	24	[0, 0, 0]	n/a	FR1	0	R1102P
2514.975	0.001	1975786	DISTRACT_START	n/a	n/a	n/a	-999	24	[0, 0, 0]	n/a	FR1	0	R1102P
2514.976	0.016	1975786	START	n/a	n/a	n/a	-999	24	[-999, -999, -999]	n/a	FR1	0	R1102P
2514.992	8.318	1975794	PROB	8.283	n/a	n/a	-999	24	[1, 4, 8]	13.0	FR1	0	R1102P
2523.31	4.051	1979953	PROB	4.029	n/a	n/a	-999	24	[7, 3, 5]	15.0	FR1	0	R1102P
2527.361	4.117	1981978	PROB	4.09	n/a	n/a	-999	24	[3, 8, 1]	12.0	FR1	0	R1102P
2531.478	4.605	1984037	PROB	4.605	n/a	n/a	-999	24	[3, 7, 6]	16.0	FR1	0	R1102P
2536.083	0.013	1986339	STOP	n/a	n/a	n/a	-999	24	[-999, -999, -999]	n/a	FR1	0	R1102P
2536.096	1.2	1986346	DISTRACT_END	n/a	n/a	n/a	-999	24	[0, 0, 0]	n/a	FR1	0	R1102P
2537.296	3.53	1986946	REC_START	n/a	n/a	n/a	-999	24	[0, 0, 0]	n/a	FR1	0	R1102P
2540.826	1.055	1988711	REC_WORD	3.53	n/a	CAVE	6	24	[0, 0, 0]	n/a	FR1	0	R1102P
2541.881	3.182	1989238	REC_WORD	4.585	n/a	CORN	7	24	[0, 0, 0]	n/a	FR1	0	R1102P
2545.063	4.285	1990829	REC_WORD	7.767	n/a	CALF	5	24	[0, 0, 0]	n/a	FR1	0	R1102P
2549.348	17.963	1992971	REC_WORD	12.052	n/a	DITCH	11	24	[0, 0, 0]	n/a	FR1	0	R1102P
2567.311	6.858	2001952	REC_END	n/a	n/a	n/a	-999	24	[0, 0, 0]	n/a	FR1	0	R1102P
2574.169	10.0	2005381	COUNTDOWN_START	n/a	n/a	n/a	-999	25	[0, 0, 0]	n/a	FR1	0	R1102P
2574.17	10.427	2005382	TRIAL	n/a	n/a	n/a	-999	25	[0, 0, 0]	n/a	FR1	0	R1102P
2584.597	0.008	2010595	COUNTDOWN_END	n/a	n/a	n/a	-999	25	[0, 0, 0]	n/a	FR1	0	R1102P
2584.605	1.6	2010599	ORIENT	n/a	n/a	n/a	-999	25	[0, 0, 0]	n/a	FR1	0	R1102P
2587.222	1.6	2011907	WORD	n/a	wordpools/wordpool_EN.txt	MOUTH	1	25	[0, 0, 0]	n/a	FR1	0	R1102P
2589.807	1.6	2013200	WORD	n/a	wordpools/wordpool_EN.txt	DOLL	2	25	[0, 0, 0]	n/a	FR1	0	R1102P
2592.206	1.6	2014399	WORD	n/a	wordpools/wordpool_EN.txt	SEAL	3	25	[0, 0, 0]	n/a	FR1	0	R1102P
2594.791	1.6	2015692	WORD	n/a	wordpools/wordpool_EN.txt	WEED	4	25	[0, 0, 0]	n/a	FR1	0	R1102P
2597.324	1.6	2016958	WORD	n/a	wordpools/wordpool_EN.txt	CLOWN	5	25	[0, 0, 0]	n/a	FR1	0	R1102P
2599.709	1.6	2018150	WORD	n/a	wordpools/wordpool_EN.txt	TIE	6	25	[0, 0, 0]	n/a	FR1	0	R1102P
2602.091	1.6	2019341	WORD	n/a	wordpools/wordpool_EN.txt	PET	7	25	[0, 0, 0]	n/a	FR1	0	R1102P
2604.492	1.6	2020542	WORD	n/a	wordpools/wordpool_EN.txt	CLOTH	8	25	[0, 0, 0]	n/a	FR1	0	R1102P
2607.042	1.6	2021817	WORD	n/a	wordpools/wordpool_EN.txt	FAN	9	25	[0, 0, 0]	n/a	FR1	0	R1102P
2609.426	1.6	2023009	WORD	n/a	wordpools/wordpool_EN.txt	WOLF	10	25	[0, 0, 0]	n/a	FR1	0	R1102P
2611.811	1.6	2024201	WORD	n/a	wordpools/wordpool_EN.txt	RAT	11	25	[0, 0, 0]	n/a	FR1	0	R1102P
2614.277	1.6	2025434	WORD	n/a	wordpools/wordpool_EN.txt	SOCK	12	25	[0, 0, 0]	n/a	FR1	0	R1102P
2615.878	0.001	2026235	DISTRACT_START	n/a	n/a	n/a	-999	25	[0, 0, 0]	n/a	FR1	0	R1102P
2615.879	0.016	2026235	START	n/a	n/a	n/a	-999	25	[-999, -999, -999]	n/a	FR1	0	R1102P
2615.895	6.768	2026243	PROB	6.74	n/a	n/a	-999	25	[4, 6, 1]	11.0	FR1	0	R1102P
2622.663	4.95	2029627	PROB	4.916	n/a	n/a	-999	25	[1, 8, 9]	18.0	FR1	0	R1102P
2627.613	7.102	2032102	PROB	7.071	n/a	n/a	-999	25	[6, 9, 9]	24.0	FR1	0	R1102P
2634.715	5.953	2035653	PROB	5.953	n/a	n/a	-999	25	[7, 8, 7]	22.0	FR1	0	R1102P
2640.668	0.015	2038629	STOP	n/a	n/a	n/a	-999	25	[-999, -999, -999]	n/a	FR1	0	R1102P
2640.683	1.151	2038636	DISTRACT_END	n/a	n/a	n/a	-999	25	[0, 0, 0]	n/a	FR1	0	R1102P
2641.834	4.17	2039212	REC_START	n/a	n/a	n/a	-999	25	[0, 0, 0]	n/a	FR1	0	R1102P
2646.004	0.662	2041297	REC_WORD_VV	4.17	n/a	<>	-999	25	[0, 0, 0]	n/a	FR1	0	R1102P
2646.666	1.827	2041628	REC_WORD	4.832	n/a	CLOWN	5	25	[0, 0, 0]	n/a	FR1	0	R1102P
2648.493	2.31	2042541	REC_WORD	6.659	n/a	COIN	-999	25	[0, 0, 0]	n/a	FR1	0	R1102P
2650.803	3.183	2043696	REC_WORD	8.969	n/a	SAND	-999	25	[0, 0, 0]	n/a	FR1	0	R1102P
2653.986	12.254	2045288	REC_WORD	12.152	n/a	RAT	11	25	[0, 0, 0]	n/a	FR1	0	R1102P
2666.24	5.604	2051414	REC_WORD_VV	24.406	n/a	<>	-999	25	[0, 0, 0]	n/a	FR1	0	R1102P
2671.844	20.999	2054216	REC_END	n/a	n/a	n/a	-999	25	[0, 0, 0]	n/a	FR1	0	R1102P
2692.843	0.0	2064715	SESS_END	n/a	n/a	n/a	-999	25	[0, 0, 0]	n/a	FR1	0	R1102P
