onset	duration	sample	trial_type	response_time	stim_file	item_name	serialpos	list	test	answer	experiment	session	subject
0.0	31.073	-1	SESS_START	n/a	n/a	n/a	-999	-999	[0, 0, 0]	n/a	FR1	0	R1135E
31.073	10.0	29128	COUNTDOWN_START	n/a	n/a	n/a	-999	-999	[0, 0, 0]	n/a	FR1	0	R1135E
41.501	3.741	39555	COUNTDOWN_END	n/a	n/a	n/a	-999	-999	[0, 0, 0]	n/a	FR1	0	R1135E
45.242	1.6	43296	PRACTICE_WORD	n/a	n/a	ATTIC	1	-1	[0, 0, 0]	n/a	FR1	0	R1135E
47.66	1.6	45714	PRACTICE_WORD	n/a	n/a	FLOOD	2	-1	[0, 0, 0]	n/a	FR1	0	R1135E
50.16	1.6	48214	PRACTICE_WORD	n/a	n/a	CAMEL	3	-1	[0, 0, 0]	n/a	FR1	0	R1135E
52.577	1.6	50631	PRACTICE_WORD	n/a	n/a	WATCH	4	-1	[0, 0, 0]	n/a	FR1	0	R1135E
55.194	1.6	53248	PRACTICE_WORD	n/a	n/a	TONGUE	5	-1	[0, 0, 0]	n/a	FR1	0	R1135E
57.595	1.6	55648	PRACTICE_WORD	n/a	n/a	RHINO	6	-1	[0, 0, 0]	n/a	FR1	0	R1135E
60.012	1.6	58065	PRACTICE_WORD	n/a	n/a	COTTON	7	-1	[0, 0, 0]	n/a	FR1	0	R1135E
62.562	1.6	60615	PRACTICE_WORD	n/a	n/a	WAGON	8	-1	[0, 0, 0]	n/a	FR1	0	R1135E
65.129	1.6	63182	PRACTICE_WORD	n/a	n/a	RING	9	-1	[0, 0, 0]	n/a	FR1	0	R1135E
67.596	1.6	65649	PRACTICE_WORD	n/a	n/a	BEAM	10	-1	[0, 0, 0]	n/a	FR1	0	R1135E
70.047	1.6	68099	PRACTICE_WORD	n/a	n/a	IRON	11	-1	[0, 0, 0]	n/a	FR1	0	R1135E
72.481	1.6	70533	PRACTICE_WORD	n/a	n/a	CHEST	12	-1	[0, 0, 0]	n/a	FR1	0	R1135E
74.098	0.0	72150	PRACTICE_DISTRACT_START	n/a	n/a	n/a	-999	-1	[0, 0, 0]	n/a	FR1	0	R1135E
74.098	0.016	72150	START	n/a	n/a	n/a	-999	-1	[-999, -999, -999]	n/a	FR1	0	R1135E
74.114	18.52	72166	PROB	18.495	n/a	n/a	-999	-1	[8, 3, 8]	18.0	FR1	0	R1135E
92.634	15.061	90685	PROB	15.061	n/a	n/a	-999	-1	[5, 9, 8]	21.0	FR1	0	R1135E
107.695	0.008	105745	STOP	n/a	n/a	n/a	-999	-1	[-999, -999, -999]	n/a	FR1	0	R1135E
107.703	0.569	105753	PRACTICE_DISTRACT_END	n/a	n/a	n/a	-999	-1	[0, 0, 0]	n/a	FR1	0	R1135E
108.272	30.515	106322	PRACTICE_REC_START	n/a	n/a	n/a	-999	-1	[0, 0, 0]	n/a	FR1	0	R1135E
138.787	36.245	136835	PRACTICE_REC_END	n/a	n/a	n/a	-999	-1	[0, 0, 0]	n/a	FR1	0	R1135E
175.032	0.0	173077	TRIAL	n/a	n/a	n/a	-999	1	[0, 0, 0]	n/a	FR1	0	R1135E
175.032	10.0	173077	COUNTDOWN_START	n/a	n/a	n/a	-999	1	[0, 0, 0]	n/a	FR1	0	R1135E
185.46	0.007	183505	COUNTDOWN_END	n/a	n/a	n/a	-999	1	[0, 0, 0]	n/a	FR1	0	R1135E
185.467	1.6	183512	ORIENT	n/a	n/a	n/a	-999	1	[0, 0, 0]	n/a	FR1	0	R1135E
188.017	1.6	186062	WORD	n/a	wordpools/wordpool_EN.txt	AXE	1	1	[0, 0, 0]	n/a	FR1	0	R1135E
190.635	1.6	188679	WORD	n/a	wordpools/wordpool_EN.txt	CLOTH	2	1	[0, 0, 0]	n/a	FR1	0	R1135E
193.218	1.6	191262	WORD	n/a	wordpools/wordpool_EN.txt	SPRING	3	1	[0, 0, 0]	n/a	FR1	0	R1135E
195.735	1.6	193779	WORD	n/a	wordpools/wordpool_EN.txt	CROWN	4	1	[0, 0, 0]	n/a	FR1	0	R1135E
198.353	1.6	196397	WORD	n/a	wordpools/wordpool_EN.txt	BED	5	1	[0, 0, 0]	n/a	FR1	0	R1135E
200.953	1.6	198997	WORD	n/a	wordpools/wordpool_EN.txt	HEART	6	1	[0, 0, 0]	n/a	FR1	0	R1135E
203.402	1.6	201445	WORD	n/a	wordpools/wordpool_EN.txt	BOARD	7	1	[0, 0, 0]	n/a	FR1	0	R1135E
205.954	1.6	203997	WORD	n/a	wordpools/wordpool_EN.txt	TOOTH	8	1	[0, 0, 0]	n/a	FR1	0	R1135E
208.471	1.6	206514	WORD	n/a	wordpools/wordpool_EN.txt	CUP	9	1	[0, 0, 0]	n/a	FR1	0	R1135E
211.021	1.6	209064	WORD	n/a	wordpools/wordpool_EN.txt	MUD	10	1	[0, 0, 0]	n/a	FR1	0	R1135E
213.421	1.6	211464	WORD	n/a	wordpools/wordpool_EN.txt	OAR	11	1	[0, 0, 0]	n/a	FR1	0	R1135E
215.939	1.6	213982	WORD	n/a	wordpools/wordpool_EN.txt	LAMB	12	1	[0, 0, 0]	n/a	FR1	0	R1135E
217.556	0.001	215599	DISTRACT_START	n/a	n/a	n/a	-999	1	[0, 0, 0]	n/a	FR1	0	R1135E
217.557	0.016	215600	START	n/a	n/a	n/a	-999	1	[-999, -999, -999]	n/a	FR1	0	R1135E
217.573	8.301	215616	PROB	8.279	n/a	n/a	-999	1	[8, 1, 2]	11.0	FR1	0	R1135E
225.874	16.544	223916	PROB	16.544	n/a	n/a	-999	1	[5, 7, 4]	16.0	FR1	0	R1135E
242.418	0.008	240459	STOP	n/a	n/a	n/a	-999	1	[-999, -999, -999]	n/a	FR1	0	R1135E
242.426	1.074	240467	DISTRACT_END	n/a	n/a	n/a	-999	1	[0, 0, 0]	n/a	FR1	0	R1135E
243.5	7.692	241541	REC_START	n/a	n/a	n/a	-999	1	[0, 0, 0]	n/a	FR1	0	R1135E
251.192	3.937	249232	REC_WORD_VV	7.692	n/a	<>	-999	1	[0, 0, 0]	n/a	FR1	0	R1135E
255.129	2.867	253169	REC_WORD	11.629	n/a	TOOTH	8	1	[0, 0, 0]	n/a	FR1	0	R1135E
257.996	0.555	256036	REC_WORD	14.496	n/a	BED	5	1	[0, 0, 0]	n/a	FR1	0	R1135E
258.551	3.075	256591	REC_WORD	15.051	n/a	MUD	10	1	[0, 0, 0]	n/a	FR1	0	R1135E
261.626	5.761	259666	REC_WORD_VV	18.126	n/a	<>	-999	1	[0, 0, 0]	n/a	FR1	0	R1135E
267.387	6.116	265426	REC_WORD	23.887	n/a	CLOTHE	-999	1	[0, 0, 0]	n/a	FR1	0	R1135E
273.503	4.497	271542	REC_END	n/a	n/a	n/a	-999	1	[0, 0, 0]	n/a	FR1	0	R1135E
278.0	10.0	276038	COUNTDOWN_START	n/a	n/a	n/a	-999	2	[0, 0, 0]	n/a	FR1	0	R1135E
278.0	10.428	276038	TRIAL	n/a	n/a	n/a	-999	2	[0, 0, 0]	n/a	FR1	0	R1135E
288.428	0.006	286466	COUNTDOWN_END	n/a	n/a	n/a	-999	2	[0, 0, 0]	n/a	FR1	0	R1135E
288.434	1.6	286472	ORIENT	n/a	n/a	n/a	-999	2	[0, 0, 0]	n/a	FR1	0	R1135E
290.802	1.6	288840	WORD	n/a	wordpools/wordpool_EN.txt	SAIL	1	2	[0, 0, 0]	n/a	FR1	0	R1135E
293.352	1.6	291389	WORD	n/a	wordpools/wordpool_EN.txt	SHIP	2	2	[0, 0, 0]	n/a	FR1	0	R1135E
295.853	1.6	293890	WORD	n/a	wordpools/wordpool_EN.txt	WORM	3	2	[0, 0, 0]	n/a	FR1	0	R1135E
298.303	1.6	296340	WORD	n/a	wordpools/wordpool_EN.txt	SLIME	4	2	[0, 0, 0]	n/a	FR1	0	R1135E
300.921	1.6	298958	WORD	n/a	wordpools/wordpool_EN.txt	STEAM	5	2	[0, 0, 0]	n/a	FR1	0	R1135E
303.321	1.6	301358	WORD	n/a	wordpools/wordpool_EN.txt	BOAT	6	2	[0, 0, 0]	n/a	FR1	0	R1135E
305.788	1.6	303825	WORD	n/a	wordpools/wordpool_EN.txt	HOOK	7	2	[0, 0, 0]	n/a	FR1	0	R1135E
308.338	1.6	306374	WORD	n/a	wordpools/wordpool_EN.txt	DESK	8	2	[0, 0, 0]	n/a	FR1	0	R1135E
310.739	1.6	308775	WORD	n/a	wordpools/wordpool_EN.txt	PEARL	9	2	[0, 0, 0]	n/a	FR1	0	R1135E
313.173	1.6	311209	WORD	n/a	wordpools/wordpool_EN.txt	WHEEL	10	2	[0, 0, 0]	n/a	FR1	0	R1135E
315.623	1.6	313659	WORD	n/a	wordpools/wordpool_EN.txt	FISH	11	2	[0, 0, 0]	n/a	FR1	0	R1135E
318.207	1.6	316243	WORD	n/a	wordpools/wordpool_EN.txt	DRESS	12	2	[0, 0, 0]	n/a	FR1	0	R1135E
319.824	0.001	317860	DISTRACT_START	n/a	n/a	n/a	-999	2	[0, 0, 0]	n/a	FR1	0	R1135E
319.825	0.016	317861	START	n/a	n/a	n/a	-999	2	[-999, -999, -999]	n/a	FR1	0	R1135E
319.841	15.601	317877	PROB	15.573	n/a	n/a	-999	2	[7, 2, 5]	14.0	FR1	0	R1135E
335.442	8.065	333477	PROB	8.065	n/a	n/a	-999	2	[1, 9, 9]	19.0	FR1	0	R1135E
343.507	0.004	341541	STOP	n/a	n/a	n/a	-999	2	[-999, -999, -999]	n/a	FR1	0	R1135E
343.511	1.084	341545	DISTRACT_END	n/a	n/a	n/a	-999	2	[0, 0, 0]	n/a	FR1	0	R1135E
344.595	4.182	342629	REC_START	n/a	n/a	n/a	-999	2	[0, 0, 0]	n/a	FR1	0	R1135E
348.777	8.966	346811	REC_WORD_VV	4.182	n/a	<>	-999	2	[0, 0, 0]	n/a	FR1	0	R1135E
357.743	4.38	355776	REC_WORD_VV	13.148	n/a	<>	-999	2	[0, 0, 0]	n/a	FR1	0	R1135E
362.123	7.122	360156	REC_WORD_VV	17.528	n/a	<>	-999	2	[0, 0, 0]	n/a	FR1	0	R1135E
369.245	3.803	367277	REC_WORD	24.65	n/a	HOOK	7	2	[0, 0, 0]	n/a	FR1	0	R1135E
373.048	1.559	371080	REC_WORD_VV	28.453	n/a	<>	-999	2	[0, 0, 0]	n/a	FR1	0	R1135E
374.607	3.71	372639	REC_END	n/a	n/a	n/a	-999	2	[0, 0, 0]	n/a	FR1	0	R1135E
378.317	10.0	376349	COUNTDOWN_START	n/a	n/a	n/a	-999	3	[0, 0, 0]	n/a	FR1	0	R1135E
378.318	10.427	376350	TRIAL	n/a	n/a	n/a	-999	3	[0, 0, 0]	n/a	FR1	0	R1135E
388.745	0.008	386776	COUNTDOWN_END	n/a	n/a	n/a	-999	3	[0, 0, 0]	n/a	FR1	0	R1135E
388.753	1.6	386784	ORIENT	n/a	n/a	n/a	-999	3	[0, 0, 0]	n/a	FR1	0	R1135E
391.17	1.6	389201	WORD	n/a	wordpools/wordpool_EN.txt	JUICE	1	3	[0, 0, 0]	n/a	FR1	0	R1135E
393.77	1.6	391801	WORD	n/a	wordpools/wordpool_EN.txt	DIME	2	3	[0, 0, 0]	n/a	FR1	0	R1135E
396.171	1.6	394201	WORD	n/a	wordpools/wordpool_EN.txt	BLUSH	3	3	[0, 0, 0]	n/a	FR1	0	R1135E
398.554	1.6	396584	WORD	n/a	wordpools/wordpool_EN.txt	DITCH	4	3	[0, 0, 0]	n/a	FR1	0	R1135E
401.154	1.6	399184	WORD	n/a	wordpools/wordpool_EN.txt	HOLE	5	3	[0, 0, 0]	n/a	FR1	0	R1135E
403.672	1.6	401702	WORD	n/a	wordpools/wordpool_EN.txt	STOVE	6	3	[0, 0, 0]	n/a	FR1	0	R1135E
406.239	1.6	404269	WORD	n/a	wordpools/wordpool_EN.txt	CAKE	7	3	[0, 0, 0]	n/a	FR1	0	R1135E
408.773	1.6	406803	WORD	n/a	wordpools/wordpool_EN.txt	BATH	8	3	[0, 0, 0]	n/a	FR1	0	R1135E
411.29	1.6	409319	WORD	n/a	wordpools/wordpool_EN.txt	GLOVE	9	3	[0, 0, 0]	n/a	FR1	0	R1135E
413.79	1.6	411819	WORD	n/a	wordpools/wordpool_EN.txt	SOAP	10	3	[0, 0, 0]	n/a	FR1	0	R1135E
416.257	1.6	414286	WORD	n/a	wordpools/wordpool_EN.txt	SOCK	11	3	[0, 0, 0]	n/a	FR1	0	R1135E
418.874	1.6	416903	WORD	n/a	wordpools/wordpool_EN.txt	CHALK	12	3	[0, 0, 0]	n/a	FR1	0	R1135E
420.491	0.001	418520	DISTRACT_START	n/a	n/a	n/a	-999	3	[0, 0, 0]	n/a	FR1	0	R1135E
420.492	0.016	418521	START	n/a	n/a	n/a	-999	3	[-999, -999, -999]	n/a	FR1	0	R1135E
420.508	15.62	418537	PROB	15.59	n/a	n/a	-999	3	[5, 7, 6]	18.0	FR1	0	R1135E
436.128	6.088	434156	PROB	6.088	n/a	n/a	-999	3	[7, 1, 1]	9.0	FR1	0	R1135E
442.216	0.013	440243	STOP	n/a	n/a	n/a	-999	3	[-999, -999, -999]	n/a	FR1	0	R1135E
442.229	1.117	440256	DISTRACT_END	n/a	n/a	n/a	-999	3	[0, 0, 0]	n/a	FR1	0	R1135E
443.346	11.26	441373	REC_START	n/a	n/a	n/a	-999	3	[0, 0, 0]	n/a	FR1	0	R1135E
454.606	18.749	452632	REC_WORD_VV	11.26	n/a	<>	-999	3	[0, 0, 0]	n/a	FR1	0	R1135E
473.355	2.946	471380	REC_END	n/a	n/a	n/a	-999	3	[0, 0, 0]	n/a	FR1	0	R1135E
476.301	10.0	474326	COUNTDOWN_START	n/a	n/a	n/a	-999	4	[0, 0, 0]	n/a	FR1	0	R1135E
476.301	10.428	474326	TRIAL	n/a	n/a	n/a	-999	4	[0, 0, 0]	n/a	FR1	0	R1135E
486.729	0.007	484753	COUNTDOWN_END	n/a	n/a	n/a	-999	4	[0, 0, 0]	n/a	FR1	0	R1135E
486.736	1.6	484760	ORIENT	n/a	n/a	n/a	-999	4	[0, 0, 0]	n/a	FR1	0	R1135E
489.12	1.6	487144	WORD	n/a	wordpools/wordpool_EN.txt	SQUARE	1	4	[0, 0, 0]	n/a	FR1	0	R1135E
491.604	1.6	489628	WORD	n/a	wordpools/wordpool_EN.txt	BRICK	2	4	[0, 0, 0]	n/a	FR1	0	R1135E
494.138	1.6	492162	WORD	n/a	wordpools/wordpool_EN.txt	SMOKE	3	4	[0, 0, 0]	n/a	FR1	0	R1135E
496.621	1.6	494645	WORD	n/a	wordpools/wordpool_EN.txt	NAIL	4	4	[0, 0, 0]	n/a	FR1	0	R1135E
499.222	1.6	497245	WORD	n/a	wordpools/wordpool_EN.txt	PIN	5	4	[0, 0, 0]	n/a	FR1	0	R1135E
501.639	1.6	499662	WORD	n/a	wordpools/wordpool_EN.txt	VEST	6	4	[0, 0, 0]	n/a	FR1	0	R1135E
504.256	1.6	502279	WORD	n/a	wordpools/wordpool_EN.txt	WHALE	7	4	[0, 0, 0]	n/a	FR1	0	R1135E
506.756	1.6	504779	WORD	n/a	wordpools/wordpool_EN.txt	SNOW	8	4	[0, 0, 0]	n/a	FR1	0	R1135E
509.307	1.6	507330	WORD	n/a	wordpools/wordpool_EN.txt	FLAME	9	4	[0, 0, 0]	n/a	FR1	0	R1135E
511.891	1.6	509914	WORD	n/a	wordpools/wordpool_EN.txt	DOCK	10	4	[0, 0, 0]	n/a	FR1	0	R1135E
514.358	1.6	512380	WORD	n/a	wordpools/wordpool_EN.txt	STORM	11	4	[0, 0, 0]	n/a	FR1	0	R1135E
516.742	1.6	514764	WORD	n/a	wordpools/wordpool_EN.txt	LAKE	12	4	[0, 0, 0]	n/a	FR1	0	R1135E
518.359	0.0	516381	DISTRACT_START	n/a	n/a	n/a	-999	4	[0, 0, 0]	n/a	FR1	0	R1135E
518.359	0.016	516381	START	n/a	n/a	n/a	-999	4	[-999, -999, -999]	n/a	FR1	0	R1135E
518.375	6.551	516397	PROB	6.526	n/a	n/a	-999	4	[1, 5, 1]	7.0	FR1	0	R1135E
524.926	16.339	522948	PROB	16.339	n/a	n/a	-999	4	[5, 9, 7]	20.0	FR1	0	R1135E
541.265	0.014	539286	STOP	n/a	n/a	n/a	-999	4	[-999, -999, -999]	n/a	FR1	0	R1135E
541.279	1.184	539300	DISTRACT_END	n/a	n/a	n/a	-999	4	[0, 0, 0]	n/a	FR1	0	R1135E
542.463	2.254	540483	REC_START	n/a	n/a	n/a	-999	4	[0, 0, 0]	n/a	FR1	0	R1135E
544.717	2.507	542737	REC_WORD	2.254	n/a	STORM	11	4	[0, 0, 0]	n/a	FR1	0	R1135E
547.224	3.942	545244	REC_WORD	4.761	n/a	LAKE	12	4	[0, 0, 0]	n/a	FR1	0	R1135E
551.166	11.9	549186	REC_WORD_VV	8.703	n/a	<>	-999	4	[0, 0, 0]	n/a	FR1	0	R1135E
563.066	4.25	561085	REC_WORD_VV	20.603	n/a	<>	-999	4	[0, 0, 0]	n/a	FR1	0	R1135E
567.316	5.162	565335	REC_WORD	24.853	n/a	DESK	-999	4	[0, 0, 0]	n/a	FR1	0	R1135E
572.478	2.906	570496	REC_END	n/a	n/a	n/a	-999	4	[0, 0, 0]	n/a	FR1	0	R1135E
575.384	0.0	573402	TRIAL	n/a	n/a	n/a	-999	5	[0, 0, 0]	n/a	FR1	0	R1135E
575.384	10.0	573402	COUNTDOWN_START	n/a	n/a	n/a	-999	5	[0, 0, 0]	n/a	FR1	0	R1135E
585.812	0.008	583830	COUNTDOWN_END	n/a	n/a	n/a	-999	5	[0, 0, 0]	n/a	FR1	0	R1135E
585.82	1.6	583838	ORIENT	n/a	n/a	n/a	-999	5	[0, 0, 0]	n/a	FR1	0	R1135E
588.403	1.6	586420	WORD	n/a	wordpools/wordpool_EN.txt	INK	1	5	[0, 0, 0]	n/a	FR1	0	R1135E
590.838	1.6	588855	WORD	n/a	wordpools/wordpool_EN.txt	FENCE	2	5	[0, 0, 0]	n/a	FR1	0	R1135E
593.338	1.6	591355	WORD	n/a	wordpools/wordpool_EN.txt	TRAY	3	5	[0, 0, 0]	n/a	FR1	0	R1135E
595.889	1.6	593906	WORD	n/a	wordpools/wordpool_EN.txt	STICK	4	5	[0, 0, 0]	n/a	FR1	0	R1135E
598.455	1.6	596472	WORD	n/a	wordpools/wordpool_EN.txt	STAIR	5	5	[0, 0, 0]	n/a	FR1	0	R1135E
600.906	1.6	598923	WORD	n/a	wordpools/wordpool_EN.txt	SHEEP	6	5	[0, 0, 0]	n/a	FR1	0	R1135E
603.323	1.6	601339	WORD	n/a	wordpools/wordpool_EN.txt	MUG	7	5	[0, 0, 0]	n/a	FR1	0	R1135E
605.907	1.6	603923	WORD	n/a	wordpools/wordpool_EN.txt	SHARK	8	5	[0, 0, 0]	n/a	FR1	0	R1135E
608.44	1.6	606456	WORD	n/a	wordpools/wordpool_EN.txt	ROSE	9	5	[0, 0, 0]	n/a	FR1	0	R1135E
610.841	1.6	608857	WORD	n/a	wordpools/wordpool_EN.txt	CANE	10	5	[0, 0, 0]	n/a	FR1	0	R1135E
613.259	1.6	611275	WORD	n/a	wordpools/wordpool_EN.txt	BARN	11	5	[0, 0, 0]	n/a	FR1	0	R1135E
615.826	1.6	613842	WORD	n/a	wordpools/wordpool_EN.txt	PEN	12	5	[0, 0, 0]	n/a	FR1	0	R1135E
617.442	0.0	615457	DISTRACT_START	n/a	n/a	n/a	-999	5	[0, 0, 0]	n/a	FR1	0	R1135E
617.442	0.017	615457	START	n/a	n/a	n/a	-999	5	[-999, -999, -999]	n/a	FR1	0	R1135E
617.459	8.452	615474	PROB	8.418	n/a	n/a	-999	5	[9, 9, 1]	19.0	FR1	0	R1135E
625.911	12.072	623926	PROB	12.072	n/a	n/a	-999	5	[4, 9, 3]	16.0	FR1	0	R1135E
637.983	0.013	635997	STOP	n/a	n/a	n/a	-999	5	[-999, -999, -999]	n/a	FR1	0	R1135E
637.996	1.167	636010	DISTRACT_END	n/a	n/a	n/a	-999	5	[0, 0, 0]	n/a	FR1	0	R1135E
639.163	4.832	637177	REC_START	n/a	n/a	n/a	-999	5	[0, 0, 0]	n/a	FR1	0	R1135E
643.995	10.736	642009	REC_WORD_VV	4.832	n/a	<>	-999	5	[0, 0, 0]	n/a	FR1	0	R1135E
654.731	0.864	652744	REC_WORD	15.568	n/a	PEN	12	5	[0, 0, 0]	n/a	FR1	0	R1135E
655.595	13.583	653608	REC_WORD	16.432	n/a	WHALE	-999	5	[0, 0, 0]	n/a	FR1	0	R1135E
669.178	5.008	667190	REC_END	n/a	n/a	n/a	-999	5	[0, 0, 0]	n/a	FR1	0	R1135E
674.186	0.0	672198	TRIAL	n/a	n/a	n/a	-999	6	[0, 0, 0]	n/a	FR1	0	R1135E
674.186	10.0	672198	COUNTDOWN_START	n/a	n/a	n/a	-999	6	[0, 0, 0]	n/a	FR1	0	R1135E
684.614	0.007	682625	COUNTDOWN_END	n/a	n/a	n/a	-999	6	[0, 0, 0]	n/a	FR1	0	R1135E
684.621	1.6	682632	ORIENT	n/a	n/a	n/a	-999	6	[0, 0, 0]	n/a	FR1	0	R1135E
687.071	1.6	685082	WORD	n/a	wordpools/wordpool_EN.txt	LEG	1	6	[0, 0, 0]	n/a	FR1	0	R1135E
689.672	1.6	687683	WORD	n/a	wordpools/wordpool_EN.txt	SNAKE	2	6	[0, 0, 0]	n/a	FR1	0	R1135E
692.089	1.6	690099	WORD	n/a	wordpools/wordpool_EN.txt	NOSE	3	6	[0, 0, 0]	n/a	FR1	0	R1135E
694.639	1.6	692649	WORD	n/a	wordpools/wordpool_EN.txt	MOOSE	4	6	[0, 0, 0]	n/a	FR1	0	R1135E
697.173	1.6	695183	WORD	n/a	wordpools/wordpool_EN.txt	GOAT	5	6	[0, 0, 0]	n/a	FR1	0	R1135E
699.657	1.6	697667	WORD	n/a	wordpools/wordpool_EN.txt	MILK	6	6	[0, 0, 0]	n/a	FR1	0	R1135E
702.041	1.6	700051	WORD	n/a	wordpools/wordpool_EN.txt	CLIFF	7	6	[0, 0, 0]	n/a	FR1	0	R1135E
704.508	1.6	702518	WORD	n/a	wordpools/wordpool_EN.txt	MOUSE	8	6	[0, 0, 0]	n/a	FR1	0	R1135E
707.075	1.6	705084	WORD	n/a	wordpools/wordpool_EN.txt	GRASS	9	6	[0, 0, 0]	n/a	FR1	0	R1135E
709.609	1.6	707618	WORD	n/a	wordpools/wordpool_EN.txt	STOOL	10	6	[0, 0, 0]	n/a	FR1	0	R1135E
712.109	1.6	710118	WORD	n/a	wordpools/wordpool_EN.txt	CALF	11	6	[0, 0, 0]	n/a	FR1	0	R1135E
714.71	1.6	712719	WORD	n/a	wordpools/wordpool_EN.txt	WEB	12	6	[0, 0, 0]	n/a	FR1	0	R1135E
716.327	0.0	714336	DISTRACT_START	n/a	n/a	n/a	-999	6	[0, 0, 0]	n/a	FR1	0	R1135E
716.327	0.016	714336	START	n/a	n/a	n/a	-999	6	[-999, -999, -999]	n/a	FR1	0	R1135E
716.343	11.119	714352	PROB	11.097	n/a	n/a	-999	6	[3, 2, 5]	10.0	FR1	0	R1135E
727.462	7.084	725470	PROB	7.065	n/a	n/a	-999	6	[4, 1, 3]	8.0	FR1	0	R1135E
734.546	16.597	732553	PROB	16.597	n/a	n/a	-999	6	[5, 8, 9]	22.0	FR1	0	R1135E
751.143	0.006	749149	STOP	n/a	n/a	n/a	-999	6	[-999, -999, -999]	n/a	FR1	0	R1135E
751.149	1.034	749155	DISTRACT_END	n/a	n/a	n/a	-999	6	[0, 0, 0]	n/a	FR1	0	R1135E
752.183	4.891	750189	REC_START	n/a	n/a	n/a	-999	6	[0, 0, 0]	n/a	FR1	0	R1135E
757.074	4.163	755080	REC_WORD	4.891	n/a	LEG	1	6	[0, 0, 0]	n/a	FR1	0	R1135E
761.237	4.962	759243	REC_WORD_VV	9.054	n/a	<>	-999	6	[0, 0, 0]	n/a	FR1	0	R1135E
766.199	15.997	764204	REC_WORD	14.016	n/a	SHEEP	-999	6	[0, 0, 0]	n/a	FR1	0	R1135E
782.196	2.442	780200	REC_END	n/a	n/a	n/a	-999	6	[0, 0, 0]	n/a	FR1	0	R1135E
784.638	10.0	782642	COUNTDOWN_START	n/a	n/a	n/a	-999	7	[0, 0, 0]	n/a	FR1	0	R1135E
784.639	10.427	782643	TRIAL	n/a	n/a	n/a	-999	7	[0, 0, 0]	n/a	FR1	0	R1135E
795.066	0.008	793069	COUNTDOWN_END	n/a	n/a	n/a	-999	7	[0, 0, 0]	n/a	FR1	0	R1135E
795.074	1.6	793077	ORIENT	n/a	n/a	n/a	-999	7	[0, 0, 0]	n/a	FR1	0	R1135E
797.557	1.6	795560	WORD	n/a	wordpools/wordpool_EN.txt	FORK	1	7	[0, 0, 0]	n/a	FR1	0	R1135E
800.058	1.6	798061	WORD	n/a	wordpools/wordpool_EN.txt	BANK	2	7	[0, 0, 0]	n/a	FR1	0	R1135E
802.541	1.6	800544	WORD	n/a	wordpools/wordpool_EN.txt	SLEEVE	3	7	[0, 0, 0]	n/a	FR1	0	R1135E
805.142	1.6	803145	WORD	n/a	wordpools/wordpool_EN.txt	WAND	4	7	[0, 0, 0]	n/a	FR1	0	R1135E
807.592	1.6	805595	WORD	n/a	wordpools/wordpool_EN.txt	TOE	5	7	[0, 0, 0]	n/a	FR1	0	R1135E
809.976	1.6	807978	WORD	n/a	wordpools/wordpool_EN.txt	COUCH	6	7	[0, 0, 0]	n/a	FR1	0	R1135E
812.36	1.6	810362	WORD	n/a	wordpools/wordpool_EN.txt	GATE	7	7	[0, 0, 0]	n/a	FR1	0	R1135E
814.977	1.6	812979	WORD	n/a	wordpools/wordpool_EN.txt	STRING	8	7	[0, 0, 0]	n/a	FR1	0	R1135E
817.377	1.6	815379	WORD	n/a	wordpools/wordpool_EN.txt	VINE	9	7	[0, 0, 0]	n/a	FR1	0	R1135E
820.011	1.6	818013	WORD	n/a	wordpools/wordpool_EN.txt	SPEAR	10	7	[0, 0, 0]	n/a	FR1	0	R1135E
822.528	1.6	820530	WORD	n/a	wordpools/wordpool_EN.txt	TIE	11	7	[0, 0, 0]	n/a	FR1	0	R1135E
824.912	1.6	822913	WORD	n/a	wordpools/wordpool_EN.txt	PALM	12	7	[0, 0, 0]	n/a	FR1	0	R1135E
826.529	0.001	824530	DISTRACT_START	n/a	n/a	n/a	-999	7	[0, 0, 0]	n/a	FR1	0	R1135E
826.53	0.016	824531	START	n/a	n/a	n/a	-999	7	[-999, -999, -999]	n/a	FR1	0	R1135E
826.546	11.935	824547	PROB	11.908	n/a	n/a	-999	7	[9, 1, 5]	15.0	FR1	0	R1135E
838.481	9.682	836481	PROB	9.682	n/a	n/a	-999	7	[9, 9, 2]	20.0	FR1	0	R1135E
848.163	0.003	846163	STOP	n/a	n/a	n/a	-999	7	[-999, -999, -999]	n/a	FR1	0	R1135E
848.166	1.217	846166	DISTRACT_END	n/a	n/a	n/a	-999	7	[0, 0, 0]	n/a	FR1	0	R1135E
849.383	5.565	847383	REC_START	n/a	n/a	n/a	-999	7	[0, 0, 0]	n/a	FR1	0	R1135E
854.948	12.32	852947	REC_WORD_VV	5.565	n/a	<>	-999	7	[0, 0, 0]	n/a	FR1	0	R1135E
867.268	12.123	865266	REC_WORD_VV	17.885	n/a	<>	-999	7	[0, 0, 0]	n/a	FR1	0	R1135E
879.391	2.964	877389	REC_END	n/a	n/a	n/a	-999	7	[0, 0, 0]	n/a	FR1	0	R1135E
882.355	10.0	880352	COUNTDOWN_START	n/a	n/a	n/a	-999	8	[0, 0, 0]	n/a	FR1	0	R1135E
882.355	10.428	880352	TRIAL	n/a	n/a	n/a	-999	8	[0, 0, 0]	n/a	FR1	0	R1135E
892.783	0.008	890780	COUNTDOWN_END	n/a	n/a	n/a	-999	8	[0, 0, 0]	n/a	FR1	0	R1135E
892.791	1.6	890788	ORIENT	n/a	n/a	n/a	-999	8	[0, 0, 0]	n/a	FR1	0	R1135E
895.291	1.6	893288	WORD	n/a	wordpools/wordpool_EN.txt	BRIDGE	1	8	[0, 0, 0]	n/a	FR1	0	R1135E
897.792	1.6	895788	WORD	n/a	wordpools/wordpool_EN.txt	CAGE	2	8	[0, 0, 0]	n/a	FR1	0	R1135E
900.359	1.6	898355	WORD	n/a	wordpools/wordpool_EN.txt	BOOT	3	8	[0, 0, 0]	n/a	FR1	0	R1135E
902.842	1.6	900838	WORD	n/a	wordpools/wordpool_EN.txt	GEESE	4	8	[0, 0, 0]	n/a	FR1	0	R1135E
905.409	1.6	903405	WORD	n/a	wordpools/wordpool_EN.txt	SKUNK	5	8	[0, 0, 0]	n/a	FR1	0	R1135E
908.01	1.6	906006	WORD	n/a	wordpools/wordpool_EN.txt	CLOCK	6	8	[0, 0, 0]	n/a	FR1	0	R1135E
910.561	1.6	908557	WORD	n/a	wordpools/wordpool_EN.txt	ICE	7	8	[0, 0, 0]	n/a	FR1	0	R1135E
913.078	1.6	911073	WORD	n/a	wordpools/wordpool_EN.txt	LAND	8	8	[0, 0, 0]	n/a	FR1	0	R1135E
915.711	1.6	913706	WORD	n/a	wordpools/wordpool_EN.txt	FARM	9	8	[0, 0, 0]	n/a	FR1	0	R1135E
918.162	1.6	916157	WORD	n/a	wordpools/wordpool_EN.txt	MAP	10	8	[0, 0, 0]	n/a	FR1	0	R1135E
920.696	1.6	918691	WORD	n/a	wordpools/wordpool_EN.txt	ARK	11	8	[0, 0, 0]	n/a	FR1	0	R1135E
923.179	1.6	921174	WORD	n/a	wordpools/wordpool_EN.txt	SKY	12	8	[0, 0, 0]	n/a	FR1	0	R1135E
924.796	0.001	922791	DISTRACT_START	n/a	n/a	n/a	-999	8	[0, 0, 0]	n/a	FR1	0	R1135E
924.797	0.016	922792	START	n/a	n/a	n/a	-999	8	[-999, -999, -999]	n/a	FR1	0	R1135E
924.813	14.635	922808	PROB	14.607	n/a	n/a	-999	8	[7, 5, 1]	12.0	FR1	0	R1135E
939.448	16.159	937442	PROB	16.159	n/a	n/a	-999	8	[6, 6, 9]	20.0	FR1	0	R1135E
955.607	0.011	953599	STOP	n/a	n/a	n/a	-999	8	[-999, -999, -999]	n/a	FR1	0	R1135E
955.618	1.084	953610	DISTRACT_END	n/a	n/a	n/a	-999	8	[0, 0, 0]	n/a	FR1	0	R1135E
956.702	2.421	954694	REC_START	n/a	n/a	n/a	-999	8	[0, 0, 0]	n/a	FR1	0	R1135E
959.123	0.877	957115	REC_WORD	2.421	n/a	LEG	-999	8	[0, 0, 0]	n/a	FR1	0	R1135E
960.0	3.257	957992	REC_WORD	3.298	n/a	MAP	10	8	[0, 0, 0]	n/a	FR1	0	R1135E
963.257	5.246	961249	REC_WORD	6.555	n/a	FARM	9	8	[0, 0, 0]	n/a	FR1	0	R1135E
968.503	4.574	966495	REC_WORD_VV	11.801	n/a	<>	-999	8	[0, 0, 0]	n/a	FR1	0	R1135E
973.077	13.638	971068	REC_WORD_VV	16.375	n/a	<>	-999	8	[0, 0, 0]	n/a	FR1	0	R1135E
986.715	3.96	984705	REC_END	n/a	n/a	n/a	-999	8	[0, 0, 0]	n/a	FR1	0	R1135E
990.675	0.0	988665	TRIAL	n/a	n/a	n/a	-999	9	[0, 0, 0]	n/a	FR1	0	R1135E
990.675	10.0	988665	COUNTDOWN_START	n/a	n/a	n/a	-999	9	[0, 0, 0]	n/a	FR1	0	R1135E
1001.103	0.007	999092	COUNTDOWN_END	n/a	n/a	n/a	-999	9	[0, 0, 0]	n/a	FR1	0	R1135E
1001.11	1.6	999099	ORIENT	n/a	n/a	n/a	-999	9	[0, 0, 0]	n/a	FR1	0	R1135E
1003.61	1.6	1001599	WORD	n/a	wordpools/wordpool_EN.txt	SHEET	1	9	[0, 0, 0]	n/a	FR1	0	R1135E
1006.194	1.6	1004183	WORD	n/a	wordpools/wordpool_EN.txt	NET	2	9	[0, 0, 0]	n/a	FR1	0	R1135E
1008.711	1.6	1006700	WORD	n/a	wordpools/wordpool_EN.txt	WORLD	3	9	[0, 0, 0]	n/a	FR1	0	R1135E
1011.111	1.6	1009100	WORD	n/a	wordpools/wordpool_EN.txt	LIP	4	9	[0, 0, 0]	n/a	FR1	0	R1135E
1013.495	1.6	1011484	WORD	n/a	wordpools/wordpool_EN.txt	SCHOOL	5	9	[0, 0, 0]	n/a	FR1	0	R1135E
1015.962	1.6	1013950	WORD	n/a	wordpools/wordpool_EN.txt	WING	6	9	[0, 0, 0]	n/a	FR1	0	R1135E
1018.346	1.6	1016334	WORD	n/a	wordpools/wordpool_EN.txt	SWAMP	7	9	[0, 0, 0]	n/a	FR1	0	R1135E
1020.797	1.6	1018785	WORD	n/a	wordpools/wordpool_EN.txt	BAT	8	9	[0, 0, 0]	n/a	FR1	0	R1135E
1023.28	1.6	1021268	WORD	n/a	wordpools/wordpool_EN.txt	MAZE	9	9	[0, 0, 0]	n/a	FR1	0	R1135E
1025.797	1.6	1023785	WORD	n/a	wordpools/wordpool_EN.txt	TANK	10	9	[0, 0, 0]	n/a	FR1	0	R1135E
1028.298	1.6	1026286	WORD	n/a	wordpools/wordpool_EN.txt	BADGE	11	9	[0, 0, 0]	n/a	FR1	0	R1135E
1030.831	1.6	1028818	WORD	n/a	wordpools/wordpool_EN.txt	JET	12	9	[0, 0, 0]	n/a	FR1	0	R1135E
1032.448	0.0	1030435	DISTRACT_START	n/a	n/a	n/a	-999	9	[0, 0, 0]	n/a	FR1	0	R1135E
1032.448	0.017	1030435	START	n/a	n/a	n/a	-999	9	[-999, -999, -999]	n/a	FR1	0	R1135E
1032.465	9.719	1030452	PROB	9.689	n/a	n/a	-999	9	[7, 7, 4]	18.0	FR1	0	R1135E
1042.184	12.571	1040171	PROB	12.571	n/a	n/a	-999	9	[5, 5, 7]	17.0	FR1	0	R1135E
1054.755	0.014	1052741	STOP	n/a	n/a	n/a	-999	9	[-999, -999, -999]	n/a	FR1	0	R1135E
1054.769	1.151	1052755	DISTRACT_END	n/a	n/a	n/a	-999	9	[0, 0, 0]	n/a	FR1	0	R1135E
1055.92	2.855	1053906	REC_START	n/a	n/a	n/a	-999	9	[0, 0, 0]	n/a	FR1	0	R1135E
1058.775	4.792	1056760	REC_WORD	2.855	n/a	JET	12	9	[0, 0, 0]	n/a	FR1	0	R1135E
1063.567	10.738	1061552	REC_WORD	7.647	n/a	PLANE	-999	9	[0, 0, 0]	n/a	FR1	0	R1135E
1074.305	11.623	1072289	REC_WORD	18.385	n/a	WORLD	3	9	[0, 0, 0]	n/a	FR1	0	R1135E
1085.928	4.814	1083912	REC_END	n/a	n/a	n/a	-999	9	[0, 0, 0]	n/a	FR1	0	R1135E
1090.742	0.0	1088725	TRIAL	n/a	n/a	n/a	-999	10	[0, 0, 0]	n/a	FR1	0	R1135E
1090.742	10.0	1088725	COUNTDOWN_START	n/a	n/a	n/a	-999	10	[0, 0, 0]	n/a	FR1	0	R1135E
1101.17	0.007	1099153	COUNTDOWN_END	n/a	n/a	n/a	-999	10	[0, 0, 0]	n/a	FR1	0	R1135E
1101.177	1.6	1099160	ORIENT	n/a	n/a	n/a	-999	10	[0, 0, 0]	n/a	FR1	0	R1135E
1103.628	1.6	1101610	WORD	n/a	wordpools/wordpool_EN.txt	JAR	1	10	[0, 0, 0]	n/a	FR1	0	R1135E
1106.111	1.6	1104093	WORD	n/a	wordpools/wordpool_EN.txt	STRAW	2	10	[0, 0, 0]	n/a	FR1	0	R1135E
1108.712	1.6	1106694	WORD	n/a	wordpools/wordpool_EN.txt	CHIN	3	10	[0, 0, 0]	n/a	FR1	0	R1135E
1111.096	1.6	1109078	WORD	n/a	wordpools/wordpool_EN.txt	BEAK	4	10	[0, 0, 0]	n/a	FR1	0	R1135E
1113.696	1.6	1111678	WORD	n/a	wordpools/wordpool_EN.txt	FACE	5	10	[0, 0, 0]	n/a	FR1	0	R1135E
1116.163	1.6	1114145	WORD	n/a	wordpools/wordpool_EN.txt	DOLL	6	10	[0, 0, 0]	n/a	FR1	0	R1135E
1118.78	1.6	1116761	WORD	n/a	wordpools/wordpool_EN.txt	YARD	7	10	[0, 0, 0]	n/a	FR1	0	R1135E
1121.331	1.6	1119312	WORD	n/a	wordpools/wordpool_EN.txt	CHEEK	8	10	[0, 0, 0]	n/a	FR1	0	R1135E
1123.848	1.6	1121829	WORD	n/a	wordpools/wordpool_EN.txt	TEA	9	10	[0, 0, 0]	n/a	FR1	0	R1135E
1126.431	1.6	1124412	WORD	n/a	wordpools/wordpool_EN.txt	SINK	10	10	[0, 0, 0]	n/a	FR1	0	R1135E
1128.982	1.6	1126963	WORD	n/a	wordpools/wordpool_EN.txt	CHAIR	11	10	[0, 0, 0]	n/a	FR1	0	R1135E
1131.415	1.6	1129396	WORD	n/a	wordpools/wordpool_EN.txt	BAG	12	10	[0, 0, 0]	n/a	FR1	0	R1135E
1133.033	0.001	1131013	DISTRACT_START	n/a	n/a	n/a	-999	10	[0, 0, 0]	n/a	FR1	0	R1135E
1133.034	0.015	1131014	START	n/a	n/a	n/a	-999	10	[-999, -999, -999]	n/a	FR1	0	R1135E
1133.049	7.367	1131029	PROB	7.337	n/a	n/a	-999	10	[5, 5, 2]	12.0	FR1	0	R1135E
1140.416	7.686	1138396	PROB	7.664	n/a	n/a	-999	10	[8, 1, 1]	10.0	FR1	0	R1135E
1148.102	8.651	1146081	PROB	8.651	n/a	n/a	-999	10	[4, 4, 4]	12.0	FR1	0	R1135E
1156.753	0.017	1154732	STOP	n/a	n/a	n/a	-999	10	[-999, -999, -999]	n/a	FR1	0	R1135E
1156.77	1.118	1154749	DISTRACT_END	n/a	n/a	n/a	-999	10	[0, 0, 0]	n/a	FR1	0	R1135E
1157.888	4.567	1155867	REC_START	n/a	n/a	n/a	-999	10	[0, 0, 0]	n/a	FR1	0	R1135E
1162.455	13.676	1160433	REC_WORD_VV	4.567	n/a	<>	-999	10	[0, 0, 0]	n/a	FR1	0	R1135E
1176.131	11.766	1174109	REC_WORD_VV	18.243	n/a	<>	-999	10	[0, 0, 0]	n/a	FR1	0	R1135E
1187.897	3.463	1185874	REC_END	n/a	n/a	n/a	-999	10	[0, 0, 0]	n/a	FR1	0	R1135E
1191.36	0.0	1189337	TRIAL	n/a	n/a	n/a	-999	11	[0, 0, 0]	n/a	FR1	0	R1135E
1191.36	10.0	1189337	COUNTDOWN_START	n/a	n/a	n/a	-999	11	[0, 0, 0]	n/a	FR1	0	R1135E
1201.788	0.007	1199764	COUNTDOWN_END	n/a	n/a	n/a	-999	11	[0, 0, 0]	n/a	FR1	0	R1135E
1201.795	1.6	1199771	ORIENT	n/a	n/a	n/a	-999	11	[0, 0, 0]	n/a	FR1	0	R1135E
1204.179	1.6	1202155	WORD	n/a	wordpools/wordpool_EN.txt	SHELL	1	11	[0, 0, 0]	n/a	FR1	0	R1135E
1206.629	1.6	1204604	WORD	n/a	wordpools/wordpool_EN.txt	GLASS	2	11	[0, 0, 0]	n/a	FR1	0	R1135E
1209.146	1.6	1207121	WORD	n/a	wordpools/wordpool_EN.txt	HOOF	3	11	[0, 0, 0]	n/a	FR1	0	R1135E
1211.763	1.6	1209738	WORD	n/a	wordpools/wordpool_EN.txt	ZOO	4	11	[0, 0, 0]	n/a	FR1	0	R1135E
1214.247	1.6	1212222	WORD	n/a	wordpools/wordpool_EN.txt	FLEA	5	11	[0, 0, 0]	n/a	FR1	0	R1135E
1216.698	1.6	1214673	WORD	n/a	wordpools/wordpool_EN.txt	SEA	6	11	[0, 0, 0]	n/a	FR1	0	R1135E
1219.081	1.6	1217056	WORD	n/a	wordpools/wordpool_EN.txt	CONE	7	11	[0, 0, 0]	n/a	FR1	0	R1135E
1221.698	1.6	1219672	WORD	n/a	wordpools/wordpool_EN.txt	BEACH	8	11	[0, 0, 0]	n/a	FR1	0	R1135E
1224.215	1.6	1222189	WORD	n/a	wordpools/wordpool_EN.txt	SNAIL	9	11	[0, 0, 0]	n/a	FR1	0	R1135E
1226.833	1.6	1224807	WORD	n/a	wordpools/wordpool_EN.txt	CLAY	10	11	[0, 0, 0]	n/a	FR1	0	R1135E
1229.382	1.6	1227356	WORD	n/a	wordpools/wordpool_EN.txt	SPONGE	11	11	[0, 0, 0]	n/a	FR1	0	R1135E
1231.917	1.6	1229891	WORD	n/a	wordpools/wordpool_EN.txt	WAVE	12	11	[0, 0, 0]	n/a	FR1	0	R1135E
1233.534	0.0	1231508	DISTRACT_START	n/a	n/a	n/a	-999	11	[0, 0, 0]	n/a	FR1	0	R1135E
1233.534	0.016	1231508	START	n/a	n/a	n/a	-999	11	[-999, -999, -999]	n/a	FR1	0	R1135E
1233.55	12.786	1231524	PROB	12.756	n/a	n/a	-999	11	[3, 4, 5]	12.0	FR1	0	R1135E
1246.336	11.749	1244309	PROB	11.749	n/a	n/a	-999	11	[2, 7, 5]	14.0	FR1	0	R1135E
1258.085	0.02	1256057	STOP	n/a	n/a	n/a	-999	11	[-999, -999, -999]	n/a	FR1	0	R1135E
1258.105	1.117	1256077	DISTRACT_END	n/a	n/a	n/a	-999	11	[0, 0, 0]	n/a	FR1	0	R1135E
1259.222	4.268	1257194	REC_START	n/a	n/a	n/a	-999	11	[0, 0, 0]	n/a	FR1	0	R1135E
1263.49	1.916	1261462	REC_WORD	4.268	n/a	SNAIL	9	11	[0, 0, 0]	n/a	FR1	0	R1135E
1265.406	4.691	1263377	REC_WORD	6.184	n/a	SPONGE	11	11	[0, 0, 0]	n/a	FR1	0	R1135E
1270.097	7.881	1268068	REC_WORD_VV	10.875	n/a	<>	-999	11	[0, 0, 0]	n/a	FR1	0	R1135E
1277.978	11.256	1275949	REC_WORD	18.756	n/a	JET	-999	11	[0, 0, 0]	n/a	FR1	0	R1135E
1289.234	2.71	1287204	REC_END	n/a	n/a	n/a	-999	11	[0, 0, 0]	n/a	FR1	0	R1135E
1291.944	0.0	1289914	TRIAL	n/a	n/a	n/a	-999	12	[0, 0, 0]	n/a	FR1	0	R1135E
1291.944	10.0	1289914	COUNTDOWN_START	n/a	n/a	n/a	-999	12	[0, 0, 0]	n/a	FR1	0	R1135E
1302.372	0.007	1300341	COUNTDOWN_END	n/a	n/a	n/a	-999	12	[0, 0, 0]	n/a	FR1	0	R1135E
1302.379	1.6	1300348	ORIENT	n/a	n/a	n/a	-999	12	[0, 0, 0]	n/a	FR1	0	R1135E
1304.813	1.6	1302782	WORD	n/a	wordpools/wordpool_EN.txt	JEEP	1	12	[0, 0, 0]	n/a	FR1	0	R1135E
1307.213	1.6	1305182	WORD	n/a	wordpools/wordpool_EN.txt	MOUTH	2	12	[0, 0, 0]	n/a	FR1	0	R1135E
1309.681	1.6	1307649	WORD	n/a	wordpools/wordpool_EN.txt	OAK	3	12	[0, 0, 0]	n/a	FR1	0	R1135E
1312.098	1.6	1310066	WORD	n/a	wordpools/wordpool_EN.txt	CUBE	4	12	[0, 0, 0]	n/a	FR1	0	R1135E
1314.598	1.6	1312566	WORD	n/a	wordpools/wordpool_EN.txt	RAKE	5	12	[0, 0, 0]	n/a	FR1	0	R1135E
1317.032	1.6	1315000	WORD	n/a	wordpools/wordpool_EN.txt	TENT	6	12	[0, 0, 0]	n/a	FR1	0	R1135E
1319.448	1.6	1317416	WORD	n/a	wordpools/wordpool_EN.txt	PET	7	12	[0, 0, 0]	n/a	FR1	0	R1135E
1321.899	1.6	1319867	WORD	n/a	wordpools/wordpool_EN.txt	TRAIN	8	12	[0, 0, 0]	n/a	FR1	0	R1135E
1324.516	1.6	1322483	WORD	n/a	wordpools/wordpool_EN.txt	HAT	9	12	[0, 0, 0]	n/a	FR1	0	R1135E
1327.017	1.6	1324984	WORD	n/a	wordpools/wordpool_EN.txt	CAPE	10	12	[0, 0, 0]	n/a	FR1	0	R1135E
1329.45	1.6	1327417	WORD	n/a	wordpools/wordpool_EN.txt	CAT	11	12	[0, 0, 0]	n/a	FR1	0	R1135E
1332.001	1.6	1329968	WORD	n/a	wordpools/wordpool_EN.txt	COW	12	12	[0, 0, 0]	n/a	FR1	0	R1135E
1333.618	0.001	1331585	DISTRACT_START	n/a	n/a	n/a	-999	12	[0, 0, 0]	n/a	FR1	0	R1135E
1333.619	0.016	1331586	START	n/a	n/a	n/a	-999	12	[-999, -999, -999]	n/a	FR1	0	R1135E
1333.635	11.918	1331602	PROB	11.885	n/a	n/a	-999	12	[3, 3, 9]	15.0	FR1	0	R1135E
1345.553	10.953	1343519	PROB	10.953	n/a	n/a	-999	12	[1, 5, 4]	10.0	FR1	0	R1135E
1356.506	0.016	1354471	STOP	n/a	n/a	n/a	-999	12	[-999, -999, -999]	n/a	FR1	0	R1135E
1356.522	1.117	1354487	DISTRACT_END	n/a	n/a	n/a	-999	12	[0, 0, 0]	n/a	FR1	0	R1135E
1357.639	2.764	1355604	REC_START	n/a	n/a	n/a	-999	12	[0, 0, 0]	n/a	FR1	0	R1135E
1360.403	7.955	1358368	REC_WORD	2.764	n/a	JEEP	1	12	[0, 0, 0]	n/a	FR1	0	R1135E
1368.358	19.294	1366323	REC_WORD	10.719	n/a	FACE	-999	12	[0, 0, 0]	n/a	FR1	0	R1135E
1387.652	2.609	1385615	REC_END	n/a	n/a	n/a	-999	12	[0, 0, 0]	n/a	FR1	0	R1135E
1390.261	0.0	1388224	TRIAL	n/a	n/a	n/a	-999	13	[0, 0, 0]	n/a	FR1	0	R1135E
1390.261	10.0	1388224	COUNTDOWN_START	n/a	n/a	n/a	-999	13	[0, 0, 0]	n/a	FR1	0	R1135E
1400.689	0.007	1398651	COUNTDOWN_END	n/a	n/a	n/a	-999	13	[0, 0, 0]	n/a	FR1	0	R1135E
1400.696	1.6	1398658	ORIENT	n/a	n/a	n/a	-999	13	[0, 0, 0]	n/a	FR1	0	R1135E
1403.164	1.6	1401126	WORD	n/a	wordpools/wordpool_EN.txt	SHIRT	1	13	[0, 0, 0]	n/a	FR1	0	R1135E
1405.781	1.6	1403743	WORD	n/a	wordpools/wordpool_EN.txt	FUR	2	13	[0, 0, 0]	n/a	FR1	0	R1135E
1408.198	1.6	1406160	WORD	n/a	wordpools/wordpool_EN.txt	RIB	3	13	[0, 0, 0]	n/a	FR1	0	R1135E
1410.631	1.6	1408593	WORD	n/a	wordpools/wordpool_EN.txt	POOL	4	13	[0, 0, 0]	n/a	FR1	0	R1135E
1413.065	1.6	1411026	WORD	n/a	wordpools/wordpool_EN.txt	SWORD	5	13	[0, 0, 0]	n/a	FR1	0	R1135E
1415.582	1.6	1413543	WORD	n/a	wordpools/wordpool_EN.txt	ARM	6	13	[0, 0, 0]	n/a	FR1	0	R1135E
1418.066	1.6	1416027	WORD	n/a	wordpools/wordpool_EN.txt	FAN	7	13	[0, 0, 0]	n/a	FR1	0	R1135E
1420.467	1.6	1418428	WORD	n/a	wordpools/wordpool_EN.txt	BOY	8	13	[0, 0, 0]	n/a	FR1	0	R1135E
1422.867	1.6	1420828	WORD	n/a	wordpools/wordpool_EN.txt	PURSE	9	13	[0, 0, 0]	n/a	FR1	0	R1135E
1425.367	1.6	1423328	WORD	n/a	wordpools/wordpool_EN.txt	ROPE	10	13	[0, 0, 0]	n/a	FR1	0	R1135E
1427.968	1.6	1425928	WORD	n/a	wordpools/wordpool_EN.txt	BUSH	11	13	[0, 0, 0]	n/a	FR1	0	R1135E
1430.552	1.6	1428512	WORD	n/a	wordpools/wordpool_EN.txt	FOOT	12	13	[0, 0, 0]	n/a	FR1	0	R1135E
1432.169	0.0	1430129	DISTRACT_START	n/a	n/a	n/a	-999	13	[0, 0, 0]	n/a	FR1	0	R1135E
1432.169	0.016	1430129	START	n/a	n/a	n/a	-999	13	[-999, -999, -999]	n/a	FR1	0	R1135E
1432.185	13.936	1430145	PROB	13.904	n/a	n/a	-999	13	[7, 5, 3]	15.0	FR1	0	R1135E
1446.121	8.5	1444080	PROB	8.5	n/a	n/a	-999	13	[2, 6, 1]	9.0	FR1	0	R1135E
1454.621	0.018	1452580	STOP	n/a	n/a	n/a	-999	13	[-999, -999, -999]	n/a	FR1	0	R1135E
1454.639	1.201	1452598	DISTRACT_END	n/a	n/a	n/a	-999	13	[0, 0, 0]	n/a	FR1	0	R1135E
1455.84	2.492	1453799	REC_START	n/a	n/a	n/a	-999	13	[0, 0, 0]	n/a	FR1	0	R1135E
1458.332	5.599	1456290	REC_WORD	2.492	n/a	PURSE	9	13	[0, 0, 0]	n/a	FR1	0	R1135E
1463.931	21.917	1461889	REC_WORD_VV	8.091	n/a	<>	-999	13	[0, 0, 0]	n/a	FR1	0	R1135E
1485.848	2.714	1483805	REC_END	n/a	n/a	n/a	-999	13	[0, 0, 0]	n/a	FR1	0	R1135E
1488.562	10.0	1486518	COUNTDOWN_START	n/a	n/a	n/a	-999	14	[0, 0, 0]	n/a	FR1	0	R1135E
1488.562	10.428	1486518	TRIAL	n/a	n/a	n/a	-999	14	[0, 0, 0]	n/a	FR1	0	R1135E
1498.99	0.007	1496946	COUNTDOWN_END	n/a	n/a	n/a	-999	14	[0, 0, 0]	n/a	FR1	0	R1135E
1498.997	1.6	1496953	ORIENT	n/a	n/a	n/a	-999	14	[0, 0, 0]	n/a	FR1	0	R1135E
1501.413	1.6	1499368	WORD	n/a	wordpools/wordpool_EN.txt	STAR	1	14	[0, 0, 0]	n/a	FR1	0	R1135E
1503.948	1.6	1501903	WORD	n/a	wordpools/wordpool_EN.txt	PIPE	2	14	[0, 0, 0]	n/a	FR1	0	R1135E
1506.532	1.6	1504487	WORD	n/a	wordpools/wordpool_EN.txt	OWL	3	14	[0, 0, 0]	n/a	FR1	0	R1135E
1508.982	1.6	1506937	WORD	n/a	wordpools/wordpool_EN.txt	WOOD	4	14	[0, 0, 0]	n/a	FR1	0	R1135E
1511.566	1.6	1509521	WORD	n/a	wordpools/wordpool_EN.txt	DUCK	5	14	[0, 0, 0]	n/a	FR1	0	R1135E
1514.183	1.6	1512138	WORD	n/a	wordpools/wordpool_EN.txt	POND	6	14	[0, 0, 0]	n/a	FR1	0	R1135E
1516.75	1.6	1514704	WORD	n/a	wordpools/wordpool_EN.txt	CLOUD	7	14	[0, 0, 0]	n/a	FR1	0	R1135E
1519.234	1.6	1517188	WORD	n/a	wordpools/wordpool_EN.txt	FLOOR	8	14	[0, 0, 0]	n/a	FR1	0	R1135E
1521.651	1.6	1519605	WORD	n/a	wordpools/wordpool_EN.txt	DEER	9	14	[0, 0, 0]	n/a	FR1	0	R1135E
1524.051	1.6	1522005	WORD	n/a	wordpools/wordpool_EN.txt	SKI	10	14	[0, 0, 0]	n/a	FR1	0	R1135E
1526.619	1.6	1524573	WORD	n/a	wordpools/wordpool_EN.txt	TOY	11	14	[0, 0, 0]	n/a	FR1	0	R1135E
1529.052	1.6	1527006	WORD	n/a	wordpools/wordpool_EN.txt	WOLF	12	14	[0, 0, 0]	n/a	FR1	0	R1135E
1530.669	0.001	1528623	DISTRACT_START	n/a	n/a	n/a	-999	14	[0, 0, 0]	n/a	FR1	0	R1135E
1530.67	0.016	1528624	START	n/a	n/a	n/a	-999	14	[-999, -999, -999]	n/a	FR1	0	R1135E
1530.686	10.018	1528640	PROB	9.986	n/a	n/a	-999	14	[4, 1, 9]	14.0	FR1	0	R1135E
1540.704	10.108	1538657	PROB	10.108	n/a	n/a	-999	14	[2, 4, 8]	14.0	FR1	0	R1135E
1550.812	0.011	1548764	STOP	n/a	n/a	n/a	-999	14	[-999, -999, -999]	n/a	FR1	0	R1135E
1550.823	1.084	1548775	DISTRACT_END	n/a	n/a	n/a	-999	14	[0, 0, 0]	n/a	FR1	0	R1135E
1551.907	2.417	1549859	REC_START	n/a	n/a	n/a	-999	14	[0, 0, 0]	n/a	FR1	0	R1135E
1554.324	1.056	1552276	REC_WORD_VV	2.417	n/a	<>	-999	14	[0, 0, 0]	n/a	FR1	0	R1135E
1555.38	2.239	1553332	REC_WORD	3.473	n/a	WOLF	12	14	[0, 0, 0]	n/a	FR1	0	R1135E
1557.619	24.298	1555571	REC_WORD_VV	5.712	n/a	<>	-999	14	[0, 0, 0]	n/a	FR1	0	R1135E
1581.917	74.341	1579867	REC_END	n/a	n/a	n/a	-999	14	[0, 0, 0]	n/a	FR1	0	R1135E
1656.258	0.0	1654203	TRIAL	n/a	n/a	n/a	-999	15	[0, 0, 0]	n/a	FR1	0	R1135E
1656.258	10.0	1654203	COUNTDOWN_START	n/a	n/a	n/a	-999	15	[0, 0, 0]	n/a	FR1	0	R1135E
1666.686	0.007	1664630	COUNTDOWN_END	n/a	n/a	n/a	-999	15	[0, 0, 0]	n/a	FR1	0	R1135E
1666.693	1.6	1664637	ORIENT	n/a	n/a	n/a	-999	15	[0, 0, 0]	n/a	FR1	0	R1135E
1669.277	1.6	1667221	WORD	n/a	wordpools/wordpool_EN.txt	THREAD	1	15	[0, 0, 0]	n/a	FR1	0	R1135E
1671.661	1.6	1669605	WORD	n/a	wordpools/wordpool_EN.txt	PIE	2	15	[0, 0, 0]	n/a	FR1	0	R1135E
1674.244	1.6	1672188	WORD	n/a	wordpools/wordpool_EN.txt	WALL	3	15	[0, 0, 0]	n/a	FR1	0	R1135E
1676.745	1.6	1674689	WORD	n/a	wordpools/wordpool_EN.txt	SUIT	4	15	[0, 0, 0]	n/a	FR1	0	R1135E
1679.329	1.6	1677272	WORD	n/a	wordpools/wordpool_EN.txt	STEAK	5	15	[0, 0, 0]	n/a	FR1	0	R1135E
1681.846	1.6	1679789	WORD	n/a	wordpools/wordpool_EN.txt	VASE	6	15	[0, 0, 0]	n/a	FR1	0	R1135E
1684.379	1.6	1682322	WORD	n/a	wordpools/wordpool_EN.txt	SLUSH	7	15	[0, 0, 0]	n/a	FR1	0	R1135E
1686.78	1.6	1684723	WORD	n/a	wordpools/wordpool_EN.txt	TOAST	8	15	[0, 0, 0]	n/a	FR1	0	R1135E
1689.347	1.6	1687290	WORD	n/a	wordpools/wordpool_EN.txt	PHONE	9	15	[0, 0, 0]	n/a	FR1	0	R1135E
1691.814	1.6	1689757	WORD	n/a	wordpools/wordpool_EN.txt	BAND	10	15	[0, 0, 0]	n/a	FR1	0	R1135E
1694.381	1.6	1692323	WORD	n/a	wordpools/wordpool_EN.txt	MAIL	11	15	[0, 0, 0]	n/a	FR1	0	R1135E
1696.815	1.6	1694757	WORD	n/a	wordpools/wordpool_EN.txt	SHRIMP	12	15	[0, 0, 0]	n/a	FR1	0	R1135E
1698.431	0.001	1696373	DISTRACT_START	n/a	n/a	n/a	-999	15	[0, 0, 0]	n/a	FR1	0	R1135E
1698.432	0.016	1696374	START	n/a	n/a	n/a	-999	15	[-999, -999, -999]	n/a	FR1	0	R1135E
1698.448	8.985	1696390	PROB	8.962	n/a	n/a	-999	15	[9, 1, 4]	14.0	FR1	0	R1135E
1707.433	15.283	1705375	PROB	15.283	n/a	n/a	-999	15	[8, 3, 6]	18.0	FR1	0	R1135E
1722.716	0.003	1720657	STOP	n/a	n/a	n/a	-999	15	[-999, -999, -999]	n/a	FR1	0	R1135E
1722.719	1.068	1720660	DISTRACT_END	n/a	n/a	n/a	-999	15	[0, 0, 0]	n/a	FR1	0	R1135E
1723.787	2.948	1721727	REC_START	n/a	n/a	n/a	-999	15	[0, 0, 0]	n/a	FR1	0	R1135E
1726.735	3.974	1724675	REC_WORD	2.948	n/a	SHRIMP	12	15	[0, 0, 0]	n/a	FR1	0	R1135E
1730.709	5.603	1728649	REC_WORD_VV	6.922	n/a	<>	-999	15	[0, 0, 0]	n/a	FR1	0	R1135E
1736.312	11.291	1734252	REC_WORD	12.525	n/a	PIE	2	15	[0, 0, 0]	n/a	FR1	0	R1135E
1747.603	6.194	1745542	REC_WORD_VV	23.816	n/a	<>	-999	15	[0, 0, 0]	n/a	FR1	0	R1135E
1753.797	3.662	1751735	REC_END	n/a	n/a	n/a	-999	15	[0, 0, 0]	n/a	FR1	0	R1135E
1757.459	10.0	1755397	COUNTDOWN_START	n/a	n/a	n/a	-999	16	[0, 0, 0]	n/a	FR1	0	R1135E
1757.459	10.428	1755397	TRIAL	n/a	n/a	n/a	-999	16	[0, 0, 0]	n/a	FR1	0	R1135E
1767.887	0.007	1765824	COUNTDOWN_END	n/a	n/a	n/a	-999	16	[0, 0, 0]	n/a	FR1	0	R1135E
1767.894	1.6	1765831	ORIENT	n/a	n/a	n/a	-999	16	[0, 0, 0]	n/a	FR1	0	R1135E
1770.41	1.6	1768347	WORD	n/a	wordpools/wordpool_EN.txt	STEM	1	16	[0, 0, 0]	n/a	FR1	0	R1135E
1772.845	1.6	1770782	WORD	n/a	wordpools/wordpool_EN.txt	MOON	2	16	[0, 0, 0]	n/a	FR1	0	R1135E
1775.295	1.6	1773232	WORD	n/a	wordpools/wordpool_EN.txt	EGG	3	16	[0, 0, 0]	n/a	FR1	0	R1135E
1777.863	1.6	1775800	WORD	n/a	wordpools/wordpool_EN.txt	TOAD	4	16	[0, 0, 0]	n/a	FR1	0	R1135E
1780.313	1.6	1778250	WORD	n/a	wordpools/wordpool_EN.txt	LEAF	5	16	[0, 0, 0]	n/a	FR1	0	R1135E
1782.83	1.6	1780766	WORD	n/a	wordpools/wordpool_EN.txt	HORSE	6	16	[0, 0, 0]	n/a	FR1	0	R1135E
1785.347	1.6	1783283	WORD	n/a	wordpools/wordpool_EN.txt	CASH	7	16	[0, 0, 0]	n/a	FR1	0	R1135E
1787.881	1.6	1785817	WORD	n/a	wordpools/wordpool_EN.txt	POLE	8	16	[0, 0, 0]	n/a	FR1	0	R1135E
1790.315	1.6	1788251	WORD	n/a	wordpools/wordpool_EN.txt	CORD	9	16	[0, 0, 0]	n/a	FR1	0	R1135E
1792.782	1.6	1790718	WORD	n/a	wordpools/wordpool_EN.txt	BOOK	10	16	[0, 0, 0]	n/a	FR1	0	R1135E
1795.349	1.6	1793285	WORD	n/a	wordpools/wordpool_EN.txt	FUDGE	11	16	[0, 0, 0]	n/a	FR1	0	R1135E
1797.933	1.6	1795868	WORD	n/a	wordpools/wordpool_EN.txt	SEED	12	16	[0, 0, 0]	n/a	FR1	0	R1135E
1799.55	0.0	1797485	DISTRACT_START	n/a	n/a	n/a	-999	16	[0, 0, 0]	n/a	FR1	0	R1135E
1799.55	0.016	1797485	START	n/a	n/a	n/a	-999	16	[-999, -999, -999]	n/a	FR1	0	R1135E
1799.566	12.753	1797501	PROB	12.725	n/a	n/a	-999	16	[5, 8, 2]	15.0	FR1	0	R1135E
1812.319	6.784	1810253	PROB	6.75	n/a	n/a	-999	16	[1, 6, 2]	9.0	FR1	0	R1135E
1819.103	16.75	1817037	PROB	16.75	n/a	n/a	-999	16	[6, 5, 9]	16.0	FR1	0	R1135E
1835.853	0.02	1833786	STOP	n/a	n/a	n/a	-999	16	[-999, -999, -999]	n/a	FR1	0	R1135E
1835.873	1.184	1833806	DISTRACT_END	n/a	n/a	n/a	-999	16	[0, 0, 0]	n/a	FR1	0	R1135E
1837.057	3.715	1834990	REC_START	n/a	n/a	n/a	-999	16	[0, 0, 0]	n/a	FR1	0	R1135E
1840.772	4.278	1838704	REC_WORD	3.715	n/a	FOOD	-999	16	[0, 0, 0]	n/a	FR1	0	R1135E
1845.05	22.017	1842982	REC_WORD_VV	7.993	n/a	<>	-999	16	[0, 0, 0]	n/a	FR1	0	R1135E
1867.067	2.912	1864998	REC_END	n/a	n/a	n/a	-999	16	[0, 0, 0]	n/a	FR1	0	R1135E
1869.979	0.0	1867910	TRIAL	n/a	n/a	n/a	-999	17	[0, 0, 0]	n/a	FR1	0	R1135E
1869.979	10.0	1867910	COUNTDOWN_START	n/a	n/a	n/a	-999	17	[0, 0, 0]	n/a	FR1	0	R1135E
1880.407	0.006	1878337	COUNTDOWN_END	n/a	n/a	n/a	-999	17	[0, 0, 0]	n/a	FR1	0	R1135E
1880.413	1.6	1878343	ORIENT	n/a	n/a	n/a	-999	17	[0, 0, 0]	n/a	FR1	0	R1135E
1882.931	1.6	1880861	WORD	n/a	wordpools/wordpool_EN.txt	HOSE	1	17	[0, 0, 0]	n/a	FR1	0	R1135E
1885.515	1.6	1883444	WORD	n/a	wordpools/wordpool_EN.txt	TRASH	2	17	[0, 0, 0]	n/a	FR1	0	R1135E
1887.915	1.6	1885844	WORD	n/a	wordpools/wordpool_EN.txt	TRUCK	3	17	[0, 0, 0]	n/a	FR1	0	R1135E
1890.499	1.6	1888428	WORD	n/a	wordpools/wordpool_EN.txt	SOUP	4	17	[0, 0, 0]	n/a	FR1	0	R1135E
1893.033	1.6	1890962	WORD	n/a	wordpools/wordpool_EN.txt	DRUM	5	17	[0, 0, 0]	n/a	FR1	0	R1135E
1895.467	1.6	1893396	WORD	n/a	wordpools/wordpool_EN.txt	SUN	6	17	[0, 0, 0]	n/a	FR1	0	R1135E
1898.05	1.6	1895979	WORD	n/a	wordpools/wordpool_EN.txt	PLATE	7	17	[0, 0, 0]	n/a	FR1	0	R1135E
1900.617	1.6	1898545	WORD	n/a	wordpools/wordpool_EN.txt	PIG	8	17	[0, 0, 0]	n/a	FR1	0	R1135E
1903.168	1.6	1901096	WORD	n/a	wordpools/wordpool_EN.txt	SALT	9	17	[0, 0, 0]	n/a	FR1	0	R1135E
1905.652	1.6	1903580	WORD	n/a	wordpools/wordpool_EN.txt	STONE	10	17	[0, 0, 0]	n/a	FR1	0	R1135E
1908.085	1.6	1906013	WORD	n/a	wordpools/wordpool_EN.txt	GRAPE	11	17	[0, 0, 0]	n/a	FR1	0	R1135E
1910.586	1.6	1908514	WORD	n/a	wordpools/wordpool_EN.txt	ELF	12	17	[0, 0, 0]	n/a	FR1	0	R1135E
1912.203	0.0	1910131	DISTRACT_START	n/a	n/a	n/a	-999	17	[0, 0, 0]	n/a	FR1	0	R1135E
1912.203	0.016	1910131	START	n/a	n/a	n/a	-999	17	[-999, -999, -999]	n/a	FR1	0	R1135E
1912.219	8.552	1910147	PROB	8.525	n/a	n/a	-999	17	[8, 8, 3]	18.0	FR1	0	R1135E
1920.771	9.418	1918698	PROB	9.387	n/a	n/a	-999	17	[4, 5, 2]	11.0	FR1	0	R1135E
1930.189	13.373	1928115	PROB	13.373	n/a	n/a	-999	17	[7, 3, 9]	19.0	FR1	0	R1135E
1943.562	0.013	1941488	STOP	n/a	n/a	n/a	-999	17	[-999, -999, -999]	n/a	FR1	0	R1135E
1943.575	1.186	1941501	DISTRACT_END	n/a	n/a	n/a	-999	17	[0, 0, 0]	n/a	FR1	0	R1135E
1944.761	2.664	1942686	REC_START	n/a	n/a	n/a	-999	17	[0, 0, 0]	n/a	FR1	0	R1135E
1947.425	4.595	1945350	REC_WORD	2.664	n/a	ELF	12	17	[0, 0, 0]	n/a	FR1	0	R1135E
1952.02	22.749	1949945	REC_WORD_VV	7.259	n/a	<>	-999	17	[0, 0, 0]	n/a	FR1	0	R1135E
1974.769	2.895	1972692	REC_END	n/a	n/a	n/a	-999	17	[0, 0, 0]	n/a	FR1	0	R1135E
1977.664	0.0	1975587	TRIAL	n/a	n/a	n/a	-999	18	[0, 0, 0]	n/a	FR1	0	R1135E
1977.664	10.0	1975587	COUNTDOWN_START	n/a	n/a	n/a	-999	18	[0, 0, 0]	n/a	FR1	0	R1135E
1988.092	0.007	1986015	COUNTDOWN_END	n/a	n/a	n/a	-999	18	[0, 0, 0]	n/a	FR1	0	R1135E
1988.099	1.6	1986022	ORIENT	n/a	n/a	n/a	-999	18	[0, 0, 0]	n/a	FR1	0	R1135E
1990.716	1.6	1988638	WORD	n/a	wordpools/wordpool_EN.txt	DOG	1	18	[0, 0, 0]	n/a	FR1	0	R1135E
1993.317	1.6	1991239	WORD	n/a	wordpools/wordpool_EN.txt	PEAR	2	18	[0, 0, 0]	n/a	FR1	0	R1135E
1995.767	1.6	1993689	WORD	n/a	wordpools/wordpool_EN.txt	BREAD	3	18	[0, 0, 0]	n/a	FR1	0	R1135E
1998.218	1.6	1996140	WORD	n/a	wordpools/wordpool_EN.txt	TAIL	4	18	[0, 0, 0]	n/a	FR1	0	R1135E
2000.752	1.6	1998674	WORD	n/a	wordpools/wordpool_EN.txt	BRANCH	5	18	[0, 0, 0]	n/a	FR1	0	R1135E
2003.235	1.6	2001156	WORD	n/a	wordpools/wordpool_EN.txt	BEAN	6	18	[0, 0, 0]	n/a	FR1	0	R1135E
2005.753	1.6	2003674	WORD	n/a	wordpools/wordpool_EN.txt	BLOOM	7	18	[0, 0, 0]	n/a	FR1	0	R1135E
2008.303	1.6	2006224	WORD	n/a	wordpools/wordpool_EN.txt	FOOD	8	18	[0, 0, 0]	n/a	FR1	0	R1135E
2010.853	1.6	2008774	WORD	n/a	wordpools/wordpool_EN.txt	LAWN	9	18	[0, 0, 0]	n/a	FR1	0	R1135E
2013.337	1.6	2011258	WORD	n/a	wordpools/wordpool_EN.txt	RICE	10	18	[0, 0, 0]	n/a	FR1	0	R1135E
2015.788	1.6	2013709	WORD	n/a	wordpools/wordpool_EN.txt	EEL	11	18	[0, 0, 0]	n/a	FR1	0	R1135E
2018.255	1.6	2016175	WORD	n/a	wordpools/wordpool_EN.txt	MOTH	12	18	[0, 0, 0]	n/a	FR1	0	R1135E
2019.872	0.0	2017792	DISTRACT_START	n/a	n/a	n/a	-999	18	[0, 0, 0]	n/a	FR1	0	R1135E
2019.872	0.016	2017792	START	n/a	n/a	n/a	-999	18	[-999, -999, -999]	n/a	FR1	0	R1135E
2019.888	8.285	2017808	PROB	8.251	n/a	n/a	-999	18	[3, 9, 1]	13.0	FR1	0	R1135E
2028.173	17.45	2026093	PROB	17.45	n/a	n/a	-999	18	[9, 8, 5]	19.0	FR1	0	R1135E
2045.623	0.003	2043542	STOP	n/a	n/a	n/a	-999	18	[-999, -999, -999]	n/a	FR1	0	R1135E
2045.626	1.184	2043545	DISTRACT_END	n/a	n/a	n/a	-999	18	[0, 0, 0]	n/a	FR1	0	R1135E
2046.81	5.659	2044729	REC_START	n/a	n/a	n/a	-999	18	[0, 0, 0]	n/a	FR1	0	R1135E
2052.469	5.884	2050387	REC_WORD_VV	5.659	n/a	<>	-999	18	[0, 0, 0]	n/a	FR1	0	R1135E
2058.353	3.84	2056271	REC_WORD	11.543	n/a	EEL	11	18	[0, 0, 0]	n/a	FR1	0	R1135E
2062.193	14.633	2060110	REC_WORD_VV	15.383	n/a	<>	-999	18	[0, 0, 0]	n/a	FR1	0	R1135E
2076.826	2.506	2074743	REC_END	n/a	n/a	n/a	-999	18	[0, 0, 0]	n/a	FR1	0	R1135E
2079.332	0.0	2077248	TRIAL	n/a	n/a	n/a	-999	19	[0, 0, 0]	n/a	FR1	0	R1135E
2079.332	10.0	2077248	COUNTDOWN_START	n/a	n/a	n/a	-999	19	[0, 0, 0]	n/a	FR1	0	R1135E
2089.76	0.007	2087676	COUNTDOWN_END	n/a	n/a	n/a	-999	19	[0, 0, 0]	n/a	FR1	0	R1135E
2089.767	1.6	2087683	ORIENT	n/a	n/a	n/a	-999	19	[0, 0, 0]	n/a	FR1	0	R1135E
2092.268	1.6	2090183	WORD	n/a	wordpools/wordpool_EN.txt	CROW	1	19	[0, 0, 0]	n/a	FR1	0	R1135E
2094.751	1.6	2092666	WORD	n/a	wordpools/wordpool_EN.txt	ROOT	2	19	[0, 0, 0]	n/a	FR1	0	R1135E
2097.169	1.6	2095084	WORD	n/a	wordpools/wordpool_EN.txt	PLANT	3	19	[0, 0, 0]	n/a	FR1	0	R1135E
2099.786	1.6	2097701	WORD	n/a	wordpools/wordpool_EN.txt	CHIEF	4	19	[0, 0, 0]	n/a	FR1	0	R1135E
2102.385	1.6	2100300	WORD	n/a	wordpools/wordpool_EN.txt	TEETH	5	19	[0, 0, 0]	n/a	FR1	0	R1135E
2105.003	1.6	2102918	WORD	n/a	wordpools/wordpool_EN.txt	SHIELD	6	19	[0, 0, 0]	n/a	FR1	0	R1135E
2107.62	1.6	2105534	WORD	n/a	wordpools/wordpool_EN.txt	CAVE	7	19	[0, 0, 0]	n/a	FR1	0	R1135E
2110.104	1.6	2108018	WORD	n/a	wordpools/wordpool_EN.txt	WEED	8	19	[0, 0, 0]	n/a	FR1	0	R1135E
2112.655	1.6	2110569	WORD	n/a	wordpools/wordpool_EN.txt	BRUSH	9	19	[0, 0, 0]	n/a	FR1	0	R1135E
2115.238	1.6	2113152	WORD	n/a	wordpools/wordpool_EN.txt	PASTE	10	19	[0, 0, 0]	n/a	FR1	0	R1135E
2117.639	1.6	2115553	WORD	n/a	wordpools/wordpool_EN.txt	SEAL	11	19	[0, 0, 0]	n/a	FR1	0	R1135E
2120.256	1.6	2118170	WORD	n/a	wordpools/wordpool_EN.txt	FOAM	12	19	[0, 0, 0]	n/a	FR1	0	R1135E
2121.873	0.001	2119786	DISTRACT_START	n/a	n/a	n/a	-999	19	[0, 0, 0]	n/a	FR1	0	R1135E
2121.874	0.016	2119787	START	n/a	n/a	n/a	-999	19	[-999, -999, -999]	n/a	FR1	0	R1135E
2121.89	12.902	2119803	PROB	12.881	n/a	n/a	-999	19	[3, 5, 8]	16.0	FR1	0	R1135E
2134.792	12.204	2132705	PROB	12.204	n/a	n/a	-999	19	[3, 3, 8]	14.0	FR1	0	R1135E
2146.996	0.015	2144908	STOP	n/a	n/a	n/a	-999	19	[-999, -999, -999]	n/a	FR1	0	R1135E
2147.011	1.167	2144923	DISTRACT_END	n/a	n/a	n/a	-999	19	[0, 0, 0]	n/a	FR1	0	R1135E
2148.178	2.943	2146090	REC_START	n/a	n/a	n/a	-999	19	[0, 0, 0]	n/a	FR1	0	R1135E
2151.121	4.115	2149032	REC_WORD	2.943	n/a	WEED	8	19	[0, 0, 0]	n/a	FR1	0	R1135E
2155.236	5.008	2153147	REC_WORD	7.058	n/a	FOAM	12	19	[0, 0, 0]	n/a	FR1	0	R1135E
2160.244	7.017	2158155	REC_WORD	12.066	n/a	SHELF	-999	19	[0, 0, 0]	n/a	FR1	0	R1135E
2167.261	7.429	2165171	REC_WORD	19.083	n/a	SHED	-999	19	[0, 0, 0]	n/a	FR1	0	R1135E
2174.69	3.498	2172600	REC_WORD	26.512	n/a	SHELF	-999	19	[0, 0, 0]	n/a	FR1	0	R1135E
2178.188	3.079	2176098	REC_END	n/a	n/a	n/a	-999	19	[0, 0, 0]	n/a	FR1	0	R1135E
2181.267	10.0	2179176	COUNTDOWN_START	n/a	n/a	n/a	-999	20	[0, 0, 0]	n/a	FR1	0	R1135E
2181.267	10.428	2179176	TRIAL	n/a	n/a	n/a	-999	20	[0, 0, 0]	n/a	FR1	0	R1135E
2191.695	0.007	2189604	COUNTDOWN_END	n/a	n/a	n/a	-999	20	[0, 0, 0]	n/a	FR1	0	R1135E
2191.702	1.6	2189611	ORIENT	n/a	n/a	n/a	-999	20	[0, 0, 0]	n/a	FR1	0	R1135E
2194.119	1.6	2192028	WORD	n/a	wordpools/wordpool_EN.txt	PIT	1	20	[0, 0, 0]	n/a	FR1	0	R1135E
2196.736	1.6	2194644	WORD	n/a	wordpools/wordpool_EN.txt	PEACH	2	20	[0, 0, 0]	n/a	FR1	0	R1135E
2199.203	1.6	2197111	WORD	n/a	wordpools/wordpool_EN.txt	FLUTE	3	20	[0, 0, 0]	n/a	FR1	0	R1135E
2201.587	1.6	2199495	WORD	n/a	wordpools/wordpool_EN.txt	CORN	4	20	[0, 0, 0]	n/a	FR1	0	R1135E
2203.971	1.6	2201879	WORD	n/a	wordpools/wordpool_EN.txt	JUDGE	5	20	[0, 0, 0]	n/a	FR1	0	R1135E
2206.471	1.6	2204379	WORD	n/a	wordpools/wordpool_EN.txt	CART	6	20	[0, 0, 0]	n/a	FR1	0	R1135E
2208.955	1.6	2206863	WORD	n/a	wordpools/wordpool_EN.txt	TREE	7	20	[0, 0, 0]	n/a	FR1	0	R1135E
2211.355	1.6	2209262	WORD	n/a	wordpools/wordpool_EN.txt	ROOM	8	20	[0, 0, 0]	n/a	FR1	0	R1135E
2213.739	1.6	2211646	WORD	n/a	wordpools/wordpool_EN.txt	STREET	9	20	[0, 0, 0]	n/a	FR1	0	R1135E
2216.123	1.6	2214030	WORD	n/a	wordpools/wordpool_EN.txt	BENCH	10	20	[0, 0, 0]	n/a	FR1	0	R1135E
2218.723	1.6	2216630	WORD	n/a	wordpools/wordpool_EN.txt	BOWL	11	20	[0, 0, 0]	n/a	FR1	0	R1135E
2221.257	1.6	2219164	WORD	n/a	wordpools/wordpool_EN.txt	FRUIT	12	20	[0, 0, 0]	n/a	FR1	0	R1135E
2222.874	0.001	2220781	DISTRACT_START	n/a	n/a	n/a	-999	20	[0, 0, 0]	n/a	FR1	0	R1135E
2222.875	0.016	2220782	START	n/a	n/a	n/a	-999	20	[-999, -999, -999]	n/a	FR1	0	R1135E
2222.891	11.618	2220798	PROB	11.585	n/a	n/a	-999	20	[4, 3, 8]	15.0	FR1	0	R1135E
2234.509	12.361	2232415	PROB	12.361	n/a	n/a	-999	20	[6, 5, 1]	12.0	FR1	0	R1135E
2246.87	0.008	2244775	STOP	n/a	n/a	n/a	-999	20	[-999, -999, -999]	n/a	FR1	0	R1135E
2246.878	1.051	2244783	DISTRACT_END	n/a	n/a	n/a	-999	20	[0, 0, 0]	n/a	FR1	0	R1135E
2247.929	4.18	2245834	REC_START	n/a	n/a	n/a	-999	20	[0, 0, 0]	n/a	FR1	0	R1135E
2252.109	25.83	2250014	REC_WORD_VV	4.18	n/a	<>	-999	20	[0, 0, 0]	n/a	FR1	0	R1135E
2277.939	3.028	2275842	REC_END	n/a	n/a	n/a	-999	20	[0, 0, 0]	n/a	FR1	0	R1135E
2280.967	10.0	2278870	COUNTDOWN_START	n/a	n/a	n/a	-999	21	[0, 0, 0]	n/a	FR1	0	R1135E
2280.968	10.427	2278871	TRIAL	n/a	n/a	n/a	-999	21	[0, 0, 0]	n/a	FR1	0	R1135E
2291.395	0.007	2289297	COUNTDOWN_END	n/a	n/a	n/a	-999	21	[0, 0, 0]	n/a	FR1	0	R1135E
2291.402	1.6	2289304	ORIENT	n/a	n/a	n/a	-999	21	[0, 0, 0]	n/a	FR1	0	R1135E
2293.97	1.6	2291872	WORD	n/a	wordpools/wordpool_EN.txt	KEY	1	21	[0, 0, 0]	n/a	FR1	0	R1135E
2296.57	1.6	2294472	WORD	n/a	wordpools/wordpool_EN.txt	GOLD	2	21	[0, 0, 0]	n/a	FR1	0	R1135E
2299.021	1.6	2296922	WORD	n/a	wordpools/wordpool_EN.txt	FILM	3	21	[0, 0, 0]	n/a	FR1	0	R1135E
2301.621	1.6	2299522	WORD	n/a	wordpools/wordpool_EN.txt	BOMB	4	21	[0, 0, 0]	n/a	FR1	0	R1135E
2304.138	1.6	2302039	WORD	n/a	wordpools/wordpool_EN.txt	PRINCE	5	21	[0, 0, 0]	n/a	FR1	0	R1135E
2306.755	1.6	2304656	WORD	n/a	wordpools/wordpool_EN.txt	EAR	6	21	[0, 0, 0]	n/a	FR1	0	R1135E
2309.156	1.6	2307057	WORD	n/a	wordpools/wordpool_EN.txt	DART	7	21	[0, 0, 0]	n/a	FR1	0	R1135E
2311.573	1.6	2309474	WORD	n/a	wordpools/wordpool_EN.txt	BALL	8	21	[0, 0, 0]	n/a	FR1	0	R1135E
2314.173	1.6	2312073	WORD	n/a	wordpools/wordpool_EN.txt	PLANE	9	21	[0, 0, 0]	n/a	FR1	0	R1135E
2316.69	1.6	2314590	WORD	n/a	wordpools/wordpool_EN.txt	SPARK	10	21	[0, 0, 0]	n/a	FR1	0	R1135E
2319.258	1.6	2317158	WORD	n/a	wordpools/wordpool_EN.txt	COIN	11	21	[0, 0, 0]	n/a	FR1	0	R1135E
2321.658	1.6	2319558	WORD	n/a	wordpools/wordpool_EN.txt	SPOON	12	21	[0, 0, 0]	n/a	FR1	0	R1135E
2323.275	0.001	2321175	DISTRACT_START	n/a	n/a	n/a	-999	21	[0, 0, 0]	n/a	FR1	0	R1135E
2323.276	0.016	2321176	START	n/a	n/a	n/a	-999	21	[-999, -999, -999]	n/a	FR1	0	R1135E
2323.292	14.385	2321192	PROB	14.359	n/a	n/a	-999	21	[3, 6, 8]	17.0	FR1	0	R1135E
2337.677	15.955	2335576	PROB	15.955	n/a	n/a	-999	21	[9, 7, 9]	22.0	FR1	0	R1135E
2353.632	0.015	2351530	STOP	n/a	n/a	n/a	-999	21	[-999, -999, -999]	n/a	FR1	0	R1135E
2353.647	1.084	2351545	DISTRACT_END	n/a	n/a	n/a	-999	21	[0, 0, 0]	n/a	FR1	0	R1135E
2354.731	3.85	2352629	REC_START	n/a	n/a	n/a	-999	21	[0, 0, 0]	n/a	FR1	0	R1135E
2358.581	26.16	2356478	REC_WORD_VV	3.85	n/a	<>	-999	21	[0, 0, 0]	n/a	FR1	0	R1135E
2384.741	195.629	2382637	REC_END	n/a	n/a	n/a	-999	21	[0, 0, 0]	n/a	FR1	0	R1135E
2580.37	0.0	2578252	TRIAL	n/a	n/a	n/a	-999	22	[0, 0, 0]	n/a	FR1	0	R1135E
2580.37	10.0	2578252	COUNTDOWN_START	n/a	n/a	n/a	-999	22	[0, 0, 0]	n/a	FR1	0	R1135E
2590.798	0.007	2588680	COUNTDOWN_END	n/a	n/a	n/a	-999	22	[0, 0, 0]	n/a	FR1	0	R1135E
2590.805	1.6	2588687	ORIENT	n/a	n/a	n/a	-999	22	[0, 0, 0]	n/a	FR1	0	R1135E
2593.222	1.6	2591104	WORD	n/a	wordpools/wordpool_EN.txt	ROAD	1	22	[0, 0, 0]	n/a	FR1	0	R1135E
2595.672	1.6	2593553	WORD	n/a	wordpools/wordpool_EN.txt	ROOF	2	22	[0, 0, 0]	n/a	FR1	0	R1135E
2598.29	1.6	2596171	WORD	n/a	wordpools/wordpool_EN.txt	PARK	3	22	[0, 0, 0]	n/a	FR1	0	R1135E
2600.807	1.6	2598688	WORD	n/a	wordpools/wordpool_EN.txt	KITE	4	22	[0, 0, 0]	n/a	FR1	0	R1135E
2603.423	1.6	2601304	WORD	n/a	wordpools/wordpool_EN.txt	BOX	5	22	[0, 0, 0]	n/a	FR1	0	R1135E
2605.974	1.6	2603855	WORD	n/a	wordpools/wordpool_EN.txt	FOG	6	22	[0, 0, 0]	n/a	FR1	0	R1135E
2608.458	1.6	2606338	WORD	n/a	wordpools/wordpool_EN.txt	SMILE	7	22	[0, 0, 0]	n/a	FR1	0	R1135E
2610.992	1.6	2608872	WORD	n/a	wordpools/wordpool_EN.txt	VAN	8	22	[0, 0, 0]	n/a	FR1	0	R1135E
2613.559	1.6	2611439	WORD	n/a	wordpools/wordpool_EN.txt	CAR	9	22	[0, 0, 0]	n/a	FR1	0	R1135E
2616.093	1.6	2613973	WORD	n/a	wordpools/wordpool_EN.txt	RUG	10	22	[0, 0, 0]	n/a	FR1	0	R1135E
2618.693	1.6	2616573	WORD	n/a	wordpools/wordpool_EN.txt	CLOWN	11	22	[0, 0, 0]	n/a	FR1	0	R1135E
2621.094	1.6	2618974	WORD	n/a	wordpools/wordpool_EN.txt	LAMP	12	22	[0, 0, 0]	n/a	FR1	0	R1135E
2622.711	0.0	2620591	DISTRACT_START	n/a	n/a	n/a	-999	22	[0, 0, 0]	n/a	FR1	0	R1135E
2622.711	0.016	2620591	START	n/a	n/a	n/a	-999	22	[-999, -999, -999]	n/a	FR1	0	R1135E
2622.727	8.469	2620607	PROB	8.448	n/a	n/a	-999	22	[4, 2, 3]	9.0	FR1	0	R1135E
2631.196	19.955	2629075	PROB	19.955	n/a	n/a	-999	22	[8, 6, 9]	18.0	FR1	0	R1135E
2651.151	0.015	2649029	STOP	n/a	n/a	n/a	-999	22	[-999, -999, -999]	n/a	FR1	0	R1135E
2651.166	1.05	2649044	DISTRACT_END	n/a	n/a	n/a	-999	22	[0, 0, 0]	n/a	FR1	0	R1135E
2652.216	2.262	2650094	REC_START	n/a	n/a	n/a	-999	22	[0, 0, 0]	n/a	FR1	0	R1135E
2654.478	1.245	2652355	REC_WORD	2.262	n/a	ROOF	2	22	[0, 0, 0]	n/a	FR1	0	R1135E
2655.723	8.291	2653600	REC_WORD	3.507	n/a	ROAD	1	22	[0, 0, 0]	n/a	FR1	0	R1135E
2664.014	7.042	2661891	REC_WORD	11.798	n/a	LAMP	12	22	[0, 0, 0]	n/a	FR1	0	R1135E
2671.056	11.174	2668932	REC_WORD_VV	18.84	n/a	<>	-999	22	[0, 0, 0]	n/a	FR1	0	R1135E
2682.23	2.642	2680105	REC_END	n/a	n/a	n/a	-999	22	[0, 0, 0]	n/a	FR1	0	R1135E
2684.872	0.0	2682747	TRIAL	n/a	n/a	n/a	-999	23	[0, 0, 0]	n/a	FR1	0	R1135E
2684.872	10.0	2682747	COUNTDOWN_START	n/a	n/a	n/a	-999	23	[0, 0, 0]	n/a	FR1	0	R1135E
2695.3	0.007	2693175	COUNTDOWN_END	n/a	n/a	n/a	-999	23	[0, 0, 0]	n/a	FR1	0	R1135E
2695.307	1.6	2693182	ORIENT	n/a	n/a	n/a	-999	23	[0, 0, 0]	n/a	FR1	0	R1135E
2697.707	1.6	2695581	WORD	n/a	wordpools/wordpool_EN.txt	SEAT	1	23	[0, 0, 0]	n/a	FR1	0	R1135E
2700.308	1.6	2698182	WORD	n/a	wordpools/wordpool_EN.txt	DOOR	2	23	[0, 0, 0]	n/a	FR1	0	R1135E
2702.758	1.6	2700632	WORD	n/a	wordpools/wordpool_EN.txt	THUMB	3	23	[0, 0, 0]	n/a	FR1	0	R1135E
2705.325	1.6	2703199	WORD	n/a	wordpools/wordpool_EN.txt	BROOM	4	23	[0, 0, 0]	n/a	FR1	0	R1135E
2707.775	1.6	2705649	WORD	n/a	wordpools/wordpool_EN.txt	HAND	5	23	[0, 0, 0]	n/a	FR1	0	R1135E
2710.392	1.6	2708266	WORD	n/a	wordpools/wordpool_EN.txt	CRANE	6	23	[0, 0, 0]	n/a	FR1	0	R1135E
2712.96	1.6	2710833	WORD	n/a	wordpools/wordpool_EN.txt	TOOL	7	23	[0, 0, 0]	n/a	FR1	0	R1135E
2715.46	1.6	2713333	WORD	n/a	wordpools/wordpool_EN.txt	HOUSE	8	23	[0, 0, 0]	n/a	FR1	0	R1135E
2717.944	1.6	2715817	WORD	n/a	wordpools/wordpool_EN.txt	SHOE	9	23	[0, 0, 0]	n/a	FR1	0	R1135E
2720.345	1.6	2718218	WORD	n/a	wordpools/wordpool_EN.txt	HORN	10	23	[0, 0, 0]	n/a	FR1	0	R1135E
2722.928	1.6	2720801	WORD	n/a	wordpools/wordpool_EN.txt	LOCK	11	23	[0, 0, 0]	n/a	FR1	0	R1135E
2725.428	1.6	2723301	WORD	n/a	wordpools/wordpool_EN.txt	FROG	12	23	[0, 0, 0]	n/a	FR1	0	R1135E
2727.046	0.0	2724918	DISTRACT_START	n/a	n/a	n/a	-999	23	[0, 0, 0]	n/a	FR1	0	R1135E
2727.046	0.016	2724918	START	n/a	n/a	n/a	-999	23	[-999, -999, -999]	n/a	FR1	0	R1135E
2727.062	10.836	2724934	PROB	10.813	n/a	n/a	-999	23	[4, 2, 8]	14.0	FR1	0	R1135E
2737.898	10.761	2735770	PROB	10.761	n/a	n/a	-999	23	[2, 4, 8]	14.0	FR1	0	R1135E
2748.659	0.007	2746530	STOP	n/a	n/a	n/a	-999	23	[-999, -999, -999]	n/a	FR1	0	R1135E
2748.666	1.234	2746537	DISTRACT_END	n/a	n/a	n/a	-999	23	[0, 0, 0]	n/a	FR1	0	R1135E
2749.9	7.773	2747771	REC_START	n/a	n/a	n/a	-999	23	[0, 0, 0]	n/a	FR1	0	R1135E
2757.673	22.247	2755543	REC_WORD_VV	7.773	n/a	<>	-999	23	[0, 0, 0]	n/a	FR1	0	R1135E
2779.92	4.286	2777789	REC_END	n/a	n/a	n/a	-999	23	[0, 0, 0]	n/a	FR1	0	R1135E
2784.206	0.0	2782075	TRIAL	n/a	n/a	n/a	-999	24	[0, 0, 0]	n/a	FR1	0	R1135E
2784.206	10.0	2782075	COUNTDOWN_START	n/a	n/a	n/a	-999	24	[0, 0, 0]	n/a	FR1	0	R1135E
2794.634	0.007	2792502	COUNTDOWN_END	n/a	n/a	n/a	-999	24	[0, 0, 0]	n/a	FR1	0	R1135E
2794.641	1.6	2792509	ORIENT	n/a	n/a	n/a	-999	24	[0, 0, 0]	n/a	FR1	0	R1135E
2797.225	1.6	2795093	WORD	n/a	wordpools/wordpool_EN.txt	MULE	1	24	[0, 0, 0]	n/a	FR1	0	R1135E
2799.792	1.6	2797660	WORD	n/a	wordpools/wordpool_EN.txt	FORT	2	24	[0, 0, 0]	n/a	FR1	0	R1135E
2802.276	1.6	2800143	WORD	n/a	wordpools/wordpool_EN.txt	PEA	3	24	[0, 0, 0]	n/a	FR1	0	R1135E
2804.843	1.6	2802710	WORD	n/a	wordpools/wordpool_EN.txt	HILL	4	24	[0, 0, 0]	n/a	FR1	0	R1135E
2807.425	1.6	2805292	WORD	n/a	wordpools/wordpool_EN.txt	HEN	5	24	[0, 0, 0]	n/a	FR1	0	R1135E
2809.793	1.6	2807660	WORD	n/a	wordpools/wordpool_EN.txt	MAT	6	24	[0, 0, 0]	n/a	FR1	0	R1135E
2812.31	1.6	2810177	WORD	n/a	wordpools/wordpool_EN.txt	PANTS	7	24	[0, 0, 0]	n/a	FR1	0	R1135E
2814.894	1.6	2812760	WORD	n/a	wordpools/wordpool_EN.txt	FOX	8	24	[0, 0, 0]	n/a	FR1	0	R1135E
2817.362	1.6	2815228	WORD	n/a	wordpools/wordpool_EN.txt	FLAG	9	24	[0, 0, 0]	n/a	FR1	0	R1135E
2819.779	1.6	2817645	WORD	n/a	wordpools/wordpool_EN.txt	SIGN	10	24	[0, 0, 0]	n/a	FR1	0	R1135E
2822.296	1.6	2820162	WORD	n/a	wordpools/wordpool_EN.txt	GUARD	11	24	[0, 0, 0]	n/a	FR1	0	R1135E
2824.713	1.6	2822579	WORD	n/a	wordpools/wordpool_EN.txt	HAWK	12	24	[0, 0, 0]	n/a	FR1	0	R1135E
2826.33	0.001	2824196	DISTRACT_START	n/a	n/a	n/a	-999	24	[0, 0, 0]	n/a	FR1	0	R1135E
2826.331	0.015	2824197	START	n/a	n/a	n/a	-999	24	[-999, -999, -999]	n/a	FR1	0	R1135E
2826.346	14.586	2824212	PROB	14.56	n/a	n/a	-999	24	[5, 9, 1]	15.0	FR1	0	R1135E
2840.932	11.623	2838797	PROB	11.623	n/a	n/a	-999	24	[9, 2, 9]	20.0	FR1	0	R1135E
2852.555	0.013	2850419	STOP	n/a	n/a	n/a	-999	24	[-999, -999, -999]	n/a	FR1	0	R1135E
2852.568	1.1	2850432	DISTRACT_END	n/a	n/a	n/a	-999	24	[0, 0, 0]	n/a	FR1	0	R1135E
2853.668	6.107	2851532	REC_START	n/a	n/a	n/a	-999	24	[0, 0, 0]	n/a	FR1	0	R1135E
2859.775	8.072	2857638	REC_WORD	6.107	n/a	ROOF	-999	24	[0, 0, 0]	n/a	FR1	0	R1135E
2867.847	15.837	2865710	REC_WORD_VV	14.179	n/a	<>	-999	24	[0, 0, 0]	n/a	FR1	0	R1135E
2883.684	2.823	2881546	REC_END	n/a	n/a	n/a	-999	24	[0, 0, 0]	n/a	FR1	0	R1135E
2886.507	0.0	2884369	TRIAL	n/a	n/a	n/a	-999	25	[0, 0, 0]	n/a	FR1	0	R1135E
2886.507	10.0	2884369	COUNTDOWN_START	n/a	n/a	n/a	-999	25	[0, 0, 0]	n/a	FR1	0	R1135E
2896.935	0.007	2894796	COUNTDOWN_END	n/a	n/a	n/a	-999	25	[0, 0, 0]	n/a	FR1	0	R1135E
2896.942	1.6	2894803	ORIENT	n/a	n/a	n/a	-999	25	[0, 0, 0]	n/a	FR1	0	R1135E
2899.559	1.6	2897420	WORD	n/a	wordpools/wordpool_EN.txt	BEE	1	25	[0, 0, 0]	n/a	FR1	0	R1135E
2901.96	1.6	2899821	WORD	n/a	wordpools/wordpool_EN.txt	STORE	2	25	[0, 0, 0]	n/a	FR1	0	R1135E
2904.36	1.6	2902220	WORD	n/a	wordpools/wordpool_EN.txt	MOLE	3	25	[0, 0, 0]	n/a	FR1	0	R1135E
2906.744	1.6	2904604	WORD	n/a	wordpools/wordpool_EN.txt	ROCK	4	25	[0, 0, 0]	n/a	FR1	0	R1135E
2909.328	1.6	2907188	WORD	n/a	wordpools/wordpool_EN.txt	BIRD	5	25	[0, 0, 0]	n/a	FR1	0	R1135E
2911.861	1.6	2909721	WORD	n/a	wordpools/wordpool_EN.txt	BEAR	6	25	[0, 0, 0]	n/a	FR1	0	R1135E
2914.262	1.6	2912122	WORD	n/a	wordpools/wordpool_EN.txt	RAIN	7	25	[0, 0, 0]	n/a	FR1	0	R1135E
2916.746	1.6	2914606	WORD	n/a	wordpools/wordpool_EN.txt	APE	8	25	[0, 0, 0]	n/a	FR1	0	R1135E
2919.163	1.6	2917022	WORD	n/a	wordpools/wordpool_EN.txt	ANT	9	25	[0, 0, 0]	n/a	FR1	0	R1135E
2921.546	1.6	2919405	WORD	n/a	wordpools/wordpool_EN.txt	NEST	10	25	[0, 0, 0]	n/a	FR1	0	R1135E
2923.964	1.6	2921823	WORD	n/a	wordpools/wordpool_EN.txt	JAIL	11	25	[0, 0, 0]	n/a	FR1	0	R1135E
2926.43	1.6	2924289	WORD	n/a	wordpools/wordpool_EN.txt	RAT	12	25	[0, 0, 0]	n/a	FR1	0	R1135E
2928.048	0.001	2925907	DISTRACT_START	n/a	n/a	n/a	-999	25	[0, 0, 0]	n/a	FR1	0	R1135E
2928.049	0.015	2925908	START	n/a	n/a	n/a	-999	25	[-999, -999, -999]	n/a	FR1	0	R1135E
2928.064	9.285	2925923	PROB	9.262	n/a	n/a	-999	25	[4, 4, 3]	11.0	FR1	0	R1135E
2937.349	8.785	2935207	PROB	8.757	n/a	n/a	-999	25	[7, 7, 1]	15.0	FR1	0	R1135E
2946.134	10.364	2943992	PROB	10.364	n/a	n/a	-999	25	[8, 1, 4]	13.0	FR1	0	R1135E
2956.498	0.005	2954355	STOP	n/a	n/a	n/a	-999	25	[-999, -999, -999]	n/a	FR1	0	R1135E
2956.503	1.15	2954360	DISTRACT_END	n/a	n/a	n/a	-999	25	[0, 0, 0]	n/a	FR1	0	R1135E
2957.653	23.482	2955510	REC_START	n/a	n/a	n/a	-999	25	[0, 0, 0]	n/a	FR1	0	R1135E
2981.135	6.534	2978990	REC_WORD_VV	23.482	n/a	<>	-999	25	[0, 0, 0]	n/a	FR1	0	R1135E
2987.669	5.54	2985524	REC_END	n/a	n/a	n/a	-999	25	[0, 0, 0]	n/a	FR1	0	R1135E
2993.209	0.0	2991063	SESS_END	n/a	n/a	n/a	-999	25	[0, 0, 0]	n/a	FR1	0	R1135E
