onset	duration	sample	trial_type	response_time	stim_file	item_name	serialpos	list	test	answer	experiment	session	subject
0.0	5.824	69838	INSTRUCT_START	n/a	n/a	n/a	-999	-999	[0, 0, 0]	n/a	FR1	2	R1384J
5.824	20.059	75657	INSTRUCT_END	n/a	n/a	n/a	-999	-999	[0, 0, 0]	n/a	FR1	2	R1384J
25.883	10.0	95722	COUNTDOWN_START	n/a	n/a	n/a	-999	-999	[0, 0, 0]	n/a	FR1	2	R1384J
36.244	0.001	106082	COUNTDOWN_END	n/a	n/a	n/a	-999	-999	[0, 0, 0]	n/a	FR1	2	R1384J
36.245	1.988	106082	ENCODING_START	n/a	n/a	n/a	-999	-1	[0, 0, 0]	n/a	FR1	2	R1384J
38.233	1.6	108066	WORD	n/a	n/a	COTTON	1	-1	[0, 0, 0]	n/a	FR1	2	R1384J
39.833	0.933	109672	WORD_OFF	n/a	n/a	COTTON	1	-1	[0, 0, 0]	n/a	FR1	2	R1384J
40.766	1.6	110602	WORD	n/a	n/a	RHINO	2	-1	[0, 0, 0]	n/a	FR1	2	R1384J
42.366	0.983	112208	WORD_OFF	n/a	n/a	RHINO	2	-1	[0, 0, 0]	n/a	FR1	2	R1384J
43.349	1.6	113190	WORD	n/a	n/a	WAGON	3	-1	[0, 0, 0]	n/a	FR1	2	R1384J
44.95	0.9	114785	WORD_OFF	n/a	n/a	WAGON	3	-1	[0, 0, 0]	n/a	FR1	2	R1384J
45.85	1.6	115685	WORD	n/a	n/a	RING	4	-1	[0, 0, 0]	n/a	FR1	2	R1384J
47.465	0.785	117301	WORD_OFF	n/a	n/a	RING	4	-1	[0, 0, 0]	n/a	FR1	2	R1384J
48.25	1.6	118088	WORD	n/a	n/a	BEAM	5	-1	[0, 0, 0]	n/a	FR1	2	R1384J
49.85	0.882	119684	WORD_OFF	n/a	n/a	BEAM	5	-1	[0, 0, 0]	n/a	FR1	2	R1384J
50.732	1.6	120573	WORD	n/a	n/a	CHEST	6	-1	[0, 0, 0]	n/a	FR1	2	R1384J
52.333	0.95	122169	WORD_OFF	n/a	n/a	CHEST	6	-1	[0, 0, 0]	n/a	FR1	2	R1384J
53.283	1.6	123120	WORD	n/a	n/a	IMAGE	7	-1	[0, 0, 0]	n/a	FR1	2	R1384J
54.883	0.833	124726	WORD_OFF	n/a	n/a	IMAGE	7	-1	[0, 0, 0]	n/a	FR1	2	R1384J
55.716	1.6	125554	WORD	n/a	n/a	BABY	8	-1	[0, 0, 0]	n/a	FR1	2	R1384J
57.333	0.985	127170	WORD_OFF	n/a	n/a	BABY	8	-1	[0, 0, 0]	n/a	FR1	2	R1384J
58.318	1.6	128152	WORD	n/a	n/a	FLOOD	9	-1	[0, 0, 0]	n/a	FR1	2	R1384J
59.916	0.767	129757	WORD_OFF	n/a	n/a	FLOOD	9	-1	[0, 0, 0]	n/a	FR1	2	R1384J
60.683	1.6	130524	WORD	n/a	n/a	TONGUE	10	-1	[0, 0, 0]	n/a	FR1	2	R1384J
62.283	0.933	132120	WORD_OFF	n/a	n/a	TONGUE	10	-1	[0, 0, 0]	n/a	FR1	2	R1384J
63.216	1.6	133050	WORD	n/a	n/a	CAMEL	11	-1	[0, 0, 0]	n/a	FR1	2	R1384J
64.817	1.0	134656	WORD_OFF	n/a	n/a	CAMEL	11	-1	[0, 0, 0]	n/a	FR1	2	R1384J
65.817	1.6	135648	WORD	n/a	n/a	WATCH	12	-1	[0, 0, 0]	n/a	FR1	2	R1384J
67.432	0.001	137264	WORD_OFF	n/a	n/a	WATCH	12	-1	[0, 0, 0]	n/a	FR1	2	R1384J
67.433	0.001	137268	PROB	10.7	n/a	n/a	-999	-1	[7, 7, 6]	29.0	FR1	2	R1384J
67.434	0.0	137269	START	n/a	n/a	n/a	-999	-1	[-999, -999, -999]	n/a	FR1	2	R1384J
67.433	0.001	137274	ENCODING_END	n/a	n/a	n/a	-999	-1	[0, 0, 0]	n/a	FR1	2	R1384J
67.434	10.716	137274	DISTRACT_START	n/a	n/a	n/a	-999	-1	[0, 0, 0]	n/a	FR1	2	R1384J
78.15	5.433	147984	PROB	5.415	n/a	n/a	-999	-1	[5, 8, 2]	15.0	FR1	2	R1384J
83.583	8.333	153417	PROB	8.316	n/a	n/a	-999	-1	[7, 8, 5]	20.0	FR1	2	R1384J
91.916	0.0	161747	DISTRACT_END	n/a	n/a	n/a	-999	-1	[0, 0, 0]	n/a	FR1	2	R1384J
91.916	1.068	161750	STOP	n/a	n/a	n/a	-999	-1	[-999, -999, -999]	n/a	FR1	2	R1384J
92.984	1.259	162820	REC_START	n/a	n/a	n/a	-999	-1	[0, 0, 0]	n/a	FR1	2	R1384J
94.243	1.191	164077	REC_WORD	1.259	n/a	COTTON	1	-1	[0, 0, 0]	n/a	FR1	2	R1384J
95.434	1.26	165268	REC_WORD	2.45	n/a	RHINO	2	-1	[0, 0, 0]	n/a	FR1	2	R1384J
96.694	1.25	166528	REC_WORD	3.71	n/a	TONGUE	10	-1	[0, 0, 0]	n/a	FR1	2	R1384J
97.944	5.32	167778	REC_WORD	4.96	n/a	CAMEL	11	-1	[0, 0, 0]	n/a	FR1	2	R1384J
103.264	8.84	173097	REC_WORD	10.28	n/a	WATCH	12	-1	[0, 0, 0]	n/a	FR1	2	R1384J
112.104	11.156	181937	REC_WORD	19.12	n/a	WAGON	3	-1	[0, 0, 0]	n/a	FR1	2	R1384J
123.26	6.023	193092	REC_END	n/a	n/a	n/a	-999	-1	[0, 0, 0]	n/a	FR1	2	R1384J
129.283	10.0	199115	COUNTDOWN_START	n/a	n/a	n/a	-999	1	[0, 0, 0]	n/a	FR1	2	R1384J
139.645	0.0	209475	COUNTDOWN_END	n/a	n/a	n/a	-999	1	[0, 0, 0]	n/a	FR1	2	R1384J
139.645	2.054	209485	ENCODING_START	n/a	n/a	n/a	-999	1	[0, 0, 0]	n/a	FR1	2	R1384J
141.699	1.6	211531	WORD	n/a	wordpools/wordpool_short_EN.txt	SAIL	1	1	[0, 0, 0]	n/a	FR1	2	R1384J
143.299	0.933	213136	WORD_OFF	n/a	n/a	SAIL	1	1	[0, 0, 0]	n/a	FR1	2	R1384J
144.232	1.6	214067	WORD	n/a	wordpools/wordpool_short_EN.txt	DEW	2	1	[0, 0, 0]	n/a	FR1	2	R1384J
145.833	0.832	215662	WORD_OFF	n/a	n/a	DEW	2	1	[0, 0, 0]	n/a	FR1	2	R1384J
146.665	1.6	216501	WORD	n/a	wordpools/wordpool_short_EN.txt	VEST	3	1	[0, 0, 0]	n/a	FR1	2	R1384J
148.265	0.851	218096	WORD_OFF	n/a	n/a	VEST	3	1	[0, 0, 0]	n/a	FR1	2	R1384J
149.116	1.6	218945	WORD	n/a	wordpools/wordpool_short_EN.txt	FOX	4	1	[0, 0, 0]	n/a	FR1	2	R1384J
150.716	0.983	220551	WORD_OFF	n/a	n/a	FOX	4	1	[0, 0, 0]	n/a	FR1	2	R1384J
151.699	1.6	221532	WORD	n/a	wordpools/wordpool_short_EN.txt	ASH	5	1	[0, 0, 0]	n/a	FR1	2	R1384J
153.316	0.95	223148	WORD_OFF	n/a	n/a	ASH	5	1	[0, 0, 0]	n/a	FR1	2	R1384J
154.266	1.6	224099	WORD	n/a	wordpools/wordpool_short_EN.txt	LOCK	6	1	[0, 0, 0]	n/a	FR1	2	R1384J
155.883	0.883	225715	WORD_OFF	n/a	n/a	LOCK	6	1	[0, 0, 0]	n/a	FR1	2	R1384J
156.766	1.6	226595	WORD	n/a	wordpools/wordpool_short_EN.txt	ROOT	7	1	[0, 0, 0]	n/a	FR1	2	R1384J
158.366	0.984	228200	WORD_OFF	n/a	n/a	ROOT	7	1	[0, 0, 0]	n/a	FR1	2	R1384J
159.35	1.6	229182	WORD	n/a	wordpools/wordpool_short_EN.txt	PAN	8	1	[0, 0, 0]	n/a	FR1	2	R1384J
160.966	0.933	230798	WORD_OFF	n/a	n/a	PAN	8	1	[0, 0, 0]	n/a	FR1	2	R1384J
161.899	1.6	231729	WORD	n/a	wordpools/wordpool_short_EN.txt	MOLE	9	1	[0, 0, 0]	n/a	FR1	2	R1384J
163.499	0.917	233334	WORD_OFF	n/a	n/a	MOLE	9	1	[0, 0, 0]	n/a	FR1	2	R1384J
164.416	1.6	234244	WORD	n/a	wordpools/wordpool_short_EN.txt	LANE	10	1	[0, 0, 0]	n/a	FR1	2	R1384J
166.033	0.966	235860	WORD_OFF	n/a	n/a	LANE	10	1	[0, 0, 0]	n/a	FR1	2	R1384J
166.999	1.6	236832	WORD	n/a	wordpools/wordpool_short_EN.txt	INK	11	1	[0, 0, 0]	n/a	FR1	2	R1384J
168.616	0.968	238448	WORD_OFF	n/a	n/a	INK	11	1	[0, 0, 0]	n/a	FR1	2	R1384J
169.584	1.6	239419	WORD	n/a	wordpools/wordpool_short_EN.txt	BLADE	12	1	[0, 0, 0]	n/a	FR1	2	R1384J
171.183	0.001	241014	WORD_OFF	n/a	n/a	BLADE	12	1	[0, 0, 0]	n/a	FR1	2	R1384J
171.184	0.0	241014	ENCODING_END	n/a	n/a	n/a	-999	1	[0, 0, 0]	n/a	FR1	2	R1384J
171.184	0.0	241014	DISTRACT_START	n/a	n/a	n/a	-999	1	[0, 0, 0]	n/a	FR1	2	R1384J
171.183	0.001	241014	PROB	4.933	n/a	n/a	-999	1	[2, 6, 5]	13.0	FR1	2	R1384J
171.184	4.95	241015	START	n/a	n/a	n/a	-999	1	[-999, -999, -999]	n/a	FR1	2	R1384J
176.134	9.616	245964	PROB	9.599	n/a	n/a	-999	1	[4, 2, 6]	12.0	FR1	2	R1384J
185.75	4.7	255580	PROB	4.682	n/a	n/a	-999	1	[7, 2, 2]	11.0	FR1	2	R1384J
190.45	5.615	260280	PROB	5.599	n/a	n/a	-999	1	[5, 5, 6]	16.0	FR1	2	R1384J
196.065	0.0	265894	STOP	n/a	n/a	n/a	-999	1	[-999, -999, -999]	n/a	FR1	2	R1384J
196.065	1.251	265896	DISTRACT_END	n/a	n/a	n/a	-999	1	[0, 0, 0]	n/a	FR1	2	R1384J
197.316	1.24	267144	REC_START	n/a	n/a	n/a	-999	1	[0, 0, 0]	n/a	FR1	2	R1384J
198.556	1.005	268385	REC_WORD	1.24	n/a	LANE	10	1	[0, 0, 0]	n/a	FR1	2	R1384J
199.561	13.43	269390	REC_WORD	2.245	n/a	MOLE	9	1	[0, 0, 0]	n/a	FR1	2	R1384J
212.991	14.589	282820	REC_WORD	15.675	n/a	SAIL	1	1	[0, 0, 0]	n/a	FR1	2	R1384J
227.58	1.853	297405	REC_END	n/a	n/a	n/a	-999	1	[0, 0, 0]	n/a	FR1	2	R1384J
229.433	10.0	299266	COUNTDOWN_START	n/a	n/a	n/a	-999	2	[0, 0, 0]	n/a	FR1	2	R1384J
239.801	0.0	309626	COUNTDOWN_END	n/a	n/a	n/a	-999	2	[0, 0, 0]	n/a	FR1	2	R1384J
239.801	2.015	309626	ENCODING_START	n/a	n/a	n/a	-999	2	[0, 0, 0]	n/a	FR1	2	R1384J
241.816	1.6	311641	WORD	n/a	wordpools/wordpool_short_EN.txt	BOMB	1	2	[0, 0, 0]	n/a	FR1	2	R1384J
243.433	0.833	313257	WORD_OFF	n/a	n/a	BOMB	1	2	[0, 0, 0]	n/a	FR1	2	R1384J
244.266	1.6	314095	WORD	n/a	wordpools/wordpool_short_EN.txt	JUDGE	2	2	[0, 0, 0]	n/a	FR1	2	R1384J
245.883	0.899	315711	WORD_OFF	n/a	n/a	JUDGE	2	2	[0, 0, 0]	n/a	FR1	2	R1384J
246.782	1.6	316611	WORD	n/a	wordpools/wordpool_short_EN.txt	AISLE	3	2	[0, 0, 0]	n/a	FR1	2	R1384J
248.383	0.867	318206	WORD_OFF	n/a	n/a	AISLE	3	2	[0, 0, 0]	n/a	FR1	2	R1384J
249.25	1.6	319076	WORD	n/a	wordpools/wordpool_short_EN.txt	FENCE	4	2	[0, 0, 0]	n/a	FR1	2	R1384J
250.85	0.883	320681	WORD_OFF	n/a	n/a	FENCE	4	2	[0, 0, 0]	n/a	FR1	2	R1384J
251.733	1.6	321561	WORD	n/a	wordpools/wordpool_short_EN.txt	GUN	5	2	[0, 0, 0]	n/a	FR1	2	R1384J
253.351	0.949	323177	WORD_OFF	n/a	n/a	GUN	5	2	[0, 0, 0]	n/a	FR1	2	R1384J
254.3	1.6	324128	WORD	n/a	wordpools/wordpool_short_EN.txt	HEART	6	2	[0, 0, 0]	n/a	FR1	2	R1384J
255.9	0.9	325723	WORD_OFF	n/a	n/a	HEART	6	2	[0, 0, 0]	n/a	FR1	2	R1384J
256.8	1.6	326623	WORD	n/a	wordpools/wordpool_short_EN.txt	SKUNK	7	2	[0, 0, 0]	n/a	FR1	2	R1384J
258.415	0.936	328239	WORD_OFF	n/a	n/a	SKUNK	7	2	[0, 0, 0]	n/a	FR1	2	R1384J
259.351	1.6	329180	WORD	n/a	wordpools/wordpool_short_EN.txt	NIGHT	8	2	[0, 0, 0]	n/a	FR1	2	R1384J
260.95	0.916	330775	WORD_OFF	n/a	n/a	NIGHT	8	2	[0, 0, 0]	n/a	FR1	2	R1384J
261.866	1.6	331695	WORD	n/a	wordpools/wordpool_short_EN.txt	STEW	9	2	[0, 0, 0]	n/a	FR1	2	R1384J
263.483	0.95	333311	WORD_OFF	n/a	n/a	STEW	9	2	[0, 0, 0]	n/a	FR1	2	R1384J
264.433	1.6	334262	WORD	n/a	wordpools/wordpool_short_EN.txt	PILL	10	2	[0, 0, 0]	n/a	FR1	2	R1384J
266.05	0.866	335878	WORD_OFF	n/a	n/a	PILL	10	2	[0, 0, 0]	n/a	FR1	2	R1384J
266.916	1.6	336748	WORD	n/a	wordpools/wordpool_short_EN.txt	PIPE	11	2	[0, 0, 0]	n/a	FR1	2	R1384J
268.516	0.817	338343	WORD_OFF	n/a	n/a	PIPE	11	2	[0, 0, 0]	n/a	FR1	2	R1384J
269.333	1.6	339161	WORD	n/a	wordpools/wordpool_short_EN.txt	SLEEVE	12	2	[0, 0, 0]	n/a	FR1	2	R1384J
270.95	0.0	340776	PROB	15.199	n/a	n/a	-999	2	[3, 8, 6]	17.0	FR1	2	R1384J
270.949	0.002	340777	WORD_OFF	n/a	n/a	SLEEVE	12	2	[0, 0, 0]	n/a	FR1	2	R1384J
270.951	0.0	340777	ENCODING_END	n/a	n/a	n/a	-999	2	[0, 0, 0]	n/a	FR1	2	R1384J
270.951	0.0	340777	DISTRACT_START	n/a	n/a	n/a	-999	2	[0, 0, 0]	n/a	FR1	2	R1384J
270.951	15.215	340777	START	n/a	n/a	n/a	-999	2	[-999, -999, -999]	n/a	FR1	2	R1384J
286.166	7.716	355992	PROB	7.699	n/a	n/a	-999	2	[4, 6, 2]	12.0	FR1	2	R1384J
293.882	0.0	363705	DISTRACT_END	n/a	n/a	n/a	-999	2	[0, 0, 0]	n/a	FR1	2	R1384J
293.882	1.25	363707	STOP	n/a	n/a	n/a	-999	2	[-999, -999, -999]	n/a	FR1	2	R1384J
295.132	12.479	364963	REC_START	n/a	n/a	n/a	-999	2	[0, 0, 0]	n/a	FR1	2	R1384J
307.611	2.671	377436	REC_WORD	12.479	n/a	BOMB	1	2	[0, 0, 0]	n/a	FR1	2	R1384J
310.282	15.116	380107	REC_WORD	15.15	n/a	HEART	6	2	[0, 0, 0]	n/a	FR1	2	R1384J
325.398	2.051	395224	REC_END	n/a	n/a	n/a	-999	2	[0, 0, 0]	n/a	FR1	2	R1384J
327.449	10.0	397280	COUNTDOWN_START	n/a	n/a	n/a	-999	3	[0, 0, 0]	n/a	FR1	2	R1384J
337.81	0.0	407629	COUNTDOWN_END	n/a	n/a	n/a	-999	3	[0, 0, 0]	n/a	FR1	2	R1384J
337.81	1.956	407640	ENCODING_START	n/a	n/a	n/a	-999	3	[0, 0, 0]	n/a	FR1	2	R1384J
339.766	1.6	409593	WORD	n/a	wordpools/wordpool_short_EN.txt	BUSH	1	3	[0, 0, 0]	n/a	FR1	2	R1384J
341.383	0.883	411209	WORD_OFF	n/a	n/a	BUSH	1	3	[0, 0, 0]	n/a	FR1	2	R1384J
342.266	1.6	412088	WORD	n/a	wordpools/wordpool_short_EN.txt	HILL	2	3	[0, 0, 0]	n/a	FR1	2	R1384J
343.866	0.8	413694	WORD_OFF	n/a	n/a	HILL	2	3	[0, 0, 0]	n/a	FR1	2	R1384J
344.666	1.6	414492	WORD	n/a	wordpools/wordpool_short_EN.txt	STORE	3	3	[0, 0, 0]	n/a	FR1	2	R1384J
346.283	0.983	416107	WORD_OFF	n/a	n/a	STORE	3	3	[0, 0, 0]	n/a	FR1	2	R1384J
347.266	1.6	417089	WORD	n/a	wordpools/wordpool_short_EN.txt	HAIR	4	3	[0, 0, 0]	n/a	FR1	2	R1384J
348.882	0.917	418705	WORD_OFF	n/a	n/a	HAIR	4	3	[0, 0, 0]	n/a	FR1	2	R1384J
349.799	1.6	419625	WORD	n/a	wordpools/wordpool_short_EN.txt	STAIR	5	3	[0, 0, 0]	n/a	FR1	2	R1384J
351.4	0.766	421221	WORD_OFF	n/a	n/a	STAIR	5	3	[0, 0, 0]	n/a	FR1	2	R1384J
352.166	1.6	421988	WORD	n/a	wordpools/wordpool_short_EN.txt	RAT	6	3	[0, 0, 0]	n/a	FR1	2	R1384J
353.783	0.818	423604	WORD_OFF	n/a	n/a	RAT	6	3	[0, 0, 0]	n/a	FR1	2	R1384J
354.601	1.6	424422	WORD	n/a	wordpools/wordpool_short_EN.txt	PIT	7	3	[0, 0, 0]	n/a	FR1	2	R1384J
356.2	0.983	426027	WORD_OFF	n/a	n/a	PIT	7	3	[0, 0, 0]	n/a	FR1	2	R1384J
357.183	1.6	427009	WORD	n/a	wordpools/wordpool_short_EN.txt	SOUP	8	3	[0, 0, 0]	n/a	FR1	2	R1384J
358.8	0.883	428625	WORD_OFF	n/a	n/a	SOUP	8	3	[0, 0, 0]	n/a	FR1	2	R1384J
359.683	1.6	429505	WORD	n/a	wordpools/wordpool_short_EN.txt	GATE	9	3	[0, 0, 0]	n/a	FR1	2	R1384J
361.3	0.9	431120	WORD_OFF	n/a	n/a	GATE	9	3	[0, 0, 0]	n/a	FR1	2	R1384J
362.2	1.6	432020	WORD	n/a	wordpools/wordpool_short_EN.txt	WAVE	10	3	[0, 0, 0]	n/a	FR1	2	R1384J
363.8	0.983	433626	WORD_OFF	n/a	n/a	WAVE	10	3	[0, 0, 0]	n/a	FR1	2	R1384J
364.783	1.6	434608	WORD	n/a	wordpools/wordpool_short_EN.txt	BOX	11	3	[0, 0, 0]	n/a	FR1	2	R1384J
366.4	0.866	436224	WORD_OFF	n/a	n/a	BOX	11	3	[0, 0, 0]	n/a	FR1	2	R1384J
367.266	1.6	437093	WORD	n/a	wordpools/wordpool_short_EN.txt	FROST	12	3	[0, 0, 0]	n/a	FR1	2	R1384J
368.883	0.001	438705	PROB	7.516	n/a	n/a	-999	3	[5, 6, 8]	19.0	FR1	2	R1384J
368.884	0.0	438706	START	n/a	n/a	n/a	-999	3	[-999, -999, -999]	n/a	FR1	2	R1384J
368.883	0.001	438709	WORD_OFF	n/a	n/a	FROST	12	3	[0, 0, 0]	n/a	FR1	2	R1384J
368.884	0.0	438709	ENCODING_END	n/a	n/a	n/a	-999	3	[0, 0, 0]	n/a	FR1	2	R1384J
368.884	7.532	438709	DISTRACT_START	n/a	n/a	n/a	-999	3	[0, 0, 0]	n/a	FR1	2	R1384J
376.416	7.166	446238	PROB	7.15	n/a	n/a	-999	3	[6, 7, 2]	15.0	FR1	2	R1384J
383.582	12.5	453404	PROB	12.483	n/a	n/a	-999	3	[7, 7, 2]	16.0	FR1	2	R1384J
396.082	0.0	465902	DISTRACT_END	n/a	n/a	n/a	-999	3	[0, 0, 0]	n/a	FR1	2	R1384J
396.082	1.283	465903	STOP	n/a	n/a	n/a	-999	3	[-999, -999, -999]	n/a	FR1	2	R1384J
397.365	4.455	467190	REC_START	n/a	n/a	n/a	-999	3	[0, 0, 0]	n/a	FR1	2	R1384J
401.82	25.811	471641	REC_WORD	4.455	n/a	FROST	12	3	[0, 0, 0]	n/a	FR1	2	R1384J
427.631	2.469	497451	REC_END	n/a	n/a	n/a	-999	3	[0, 0, 0]	n/a	FR1	2	R1384J
430.1	10.0	499926	COUNTDOWN_START	n/a	n/a	n/a	-999	4	[0, 0, 0]	n/a	FR1	2	R1384J
440.464	0.0	510286	COUNTDOWN_END	n/a	n/a	n/a	-999	4	[0, 0, 0]	n/a	FR1	2	R1384J
440.464	1.935	510286	ENCODING_START	n/a	n/a	n/a	-999	4	[0, 0, 0]	n/a	FR1	2	R1384J
442.399	1.6	512219	WORD	n/a	wordpools/wordpool_short_EN.txt	MUG	1	4	[0, 0, 0]	n/a	FR1	2	R1384J
444.016	0.8	513835	WORD_OFF	n/a	n/a	MUG	1	4	[0, 0, 0]	n/a	FR1	2	R1384J
444.816	1.6	514632	WORD	n/a	wordpools/wordpool_short_EN.txt	DART	2	4	[0, 0, 0]	n/a	FR1	2	R1384J
446.433	0.932	516248	WORD_OFF	n/a	n/a	DART	2	4	[0, 0, 0]	n/a	FR1	2	R1384J
447.365	1.6	517189	WORD	n/a	wordpools/wordpool_short_EN.txt	SHIP	3	4	[0, 0, 0]	n/a	FR1	2	R1384J
448.966	0.984	518784	WORD_OFF	n/a	n/a	SHIP	3	4	[0, 0, 0]	n/a	FR1	2	R1384J
449.95	1.6	519766	WORD	n/a	wordpools/wordpool_short_EN.txt	RAMP	4	4	[0, 0, 0]	n/a	FR1	2	R1384J
451.55	0.883	521372	WORD_OFF	n/a	n/a	RAMP	4	4	[0, 0, 0]	n/a	FR1	2	R1384J
452.433	1.6	522251	WORD	n/a	wordpools/wordpool_short_EN.txt	THUMB	5	4	[0, 0, 0]	n/a	FR1	2	R1384J
454.033	1.0	523857	WORD_OFF	n/a	n/a	THUMB	5	4	[0, 0, 0]	n/a	FR1	2	R1384J
455.033	1.6	524849	WORD	n/a	wordpools/wordpool_short_EN.txt	STICK	6	4	[0, 0, 0]	n/a	FR1	2	R1384J
456.633	0.9	526455	WORD_OFF	n/a	n/a	STICK	6	4	[0, 0, 0]	n/a	FR1	2	R1384J
457.533	1.6	527355	WORD	n/a	wordpools/wordpool_short_EN.txt	TOOL	7	4	[0, 0, 0]	n/a	FR1	2	R1384J
459.15	0.848	528970	WORD_OFF	n/a	n/a	TOOL	7	4	[0, 0, 0]	n/a	FR1	2	R1384J
459.998	1.6	529819	WORD	n/a	wordpools/wordpool_short_EN.txt	WAX	8	4	[0, 0, 0]	n/a	FR1	2	R1384J
461.599	0.917	531415	WORD_OFF	n/a	n/a	WAX	8	4	[0, 0, 0]	n/a	FR1	2	R1384J
462.516	1.6	532335	WORD	n/a	wordpools/wordpool_short_EN.txt	TOOTH	9	4	[0, 0, 0]	n/a	FR1	2	R1384J
464.132	0.884	533951	WORD_OFF	n/a	n/a	TOOTH	9	4	[0, 0, 0]	n/a	FR1	2	R1384J
465.016	1.6	534830	WORD	n/a	wordpools/wordpool_short_EN.txt	COURT	10	4	[0, 0, 0]	n/a	FR1	2	R1384J
466.616	0.934	536436	WORD_OFF	n/a	n/a	COURT	10	4	[0, 0, 0]	n/a	FR1	2	R1384J
467.55	1.6	537367	WORD	n/a	wordpools/wordpool_short_EN.txt	PEARL	11	4	[0, 0, 0]	n/a	FR1	2	R1384J
469.165	0.767	538982	WORD_OFF	n/a	n/a	PEARL	11	4	[0, 0, 0]	n/a	FR1	2	R1384J
469.932	1.6	539749	WORD	n/a	wordpools/wordpool_short_EN.txt	STRAW	12	4	[0, 0, 0]	n/a	FR1	2	R1384J
471.533	0.001	541351	PROB	4.983	n/a	n/a	-999	4	[2, 3, 4]	9.0	FR1	2	R1384J
471.534	0.0	541352	START	n/a	n/a	n/a	-999	4	[-999, -999, -999]	n/a	FR1	2	R1384J
471.532	0.002	541355	WORD_OFF	n/a	n/a	STRAW	12	4	[0, 0, 0]	n/a	FR1	2	R1384J
471.534	0.0	541355	ENCODING_END	n/a	n/a	n/a	-999	4	[0, 0, 0]	n/a	FR1	2	R1384J
471.534	4.998	541355	DISTRACT_START	n/a	n/a	n/a	-999	4	[0, 0, 0]	n/a	FR1	2	R1384J
476.532	5.084	546350	PROB	5.066	n/a	n/a	-999	4	[4, 2, 8]	14.0	FR1	2	R1384J
481.616	6.067	551434	PROB	6.049	n/a	n/a	-999	4	[5, 2, 1]	8.0	FR1	2	R1384J
487.683	12.965	557500	PROB	12.949	n/a	n/a	-999	4	[8, 4, 2]	14.0	FR1	2	R1384J
500.648	0.0	570460	DISTRACT_END	n/a	n/a	n/a	-999	4	[0, 0, 0]	n/a	FR1	2	R1384J
500.648	1.15	570465	STOP	n/a	n/a	n/a	-999	4	[-999, -999, -999]	n/a	FR1	2	R1384J
501.798	20.41	571616	REC_START	n/a	n/a	n/a	-999	4	[0, 0, 0]	n/a	FR1	2	R1384J
522.208	0.7	592024	REC_WORD_VV	20.41	n/a	<>	-999	4	[0, 0, 0]	n/a	FR1	2	R1384J
522.908	1.0	592724	REC_WORD	21.11	n/a	BOX	-999	4	[0, 0, 0]	n/a	FR1	2	R1384J
523.908	8.133	593724	REC_WORD_VV	22.11	n/a	<>	-999	4	[0, 0, 0]	n/a	FR1	2	R1384J
532.041	10.259	601857	REC_END	n/a	n/a	n/a	-999	4	[0, 0, 0]	n/a	FR1	2	R1384J
542.3	10.0	612114	COUNTDOWN_START	n/a	n/a	n/a	-999	5	[0, 0, 0]	n/a	FR1	2	R1384J
552.665	0.0	622484	COUNTDOWN_END	n/a	n/a	n/a	-999	5	[0, 0, 0]	n/a	FR1	2	R1384J
552.665	1.935	622484	ENCODING_START	n/a	n/a	n/a	-999	5	[0, 0, 0]	n/a	FR1	2	R1384J
554.6	1.6	624417	WORD	n/a	wordpools/wordpool_short_EN.txt	SUIT	1	5	[0, 0, 0]	n/a	FR1	2	R1384J
556.216	0.966	626033	WORD_OFF	n/a	n/a	SUIT	1	5	[0, 0, 0]	n/a	FR1	2	R1384J
557.182	1.6	626994	WORD	n/a	wordpools/wordpool_short_EN.txt	SKI	2	5	[0, 0, 0]	n/a	FR1	2	R1384J
558.783	0.85	628600	WORD_OFF	n/a	n/a	SKI	2	5	[0, 0, 0]	n/a	FR1	2	R1384J
559.633	1.6	629449	WORD	n/a	wordpools/wordpool_short_EN.txt	TROUT	3	5	[0, 0, 0]	n/a	FR1	2	R1384J
561.25	0.933	631064	WORD_OFF	n/a	n/a	TROUT	3	5	[0, 0, 0]	n/a	FR1	2	R1384J
562.183	1.6	631995	WORD	n/a	wordpools/wordpool_short_EN.txt	ICE	4	5	[0, 0, 0]	n/a	FR1	2	R1384J
563.799	0.983	633611	WORD_OFF	n/a	n/a	ICE	4	5	[0, 0, 0]	n/a	FR1	2	R1384J
564.782	1.6	634593	WORD	n/a	wordpools/wordpool_short_EN.txt	DOCK	5	5	[0, 0, 0]	n/a	FR1	2	R1384J
566.382	0.951	636198	WORD_OFF	n/a	n/a	DOCK	5	5	[0, 0, 0]	n/a	FR1	2	R1384J
567.333	1.6	637149	WORD	n/a	wordpools/wordpool_short_EN.txt	PHONE	6	5	[0, 0, 0]	n/a	FR1	2	R1384J
568.933	0.85	638745	WORD_OFF	n/a	n/a	PHONE	6	5	[0, 0, 0]	n/a	FR1	2	R1384J
569.783	1.6	639594	WORD	n/a	wordpools/wordpool_short_EN.txt	CAPE	7	5	[0, 0, 0]	n/a	FR1	2	R1384J
571.383	0.933	641199	WORD_OFF	n/a	n/a	CAPE	7	5	[0, 0, 0]	n/a	FR1	2	R1384J
572.316	1.6	642130	WORD	n/a	wordpools/wordpool_short_EN.txt	CRANE	8	5	[0, 0, 0]	n/a	FR1	2	R1384J
573.916	0.85	643736	WORD_OFF	n/a	n/a	CRANE	8	5	[0, 0, 0]	n/a	FR1	2	R1384J
574.766	1.6	644584	WORD	n/a	wordpools/wordpool_short_EN.txt	DOG	9	5	[0, 0, 0]	n/a	FR1	2	R1384J
576.366	0.784	646180	WORD_OFF	n/a	n/a	DOG	9	5	[0, 0, 0]	n/a	FR1	2	R1384J
577.15	1.6	646967	WORD	n/a	wordpools/wordpool_short_EN.txt	WING	10	5	[0, 0, 0]	n/a	FR1	2	R1384J
578.75	0.85	648563	WORD_OFF	n/a	n/a	WING	10	5	[0, 0, 0]	n/a	FR1	2	R1384J
579.6	1.6	649411	WORD	n/a	wordpools/wordpool_short_EN.txt	MOON	11	5	[0, 0, 0]	n/a	FR1	2	R1384J
581.2	0.866	651017	WORD_OFF	n/a	n/a	MOON	11	5	[0, 0, 0]	n/a	FR1	2	R1384J
582.066	1.6	651876	WORD	n/a	wordpools/wordpool_short_EN.txt	MUD	12	5	[0, 0, 0]	n/a	FR1	2	R1384J
583.667	0.001	653480	PROB	6.515	n/a	n/a	-999	5	[8, 5, 6]	19.0	FR1	2	R1384J
583.668	0.0	653481	START	n/a	n/a	n/a	-999	5	[-999, -999, -999]	n/a	FR1	2	R1384J
583.666	0.002	653482	WORD_OFF	n/a	n/a	MUD	12	5	[0, 0, 0]	n/a	FR1	2	R1384J
583.668	0.0	653482	ENCODING_END	n/a	n/a	n/a	-999	5	[0, 0, 0]	n/a	FR1	2	R1384J
583.668	6.532	653482	DISTRACT_START	n/a	n/a	n/a	-999	5	[0, 0, 0]	n/a	FR1	2	R1384J
590.2	7.734	660013	PROB	7.716	n/a	n/a	-999	5	[3, 8, 5]	17.0	FR1	2	R1384J
597.934	5.832	667747	PROB	5.816	n/a	n/a	-999	5	[3, 3, 1]	7.0	FR1	2	R1384J
603.766	0.0	673577	DISTRACT_END	n/a	n/a	n/a	-999	5	[0, 0, 0]	n/a	FR1	2	R1384J
603.766	1.233	673579	STOP	n/a	n/a	n/a	-999	5	[-999, -999, -999]	n/a	FR1	2	R1384J
604.999	1.15	674815	REC_START	n/a	n/a	n/a	-999	5	[0, 0, 0]	n/a	FR1	2	R1384J
606.149	1.295	675961	REC_WORD	1.15	n/a	MOON	11	5	[0, 0, 0]	n/a	FR1	2	R1384J
607.444	27.823	677256	REC_WORD	2.445	n/a	MUD	12	5	[0, 0, 0]	n/a	FR1	2	R1384J
635.267	5.383	705076	REC_END	n/a	n/a	n/a	-999	5	[0, 0, 0]	n/a	FR1	2	R1384J
640.65	10.0	710465	COUNTDOWN_START	n/a	n/a	n/a	-999	6	[0, 0, 0]	n/a	FR1	2	R1384J
651.009	0.0	720825	COUNTDOWN_END	n/a	n/a	n/a	-999	6	[0, 0, 0]	n/a	FR1	2	R1384J
651.009	2.006	720825	ENCODING_START	n/a	n/a	n/a	-999	6	[0, 0, 0]	n/a	FR1	2	R1384J
653.015	1.6	722830	WORD	n/a	wordpools/wordpool_short_EN.txt	SHED	1	6	[0, 0, 0]	n/a	FR1	2	R1384J
654.616	0.95	724425	WORD_OFF	n/a	n/a	SHED	1	6	[0, 0, 0]	n/a	FR1	2	R1384J
655.566	1.6	725376	WORD	n/a	wordpools/wordpool_short_EN.txt	CHIEF	2	6	[0, 0, 0]	n/a	FR1	2	R1384J
657.166	0.867	726982	WORD_OFF	n/a	n/a	CHIEF	2	6	[0, 0, 0]	n/a	FR1	2	R1384J
658.033	1.6	727841	WORD	n/a	wordpools/wordpool_short_EN.txt	HOSE	3	6	[0, 0, 0]	n/a	FR1	2	R1384J
659.633	0.8	729446	WORD_OFF	n/a	n/a	HOSE	3	6	[0, 0, 0]	n/a	FR1	2	R1384J
660.433	1.6	730244	WORD	n/a	wordpools/wordpool_short_EN.txt	BANK	4	6	[0, 0, 0]	n/a	FR1	2	R1384J
662.033	0.766	731839	WORD_OFF	n/a	n/a	BANK	4	6	[0, 0, 0]	n/a	FR1	2	R1384J
662.799	1.6	732606	WORD	n/a	wordpools/wordpool_short_EN.txt	HOG	5	6	[0, 0, 0]	n/a	FR1	2	R1384J
664.399	0.817	734212	WORD_OFF	n/a	n/a	HOG	5	6	[0, 0, 0]	n/a	FR1	2	R1384J
665.216	1.6	735030	WORD	n/a	wordpools/wordpool_short_EN.txt	BRUSH	6	6	[0, 0, 0]	n/a	FR1	2	R1384J
666.816	0.833	736625	WORD_OFF	n/a	n/a	BRUSH	6	6	[0, 0, 0]	n/a	FR1	2	R1384J
667.649	1.6	737464	WORD	n/a	wordpools/wordpool_short_EN.txt	SHORE	7	6	[0, 0, 0]	n/a	FR1	2	R1384J
669.266	0.933	739080	WORD_OFF	n/a	n/a	SHORE	7	6	[0, 0, 0]	n/a	FR1	2	R1384J
670.199	1.6	740011	WORD	n/a	wordpools/wordpool_short_EN.txt	TOAD	8	6	[0, 0, 0]	n/a	FR1	2	R1384J
671.799	0.8	741606	WORD_OFF	n/a	n/a	TOAD	8	6	[0, 0, 0]	n/a	FR1	2	R1384J
672.599	1.6	742414	WORD	n/a	wordpools/wordpool_short_EN.txt	HAY	9	6	[0, 0, 0]	n/a	FR1	2	R1384J
674.215	0.984	744030	WORD_OFF	n/a	n/a	HAY	9	6	[0, 0, 0]	n/a	FR1	2	R1384J
675.199	1.6	745011	WORD	n/a	wordpools/wordpool_short_EN.txt	BOOT	10	6	[0, 0, 0]	n/a	FR1	2	R1384J
676.799	0.867	746607	WORD_OFF	n/a	n/a	BOOT	10	6	[0, 0, 0]	n/a	FR1	2	R1384J
677.666	1.6	747476	WORD	n/a	wordpools/wordpool_short_EN.txt	CUBE	11	6	[0, 0, 0]	n/a	FR1	2	R1384J
679.266	0.966	749072	WORD_OFF	n/a	n/a	CUBE	11	6	[0, 0, 0]	n/a	FR1	2	R1384J
680.232	1.6	750043	WORD	n/a	wordpools/wordpool_short_EN.txt	STREET	12	6	[0, 0, 0]	n/a	FR1	2	R1384J
681.849	0.0	751658	PROB	8.666	n/a	n/a	-999	6	[5, 6, 7]	18.0	FR1	2	R1384J
681.849	0.001	751659	WORD_OFF	n/a	n/a	STREET	12	6	[0, 0, 0]	n/a	FR1	2	R1384J
681.85	0.0	751659	ENCODING_END	n/a	n/a	n/a	-999	6	[0, 0, 0]	n/a	FR1	2	R1384J
681.85	0.0	751659	DISTRACT_START	n/a	n/a	n/a	-999	6	[0, 0, 0]	n/a	FR1	2	R1384J
681.85	8.682	751659	START	n/a	n/a	n/a	-999	6	[-999, -999, -999]	n/a	FR1	2	R1384J
690.532	6.884	760341	PROB	6.867	n/a	n/a	-999	6	[5, 7, 1]	13.0	FR1	2	R1384J
697.416	6.732	767225	PROB	6.717	n/a	n/a	-999	6	[5, 1, 4]	10.0	FR1	2	R1384J
704.148	0.0	773953	DISTRACT_END	n/a	n/a	n/a	-999	6	[0, 0, 0]	n/a	FR1	2	R1384J
704.148	1.367	773956	STOP	n/a	n/a	n/a	-999	6	[-999, -999, -999]	n/a	FR1	2	R1384J
705.515	11.854	775324	REC_START	n/a	n/a	n/a	-999	6	[0, 0, 0]	n/a	FR1	2	R1384J
717.369	1.0	787177	REC_WORD_VV	11.854	n/a	<>	-999	6	[0, 0, 0]	n/a	FR1	2	R1384J
718.369	1.0	788177	REC_WORD_VV	12.854	n/a	<>	-999	6	[0, 0, 0]	n/a	FR1	2	R1384J
719.369	9.282	789177	REC_WORD_VV	13.854	n/a	<>	-999	6	[0, 0, 0]	n/a	FR1	2	R1384J
728.651	7.121	798458	REC_WORD_VV	23.136	n/a	<>	-999	6	[0, 0, 0]	n/a	FR1	2	R1384J
735.772	3.094	805575	REC_END	n/a	n/a	n/a	-999	6	[0, 0, 0]	n/a	FR1	2	R1384J
738.866	10.0	808673	COUNTDOWN_START	n/a	n/a	n/a	-999	7	[0, 0, 0]	n/a	FR1	2	R1384J
749.225	0.0	819033	COUNTDOWN_END	n/a	n/a	n/a	-999	7	[0, 0, 0]	n/a	FR1	2	R1384J
749.225	1.825	819033	ENCODING_START	n/a	n/a	n/a	-999	7	[0, 0, 0]	n/a	FR1	2	R1384J
751.05	1.6	820853	WORD	n/a	wordpools/wordpool_short_EN.txt	SEA	1	7	[0, 0, 0]	n/a	FR1	2	R1384J
752.666	0.967	822469	WORD_OFF	n/a	n/a	SEA	1	7	[0, 0, 0]	n/a	FR1	2	R1384J
753.633	1.6	823441	WORD	n/a	wordpools/wordpool_short_EN.txt	WOLF	2	7	[0, 0, 0]	n/a	FR1	2	R1384J
755.25	0.849	825057	WORD_OFF	n/a	n/a	WOLF	2	7	[0, 0, 0]	n/a	FR1	2	R1384J
756.099	1.6	825905	WORD	n/a	wordpools/wordpool_short_EN.txt	POT	3	7	[0, 0, 0]	n/a	FR1	2	R1384J
757.699	0.984	827511	WORD_OFF	n/a	n/a	POT	3	7	[0, 0, 0]	n/a	FR1	2	R1384J
758.683	1.6	828493	WORD	n/a	wordpools/wordpool_short_EN.txt	BRIDGE	4	7	[0, 0, 0]	n/a	FR1	2	R1384J
760.283	0.949	830088	WORD_OFF	n/a	n/a	BRIDGE	4	7	[0, 0, 0]	n/a	FR1	2	R1384J
761.232	1.6	831039	WORD	n/a	wordpools/wordpool_short_EN.txt	SACK	5	7	[0, 0, 0]	n/a	FR1	2	R1384J
762.832	0.951	832645	WORD_OFF	n/a	n/a	SACK	5	7	[0, 0, 0]	n/a	FR1	2	R1384J
763.783	1.6	833586	WORD	n/a	wordpools/wordpool_short_EN.txt	BARN	6	7	[0, 0, 0]	n/a	FR1	2	R1384J
765.399	0.784	835202	WORD_OFF	n/a	n/a	BARN	6	7	[0, 0, 0]	n/a	FR1	2	R1384J
766.183	1.6	835989	WORD	n/a	wordpools/wordpool_short_EN.txt	PORK	7	7	[0, 0, 0]	n/a	FR1	2	R1384J
767.799	0.884	837605	WORD_OFF	n/a	n/a	PORK	7	7	[0, 0, 0]	n/a	FR1	2	R1384J
768.683	1.6	838484	WORD	n/a	wordpools/wordpool_short_EN.txt	CLOWN	8	7	[0, 0, 0]	n/a	FR1	2	R1384J
770.299	0.833	840100	WORD_OFF	n/a	n/a	CLOWN	8	7	[0, 0, 0]	n/a	FR1	2	R1384J
771.132	1.6	840939	WORD	n/a	wordpools/wordpool_short_EN.txt	APE	9	7	[0, 0, 0]	n/a	FR1	2	R1384J
772.733	0.766	842534	WORD_OFF	n/a	n/a	APE	9	7	[0, 0, 0]	n/a	FR1	2	R1384J
773.499	1.6	843301	WORD	n/a	wordpools/wordpool_short_EN.txt	MAZE	10	7	[0, 0, 0]	n/a	FR1	2	R1384J
775.099	0.833	844907	WORD_OFF	n/a	n/a	MAZE	10	7	[0, 0, 0]	n/a	FR1	2	R1384J
775.932	1.6	845735	WORD	n/a	wordpools/wordpool_short_EN.txt	CAT	11	7	[0, 0, 0]	n/a	FR1	2	R1384J
777.532	0.983	847341	WORD_OFF	n/a	n/a	CAT	11	7	[0, 0, 0]	n/a	FR1	2	R1384J
778.515	1.6	848323	WORD	n/a	wordpools/wordpool_short_EN.txt	SMOKE	12	7	[0, 0, 0]	n/a	FR1	2	R1384J
780.115	0.001	849918	WORD_OFF	n/a	n/a	SMOKE	12	7	[0, 0, 0]	n/a	FR1	2	R1384J
780.116	0.001	849921	PROB	7.149	n/a	n/a	-999	7	[3, 6, 6]	15.0	FR1	2	R1384J
780.117	0.0	849922	START	n/a	n/a	n/a	-999	7	[-999, -999, -999]	n/a	FR1	2	R1384J
780.117	0.0	849928	ENCODING_END	n/a	n/a	n/a	-999	7	[0, 0, 0]	n/a	FR1	2	R1384J
780.117	7.166	849928	DISTRACT_START	n/a	n/a	n/a	-999	7	[0, 0, 0]	n/a	FR1	2	R1384J
787.283	5.065	857088	PROB	5.049	n/a	n/a	-999	7	[6, 4, 7]	17.0	FR1	2	R1384J
792.348	9.735	862153	PROB	9.718	n/a	n/a	-999	7	[7, 2, 6]	13.0	FR1	2	R1384J
802.083	0.0	871885	DISTRACT_END	n/a	n/a	n/a	-999	7	[0, 0, 0]	n/a	FR1	2	R1384J
802.083	1.25	871887	STOP	n/a	n/a	n/a	-999	7	[-999, -999, -999]	n/a	FR1	2	R1384J
803.333	18.054	873143	REC_START	n/a	n/a	n/a	-999	7	[0, 0, 0]	n/a	FR1	2	R1384J
821.387	1.0	891191	REC_WORD_VV	18.054	n/a	<>	-999	7	[0, 0, 0]	n/a	FR1	2	R1384J
822.387	11.224	892191	REC_WORD_VV	19.054	n/a	<>	-999	7	[0, 0, 0]	n/a	FR1	2	R1384J
833.611	43.988	903414	REC_END	n/a	n/a	n/a	-999	7	[0, 0, 0]	n/a	FR1	2	R1384J
877.599	10.0	947400	COUNTDOWN_START	n/a	n/a	n/a	-999	8	[0, 0, 0]	n/a	FR1	2	R1384J
887.96	0.0	957760	COUNTDOWN_END	n/a	n/a	n/a	-999	8	[0, 0, 0]	n/a	FR1	2	R1384J
887.96	2.322	957760	ENCODING_START	n/a	n/a	n/a	-999	8	[0, 0, 0]	n/a	FR1	2	R1384J
890.282	1.6	960081	WORD	n/a	wordpools/wordpool_short_EN.txt	RICE	1	8	[0, 0, 0]	n/a	FR1	2	R1384J
891.883	0.767	961687	WORD_OFF	n/a	n/a	RICE	1	8	[0, 0, 0]	n/a	FR1	2	R1384J
892.65	1.6	962454	WORD	n/a	wordpools/wordpool_short_EN.txt	SEED	2	8	[0, 0, 0]	n/a	FR1	2	R1384J
894.25	0.8	964049	WORD_OFF	n/a	n/a	SEED	2	8	[0, 0, 0]	n/a	FR1	2	R1384J
895.05	1.6	964847	WORD	n/a	wordpools/wordpool_short_EN.txt	BIN	3	8	[0, 0, 0]	n/a	FR1	2	R1384J
896.665	0.985	966463	WORD_OFF	n/a	n/a	BIN	3	8	[0, 0, 0]	n/a	FR1	2	R1384J
897.65	1.6	967455	WORD	n/a	wordpools/wordpool_short_EN.txt	LAMP	4	8	[0, 0, 0]	n/a	FR1	2	R1384J
899.266	0.866	969070	WORD_OFF	n/a	n/a	LAMP	4	8	[0, 0, 0]	n/a	FR1	2	R1384J
900.132	1.6	969929	WORD	n/a	wordpools/wordpool_short_EN.txt	TOY	5	8	[0, 0, 0]	n/a	FR1	2	R1384J
901.733	0.933	971535	WORD_OFF	n/a	n/a	TOY	5	8	[0, 0, 0]	n/a	FR1	2	R1384J
902.666	1.6	972466	WORD	n/a	wordpools/wordpool_short_EN.txt	GOLD	6	8	[0, 0, 0]	n/a	FR1	2	R1384J
904.266	0.95	974071	WORD_OFF	n/a	n/a	GOLD	6	8	[0, 0, 0]	n/a	FR1	2	R1384J
905.216	1.6	975022	WORD	n/a	wordpools/wordpool_short_EN.txt	OAR	7	8	[0, 0, 0]	n/a	FR1	2	R1384J
906.816	0.816	976618	WORD_OFF	n/a	n/a	OAR	7	8	[0, 0, 0]	n/a	FR1	2	R1384J
907.632	1.6	977436	WORD	n/a	wordpools/wordpool_short_EN.txt	PAINT	8	8	[0, 0, 0]	n/a	FR1	2	R1384J
909.233	0.966	979031	WORD_OFF	n/a	n/a	PAINT	8	8	[0, 0, 0]	n/a	FR1	2	R1384J
910.199	1.6	980003	WORD	n/a	wordpools/wordpool_short_EN.txt	GLASS	9	8	[0, 0, 0]	n/a	FR1	2	R1384J
911.799	0.8	981598	WORD_OFF	n/a	n/a	GLASS	9	8	[0, 0, 0]	n/a	FR1	2	R1384J
912.599	1.6	982396	WORD	n/a	wordpools/wordpool_short_EN.txt	MEAL	10	8	[0, 0, 0]	n/a	FR1	2	R1384J
914.199	0.834	984001	WORD_OFF	n/a	n/a	MEAL	10	8	[0, 0, 0]	n/a	FR1	2	R1384J
915.033	1.6	984830	WORD	n/a	wordpools/wordpool_short_EN.txt	FROG	11	8	[0, 0, 0]	n/a	FR1	2	R1384J
916.65	0.966	986446	WORD_OFF	n/a	n/a	FROG	11	8	[0, 0, 0]	n/a	FR1	2	R1384J
917.616	1.6	987417	WORD	n/a	wordpools/wordpool_short_EN.txt	PET	12	8	[0, 0, 0]	n/a	FR1	2	R1384J
919.216	0.001	989013	WORD_OFF	n/a	n/a	PET	12	8	[0, 0, 0]	n/a	FR1	2	R1384J
919.217	0.001	989017	PROB	6.282	n/a	n/a	-999	8	[8, 2, 7]	17.0	FR1	2	R1384J
919.218	0.0	989018	START	n/a	n/a	n/a	-999	8	[-999, -999, -999]	n/a	FR1	2	R1384J
919.218	0.0	989023	ENCODING_END	n/a	n/a	n/a	-999	8	[0, 0, 0]	n/a	FR1	2	R1384J
919.218	6.299	989023	DISTRACT_START	n/a	n/a	n/a	-999	8	[0, 0, 0]	n/a	FR1	2	R1384J
925.517	5.417	995316	PROB	5.399	n/a	n/a	-999	8	[6, 3, 2]	11.0	FR1	2	R1384J
930.934	6.332	1000733	PROB	6.316	n/a	n/a	-999	8	[3, 7, 3]	13.0	FR1	2	R1384J
937.266	10.617	1007065	PROB	10.6	n/a	n/a	-999	8	[5, 6, 6]	17.0	FR1	2	R1384J
947.883	0.0	1017678	DISTRACT_END	n/a	n/a	n/a	-999	8	[0, 0, 0]	n/a	FR1	2	R1384J
947.883	1.316	1017681	STOP	n/a	n/a	n/a	-999	8	[-999, -999, -999]	n/a	FR1	2	R1384J
949.199	1.41	1018998	REC_START	n/a	n/a	n/a	-999	8	[0, 0, 0]	n/a	FR1	2	R1384J
950.609	2.131	1020407	REC_WORD	1.41	n/a	RICE	1	8	[0, 0, 0]	n/a	FR1	2	R1384J
952.74	5.205	1022538	REC_WORD	3.541	n/a	OAR	7	8	[0, 0, 0]	n/a	FR1	2	R1384J
957.945	16.419	1027743	REC_WORD	8.746	n/a	SEED	2	8	[0, 0, 0]	n/a	FR1	2	R1384J
974.364	1.346	1044161	REC_WORD	25.165	n/a	TOAD	-999	8	[0, 0, 0]	n/a	FR1	2	R1384J
975.71	3.765	1045507	REC_WORD_VV	26.511	n/a	<>	-999	8	[0, 0, 0]	n/a	FR1	2	R1384J
979.475	10.808	1049269	REC_END	n/a	n/a	n/a	-999	8	[0, 0, 0]	n/a	FR1	2	R1384J
990.283	10.0	1060079	COUNTDOWN_START	n/a	n/a	n/a	-999	9	[0, 0, 0]	n/a	FR1	2	R1384J
1000.643	0.001	1070438	COUNTDOWN_END	n/a	n/a	n/a	-999	9	[0, 0, 0]	n/a	FR1	2	R1384J
1000.644	2.272	1070438	ENCODING_START	n/a	n/a	n/a	-999	9	[0, 0, 0]	n/a	FR1	2	R1384J
1002.916	1.6	1072709	WORD	n/a	wordpools/wordpool_short_EN.txt	FORT	1	9	[0, 0, 0]	n/a	FR1	2	R1384J
1004.516	0.95	1074314	WORD_OFF	n/a	n/a	FORT	1	9	[0, 0, 0]	n/a	FR1	2	R1384J
1005.466	1.6	1075265	WORD	n/a	wordpools/wordpool_short_EN.txt	PARK	2	9	[0, 0, 0]	n/a	FR1	2	R1384J
1007.066	0.85	1076871	WORD_OFF	n/a	n/a	PARK	2	9	[0, 0, 0]	n/a	FR1	2	R1384J
1007.916	1.6	1077710	WORD	n/a	wordpools/wordpool_short_EN.txt	MEAT	3	9	[0, 0, 0]	n/a	FR1	2	R1384J
1009.516	0.883	1079315	WORD_OFF	n/a	n/a	MEAT	3	9	[0, 0, 0]	n/a	FR1	2	R1384J
1010.399	1.6	1080195	WORD	n/a	wordpools/wordpool_short_EN.txt	RUG	4	9	[0, 0, 0]	n/a	FR1	2	R1384J
1011.999	0.851	1081800	WORD_OFF	n/a	n/a	RUG	4	9	[0, 0, 0]	n/a	FR1	2	R1384J
1012.85	1.6	1082649	WORD	n/a	wordpools/wordpool_short_EN.txt	BOY	5	9	[0, 0, 0]	n/a	FR1	2	R1384J
1014.45	0.783	1084245	WORD_OFF	n/a	n/a	BOY	5	9	[0, 0, 0]	n/a	FR1	2	R1384J
1015.233	1.6	1085032	WORD	n/a	wordpools/wordpool_short_EN.txt	MOOSE	6	9	[0, 0, 0]	n/a	FR1	2	R1384J
1016.833	1.0	1086627	WORD_OFF	n/a	n/a	MOOSE	6	9	[0, 0, 0]	n/a	FR1	2	R1384J
1017.833	1.6	1087630	WORD	n/a	wordpools/wordpool_short_EN.txt	SOCK	7	9	[0, 0, 0]	n/a	FR1	2	R1384J
1019.433	0.833	1089225	WORD_OFF	n/a	n/a	SOCK	7	9	[0, 0, 0]	n/a	FR1	2	R1384J
1020.266	1.6	1090064	WORD	n/a	wordpools/wordpool_short_EN.txt	THROAT	8	9	[0, 0, 0]	n/a	FR1	2	R1384J
1021.883	0.916	1091679	WORD_OFF	n/a	n/a	THROAT	8	9	[0, 0, 0]	n/a	FR1	2	R1384J
1022.799	1.6	1092600	WORD	n/a	wordpools/wordpool_short_EN.txt	CAVE	9	9	[0, 0, 0]	n/a	FR1	2	R1384J
1024.399	0.767	1094195	WORD_OFF	n/a	n/a	CAVE	9	9	[0, 0, 0]	n/a	FR1	2	R1384J
1025.166	1.6	1094962	WORD	n/a	wordpools/wordpool_short_EN.txt	SHEET	10	9	[0, 0, 0]	n/a	FR1	2	R1384J
1026.783	0.9	1096578	WORD_OFF	n/a	n/a	SHEET	10	9	[0, 0, 0]	n/a	FR1	2	R1384J
1027.683	1.6	1097478	WORD	n/a	wordpools/wordpool_short_EN.txt	FLAME	11	9	[0, 0, 0]	n/a	FR1	2	R1384J
1029.283	0.767	1099084	WORD_OFF	n/a	n/a	FLAME	11	9	[0, 0, 0]	n/a	FR1	2	R1384J
1030.05	1.6	1099840	WORD	n/a	wordpools/wordpool_short_EN.txt	EARTH	12	9	[0, 0, 0]	n/a	FR1	2	R1384J
1031.65	0.0	1101445	PROB	8.066	n/a	n/a	-999	9	[8, 3, 5]	16.0	FR1	2	R1384J
1031.65	0.001	1101446	WORD_OFF	n/a	n/a	EARTH	12	9	[0, 0, 0]	n/a	FR1	2	R1384J
1031.651	0.0	1101446	ENCODING_END	n/a	n/a	n/a	-999	9	[0, 0, 0]	n/a	FR1	2	R1384J
1031.651	0.0	1101446	DISTRACT_START	n/a	n/a	n/a	-999	9	[0, 0, 0]	n/a	FR1	2	R1384J
1031.651	8.082	1101446	START	n/a	n/a	n/a	-999	9	[-999, -999, -999]	n/a	FR1	2	R1384J
1039.733	4.583	1109528	PROB	4.566	n/a	n/a	-999	9	[5, 3, 2]	10.0	FR1	2	R1384J
1044.316	7.034	1114110	PROB	7.016	n/a	n/a	-999	9	[3, 8, 7]	18.0	FR1	2	R1384J
1051.35	11.649	1121144	PROB	11.633	n/a	n/a	-999	9	[5, 4, 8]	15.0	FR1	2	R1384J
1062.999	0.0	1132791	DISTRACT_END	n/a	n/a	n/a	-999	9	[0, 0, 0]	n/a	FR1	2	R1384J
1062.999	1.3	1132793	STOP	n/a	n/a	n/a	-999	9	[-999, -999, -999]	n/a	FR1	2	R1384J
1064.299	1.2	1134090	REC_START	n/a	n/a	n/a	-999	9	[0, 0, 0]	n/a	FR1	2	R1384J
1065.499	2.3	1135292	REC_WORD	1.2	n/a	MOOSE	6	9	[0, 0, 0]	n/a	FR1	2	R1384J
1067.799	26.762	1137592	REC_WORD	3.5	n/a	THROAT	8	9	[0, 0, 0]	n/a	FR1	2	R1384J
1094.561	2.372	1164351	REC_END	n/a	n/a	n/a	-999	9	[0, 0, 0]	n/a	FR1	2	R1384J
1096.933	10.0	1166724	COUNTDOWN_START	n/a	n/a	n/a	-999	10	[0, 0, 0]	n/a	FR1	2	R1384J
1107.295	0.0	1177083	COUNTDOWN_END	n/a	n/a	n/a	-999	10	[0, 0, 0]	n/a	FR1	2	R1384J
1107.295	2.271	1177094	ENCODING_START	n/a	n/a	n/a	-999	10	[0, 0, 0]	n/a	FR1	2	R1384J
1109.566	1.6	1179364	WORD	n/a	wordpools/wordpool_short_EN.txt	CLAY	1	10	[0, 0, 0]	n/a	FR1	2	R1384J
1111.166	1.0	1180959	WORD_OFF	n/a	n/a	CLAY	1	10	[0, 0, 0]	n/a	FR1	2	R1384J
1112.166	1.6	1181962	WORD	n/a	wordpools/wordpool_short_EN.txt	ELF	2	10	[0, 0, 0]	n/a	FR1	2	R1384J
1113.766	0.9	1183557	WORD_OFF	n/a	n/a	ELF	2	10	[0, 0, 0]	n/a	FR1	2	R1384J
1114.666	1.6	1184457	WORD	n/a	wordpools/wordpool_short_EN.txt	FOOD	3	10	[0, 0, 0]	n/a	FR1	2	R1384J
1116.266	0.767	1186063	WORD_OFF	n/a	n/a	FOOD	3	10	[0, 0, 0]	n/a	FR1	2	R1384J
1117.033	1.6	1186830	WORD	n/a	wordpools/wordpool_short_EN.txt	CONE	4	10	[0, 0, 0]	n/a	FR1	2	R1384J
1118.633	0.767	1188425	WORD_OFF	n/a	n/a	CONE	4	10	[0, 0, 0]	n/a	FR1	2	R1384J
1119.4	1.6	1189192	WORD	n/a	wordpools/wordpool_short_EN.txt	CAGE	5	10	[0, 0, 0]	n/a	FR1	2	R1384J
1121.015	0.951	1190808	WORD_OFF	n/a	n/a	CAGE	5	10	[0, 0, 0]	n/a	FR1	2	R1384J
1121.966	1.6	1191759	WORD	n/a	wordpools/wordpool_short_EN.txt	PURSE	6	10	[0, 0, 0]	n/a	FR1	2	R1384J
1123.566	0.85	1193354	WORD_OFF	n/a	n/a	PURSE	6	10	[0, 0, 0]	n/a	FR1	2	R1384J
1124.416	1.6	1194213	WORD	n/a	wordpools/wordpool_short_EN.txt	STONE	7	10	[0, 0, 0]	n/a	FR1	2	R1384J
1126.032	0.884	1195819	WORD_OFF	n/a	n/a	STONE	7	10	[0, 0, 0]	n/a	FR1	2	R1384J
1126.916	1.6	1196709	WORD	n/a	wordpools/wordpool_short_EN.txt	HEEL	8	10	[0, 0, 0]	n/a	FR1	2	R1384J
1128.533	0.867	1198324	WORD_OFF	n/a	n/a	HEEL	8	10	[0, 0, 0]	n/a	FR1	2	R1384J
1129.4	1.6	1199194	WORD	n/a	wordpools/wordpool_short_EN.txt	HOUSE	9	10	[0, 0, 0]	n/a	FR1	2	R1384J
1131.0	1.0	1200789	WORD_OFF	n/a	n/a	HOUSE	9	10	[0, 0, 0]	n/a	FR1	2	R1384J
1132.0	1.6	1201791	WORD	n/a	wordpools/wordpool_short_EN.txt	SMILE	10	10	[0, 0, 0]	n/a	FR1	2	R1384J
1133.616	0.966	1203407	WORD_OFF	n/a	n/a	SMILE	10	10	[0, 0, 0]	n/a	FR1	2	R1384J
1134.582	1.6	1204368	WORD	n/a	wordpools/wordpool_short_EN.txt	HOLE	11	10	[0, 0, 0]	n/a	FR1	2	R1384J
1136.184	0.799	1205974	WORD_OFF	n/a	n/a	HOLE	11	10	[0, 0, 0]	n/a	FR1	2	R1384J
1136.983	1.6	1206772	WORD	n/a	wordpools/wordpool_short_EN.txt	MAIL	12	10	[0, 0, 0]	n/a	FR1	2	R1384J
1138.6	0.0	1208388	WORD_OFF	n/a	n/a	MAIL	12	10	[0, 0, 0]	n/a	FR1	2	R1384J
1138.6	0.001	1208390	PROB	10.266	n/a	n/a	-999	10	[7, 6, 3]	16.0	FR1	2	R1384J
1138.601	0.0	1208391	START	n/a	n/a	n/a	-999	10	[-999, -999, -999]	n/a	FR1	2	R1384J
1138.601	0.0	1208398	ENCODING_END	n/a	n/a	n/a	-999	10	[0, 0, 0]	n/a	FR1	2	R1384J
1138.601	10.282	1208398	DISTRACT_START	n/a	n/a	n/a	-999	10	[0, 0, 0]	n/a	FR1	2	R1384J
1148.883	7.066	1218673	PROB	7.05	n/a	n/a	-999	10	[7, 1, 5]	13.0	FR1	2	R1384J
1155.949	10.416	1225739	PROB	10.399	n/a	n/a	-999	10	[7, 6, 6]	18.0	FR1	2	R1384J
1166.365	0.0	1236153	DISTRACT_END	n/a	n/a	n/a	-999	10	[0, 0, 0]	n/a	FR1	2	R1384J
1166.365	1.2	1236154	STOP	n/a	n/a	n/a	-999	10	[-999, -999, -999]	n/a	FR1	2	R1384J
1167.565	6.61	1237360	REC_START	n/a	n/a	n/a	-999	10	[0, 0, 0]	n/a	FR1	2	R1384J
1174.175	8.775	1243964	REC_WORD	6.61	n/a	CLAY	1	10	[0, 0, 0]	n/a	FR1	2	R1384J
1182.95	14.88	1252739	REC_WORD	15.385	n/a	FLAME	-999	10	[0, 0, 0]	n/a	FR1	2	R1384J
1197.83	2.153	1267621	REC_END	n/a	n/a	n/a	-999	10	[0, 0, 0]	n/a	FR1	2	R1384J
1199.983	10.0	1269769	COUNTDOWN_START	n/a	n/a	n/a	-999	11	[0, 0, 0]	n/a	FR1	2	R1384J
1210.352	0.0	1280139	COUNTDOWN_END	n/a	n/a	n/a	-999	11	[0, 0, 0]	n/a	FR1	2	R1384J
1210.352	1.948	1280139	ENCODING_START	n/a	n/a	n/a	-999	11	[0, 0, 0]	n/a	FR1	2	R1384J
1212.3	1.6	1282092	WORD	n/a	wordpools/wordpool_short_EN.txt	CASH	1	11	[0, 0, 0]	n/a	FR1	2	R1384J
1213.916	0.967	1283708	WORD_OFF	n/a	n/a	CASH	1	11	[0, 0, 0]	n/a	FR1	2	R1384J
1214.883	1.6	1284669	WORD	n/a	wordpools/wordpool_short_EN.txt	FARM	2	11	[0, 0, 0]	n/a	FR1	2	R1384J
1216.483	0.967	1286275	WORD_OFF	n/a	n/a	FARM	2	11	[0, 0, 0]	n/a	FR1	2	R1384J
1217.45	1.6	1287236	WORD	n/a	wordpools/wordpool_short_EN.txt	NET	3	11	[0, 0, 0]	n/a	FR1	2	R1384J
1219.05	0.783	1288842	WORD_OFF	n/a	n/a	NET	3	11	[0, 0, 0]	n/a	FR1	2	R1384J
1219.833	1.6	1289619	WORD	n/a	wordpools/wordpool_short_EN.txt	TRAY	4	11	[0, 0, 0]	n/a	FR1	2	R1384J
1221.433	0.967	1291225	WORD_OFF	n/a	n/a	TRAY	4	11	[0, 0, 0]	n/a	FR1	2	R1384J
1222.4	1.6	1292186	WORD	n/a	wordpools/wordpool_short_EN.txt	COIN	5	11	[0, 0, 0]	n/a	FR1	2	R1384J
1224.016	0.9	1293802	WORD_OFF	n/a	n/a	COIN	5	11	[0, 0, 0]	n/a	FR1	2	R1384J
1224.916	1.6	1294702	WORD	n/a	wordpools/wordpool_short_EN.txt	SHIELD	6	11	[0, 0, 0]	n/a	FR1	2	R1384J
1226.516	0.984	1296307	WORD_OFF	n/a	n/a	SHIELD	6	11	[0, 0, 0]	n/a	FR1	2	R1384J
1227.5	1.6	1297289	WORD	n/a	wordpools/wordpool_short_EN.txt	PRINCE	7	11	[0, 0, 0]	n/a	FR1	2	R1384J
1229.1	0.95	1298885	WORD_OFF	n/a	n/a	PRINCE	7	11	[0, 0, 0]	n/a	FR1	2	R1384J
1230.05	1.6	1299836	WORD	n/a	wordpools/wordpool_short_EN.txt	BREAST	8	11	[0, 0, 0]	n/a	FR1	2	R1384J
1231.666	0.934	1301452	WORD_OFF	n/a	n/a	BREAST	8	11	[0, 0, 0]	n/a	FR1	2	R1384J
1232.6	1.6	1302392	WORD	n/a	wordpools/wordpool_short_EN.txt	BOLT	9	11	[0, 0, 0]	n/a	FR1	2	R1384J
1234.2	0.983	1303988	WORD_OFF	n/a	n/a	BOLT	9	11	[0, 0, 0]	n/a	FR1	2	R1384J
1235.183	1.6	1304970	WORD	n/a	wordpools/wordpool_short_EN.txt	POLE	10	11	[0, 0, 0]	n/a	FR1	2	R1384J
1236.783	0.8	1306575	WORD_OFF	n/a	n/a	POLE	10	11	[0, 0, 0]	n/a	FR1	2	R1384J
1237.583	1.6	1307373	WORD	n/a	wordpools/wordpool_short_EN.txt	SHARK	11	11	[0, 0, 0]	n/a	FR1	2	R1384J
1239.199	0.834	1308989	WORD_OFF	n/a	n/a	SHARK	11	11	[0, 0, 0]	n/a	FR1	2	R1384J
1240.033	1.6	1309817	WORD	n/a	wordpools/wordpool_short_EN.txt	BROOM	12	11	[0, 0, 0]	n/a	FR1	2	R1384J
1241.649	0.001	1311433	WORD_OFF	n/a	n/a	BROOM	12	11	[0, 0, 0]	n/a	FR1	2	R1384J
1241.65	0.0	1311433	ENCODING_END	n/a	n/a	n/a	-999	11	[0, 0, 0]	n/a	FR1	2	R1384J
1241.65	0.0	1311436	START	n/a	n/a	n/a	-999	11	[-999, -999, -999]	n/a	FR1	2	R1384J
1241.65	0.0	1311436	PROB	10.116	n/a	n/a	-999	11	[3, 8, 5]	16.0	FR1	2	R1384J
1241.65	10.133	1311443	DISTRACT_START	n/a	n/a	n/a	-999	11	[0, 0, 0]	n/a	FR1	2	R1384J
1251.783	9.6	1321569	PROB	9.583	n/a	n/a	-999	11	[7, 3, 3]	13.0	FR1	2	R1384J
1261.383	6.199	1331168	PROB	6.183	n/a	n/a	-999	11	[7, 1, 8]	17.0	FR1	2	R1384J
1267.582	0.0	1337367	STOP	n/a	n/a	n/a	-999	11	[-999, -999, -999]	n/a	FR1	2	R1384J
1267.582	1.384	1337368	DISTRACT_END	n/a	n/a	n/a	-999	11	[0, 0, 0]	n/a	FR1	2	R1384J
1268.966	2.259	1338749	REC_START	n/a	n/a	n/a	-999	11	[0, 0, 0]	n/a	FR1	2	R1384J
1271.225	1.636	1341010	REC_WORD	2.259	n/a	SHARK	11	11	[0, 0, 0]	n/a	FR1	2	R1384J
1272.861	8.795	1342646	REC_WORD	3.895	n/a	BROOM	12	11	[0, 0, 0]	n/a	FR1	2	R1384J
1281.656	17.557	1351440	REC_WORD	12.69	n/a	MAIL	-999	11	[0, 0, 0]	n/a	FR1	2	R1384J
1299.213	2.554	1369000	REC_END	n/a	n/a	n/a	-999	11	[0, 0, 0]	n/a	FR1	2	R1384J
1301.767	10.0	1371556	COUNTDOWN_START	n/a	n/a	n/a	-999	12	[0, 0, 0]	n/a	FR1	2	R1384J
1312.136	0.0	1381916	COUNTDOWN_END	n/a	n/a	n/a	-999	12	[0, 0, 0]	n/a	FR1	2	R1384J
1312.136	2.114	1381926	ENCODING_START	n/a	n/a	n/a	-999	12	[0, 0, 0]	n/a	FR1	2	R1384J
1314.25	1.6	1384033	WORD	n/a	wordpools/wordpool_short_EN.txt	BONE	1	12	[0, 0, 0]	n/a	FR1	2	R1384J
1315.85	1.0	1385638	WORD_OFF	n/a	n/a	BONE	1	12	[0, 0, 0]	n/a	FR1	2	R1384J
1316.85	1.6	1386630	WORD	n/a	wordpools/wordpool_short_EN.txt	RAKE	2	12	[0, 0, 0]	n/a	FR1	2	R1384J
1318.466	0.85	1388246	WORD_OFF	n/a	n/a	RAKE	2	12	[0, 0, 0]	n/a	FR1	2	R1384J
1319.316	1.6	1389105	WORD	n/a	wordpools/wordpool_short_EN.txt	PIN	3	12	[0, 0, 0]	n/a	FR1	2	R1384J
1320.916	0.984	1390701	WORD_OFF	n/a	n/a	PIN	3	12	[0, 0, 0]	n/a	FR1	2	R1384J
1321.9	1.6	1391683	WORD	n/a	wordpools/wordpool_short_EN.txt	SLUSH	4	12	[0, 0, 0]	n/a	FR1	2	R1384J
1323.515	0.885	1393298	WORD_OFF	n/a	n/a	SLUSH	4	12	[0, 0, 0]	n/a	FR1	2	R1384J
1324.4	1.6	1394188	WORD	n/a	wordpools/wordpool_short_EN.txt	LAND	5	12	[0, 0, 0]	n/a	FR1	2	R1384J
1326.016	0.766	1395804	WORD_OFF	n/a	n/a	LAND	5	12	[0, 0, 0]	n/a	FR1	2	R1384J
1326.782	1.6	1396561	WORD	n/a	wordpools/wordpool_short_EN.txt	BAT	6	12	[0, 0, 0]	n/a	FR1	2	R1384J
1328.382	0.969	1398166	WORD_OFF	n/a	n/a	BAT	6	12	[0, 0, 0]	n/a	FR1	2	R1384J
1329.351	1.6	1399138	WORD	n/a	wordpools/wordpool_short_EN.txt	SPRING	7	12	[0, 0, 0]	n/a	FR1	2	R1384J
1330.95	0.8	1400733	WORD_OFF	n/a	n/a	SPRING	7	12	[0, 0, 0]	n/a	FR1	2	R1384J
1331.75	1.6	1401531	WORD	n/a	wordpools/wordpool_short_EN.txt	BRANCH	8	12	[0, 0, 0]	n/a	FR1	2	R1384J
1333.351	0.882	1403137	WORD_OFF	n/a	n/a	BRANCH	8	12	[0, 0, 0]	n/a	FR1	2	R1384J
1334.233	1.6	1404016	WORD	n/a	wordpools/wordpool_short_EN.txt	BOWL	9	12	[0, 0, 0]	n/a	FR1	2	R1384J
1335.849	0.901	1405632	WORD_OFF	n/a	n/a	BOWL	9	12	[0, 0, 0]	n/a	FR1	2	R1384J
1336.75	1.6	1406532	WORD	n/a	wordpools/wordpool_short_EN.txt	BLOOD	10	12	[0, 0, 0]	n/a	FR1	2	R1384J
1338.366	0.85	1408148	WORD_OFF	n/a	n/a	BLOOD	10	12	[0, 0, 0]	n/a	FR1	2	R1384J
1339.216	1.6	1408996	WORD	n/a	wordpools/wordpool_short_EN.txt	SALT	11	12	[0, 0, 0]	n/a	FR1	2	R1384J
1340.816	0.934	1410602	WORD_OFF	n/a	n/a	SALT	11	12	[0, 0, 0]	n/a	FR1	2	R1384J
1341.75	1.6	1411533	WORD	n/a	wordpools/wordpool_short_EN.txt	CHIN	12	12	[0, 0, 0]	n/a	FR1	2	R1384J
1343.366	0.002	1413149	WORD_OFF	n/a	n/a	CHIN	12	12	[0, 0, 0]	n/a	FR1	2	R1384J
1343.368	0.0	1413149	ENCODING_END	n/a	n/a	n/a	-999	12	[0, 0, 0]	n/a	FR1	2	R1384J
1343.368	0.0	1413149	DISTRACT_START	n/a	n/a	n/a	-999	12	[0, 0, 0]	n/a	FR1	2	R1384J
1343.367	0.001	1413149	PROB	3.916	n/a	n/a	-999	12	[5, 5, 8]	18.0	FR1	2	R1384J
1343.368	3.932	1413150	START	n/a	n/a	n/a	-999	12	[-999, -999, -999]	n/a	FR1	2	R1384J
1347.3	4.0	1417082	PROB	3.983	n/a	n/a	-999	12	[4, 2, 3]	9.0	FR1	2	R1384J
1351.3	4.933	1421082	PROB	4.916	n/a	n/a	-999	12	[6, 2, 4]	12.0	FR1	2	R1384J
1356.233	14.515	1426014	PROB	14.499	n/a	n/a	-999	12	[6, 4, 6]	16.0	FR1	2	R1384J
1370.748	0.0	1440526	DISTRACT_END	n/a	n/a	n/a	-999	12	[0, 0, 0]	n/a	FR1	2	R1384J
1370.748	1.084	1440529	STOP	n/a	n/a	n/a	-999	12	[-999, -999, -999]	n/a	FR1	2	R1384J
1371.832	2.99	1441610	REC_START	n/a	n/a	n/a	-999	12	[0, 0, 0]	n/a	FR1	2	R1384J
1374.822	5.055	1444603	REC_WORD	2.99	n/a	CHIN	12	12	[0, 0, 0]	n/a	FR1	2	R1384J
1379.877	22.205	1449657	REC_WORD	8.045	n/a	BAT	6	12	[0, 0, 0]	n/a	FR1	2	R1384J
1402.082	0.0	1471861	REC_END	n/a	n/a	n/a	-999	12	[0, 0, 0]	n/a	FR1	2	R1384J
