onset	duration	sample	trial_type	response_time	stim_file	item_name	serialpos	list	test	answer	experiment	session	subject
0.0	25.566	429521	SESS_START	n/a	n/a	n/a	-999	-999	[0, 0, 0]	n/a	FR1	1	R1063C
25.566	10.0	442303	COUNTDOWN_START	n/a	n/a	n/a	-999	-999	[0, 0, 0]	n/a	FR1	1	R1063C
35.994	3.858	447516	COUNTDOWN_END	n/a	n/a	n/a	-999	-999	[0, 0, 0]	n/a	FR1	1	R1063C
39.852	1.6	449445	PRACTICE_WORD	n/a	n/a	ATTIC	1	-1	[0, 0, 0]	n/a	FR1	1	R1063C
42.286	1.6	450662	PRACTICE_WORD	n/a	n/a	RHINO	2	-1	[0, 0, 0]	n/a	FR1	1	R1063C
44.853	1.6	451945	PRACTICE_WORD	n/a	n/a	COTTON	3	-1	[0, 0, 0]	n/a	FR1	1	R1063C
47.387	1.6	453212	PRACTICE_WORD	n/a	n/a	TONGUE	4	-1	[0, 0, 0]	n/a	FR1	1	R1063C
49.821	1.6	454429	PRACTICE_WORD	n/a	n/a	CHEST	5	-1	[0, 0, 0]	n/a	FR1	1	R1063C
52.371	1.6	455704	PRACTICE_WORD	n/a	n/a	CAMEL	6	-1	[0, 0, 0]	n/a	FR1	1	R1063C
54.821	1.6	456929	PRACTICE_WORD	n/a	n/a	WATCH	7	-1	[0, 0, 0]	n/a	FR1	1	R1063C
57.189	1.6	458113	PRACTICE_WORD	n/a	n/a	WAGON	8	-1	[0, 0, 0]	n/a	FR1	1	R1063C
59.572	1.6	459304	PRACTICE_WORD	n/a	n/a	BEAM	9	-1	[0, 0, 0]	n/a	FR1	1	R1063C
61.99	1.6	460513	PRACTICE_WORD	n/a	n/a	IRON	10	-1	[0, 0, 0]	n/a	FR1	1	R1063C
64.59	1.6	461813	PRACTICE_WORD	n/a	n/a	FLOOD	11	-1	[0, 0, 0]	n/a	FR1	1	R1063C
67.007	1.6	463021	PRACTICE_WORD	n/a	n/a	RING	12	-1	[0, 0, 0]	n/a	FR1	1	R1063C
68.624	0.001	463830	PRACTICE_DISTRACT_START	n/a	n/a	n/a	-999	-1	[0, 0, 0]	n/a	FR1	1	R1063C
68.625	0.016	463830	START	n/a	n/a	n/a	-999	-1	[-999, -999, -999]	n/a	FR1	1	R1063C
68.641	3.984	463838	PROB	3.95	n/a	n/a	-999	-1	[1, 2, 5]	7.0	FR1	1	R1063C
72.625	2.484	465830	PROB	2.454	n/a	n/a	-999	-1	[2, 5, 2]	9.0	FR1	1	R1063C
75.109	4.684	467072	PROB	4.658	n/a	n/a	-999	-1	[7, 9, 4]	20.0	FR1	1	R1063C
79.793	3.784	469414	PROB	3.758	n/a	n/a	-999	-1	[4, 3, 6]	13.0	FR1	1	R1063C
83.577	3.201	471305	PROB	3.166	n/a	n/a	-999	-1	[4, 4, 5]	13.0	FR1	1	R1063C
86.778	3.501	472906	PROB	3.501	n/a	n/a	-999	-1	[6, 5, 9]	20.0	FR1	1	R1063C
90.279	0.016	474656	STOP	n/a	n/a	n/a	-999	-1	[-999, -999, -999]	n/a	FR1	1	R1063C
90.295	0.586	474664	PRACTICE_DISTRACT_END	n/a	n/a	n/a	-999	-1	[0, 0, 0]	n/a	FR1	1	R1063C
90.881	30.514	474957	PRACTICE_REC_START	n/a	n/a	n/a	-999	-1	[0, 0, 0]	n/a	FR1	1	R1063C
121.395	25.761	490213	PRACTICE_REC_END	n/a	n/a	n/a	-999	-1	[0, 0, 0]	n/a	FR1	1	R1063C
147.156	10.0	503092	COUNTDOWN_START	n/a	n/a	n/a	-999	1	[0, 0, 0]	n/a	FR1	1	R1063C
147.156	10.428	503092	TRIAL	n/a	n/a	n/a	-999	1	[0, 0, 0]	n/a	FR1	1	R1063C
157.584	0.007	508306	COUNTDOWN_END	n/a	n/a	n/a	-999	1	[0, 0, 0]	n/a	FR1	1	R1063C
157.591	1.6	508309	ORIENT	n/a	n/a	n/a	-999	1	[0, 0, 0]	n/a	FR1	1	R1063C
160.125	1.6	509576	WORD	n/a	wordpools/wordpool_EN.txt	ROCK	1	1	[0, 0, 0]	n/a	FR1	1	R1063C
162.575	1.6	510801	WORD	n/a	wordpools/wordpool_EN.txt	BLOOM	2	1	[0, 0, 0]	n/a	FR1	1	R1063C
165.192	1.6	512109	WORD	n/a	wordpools/wordpool_EN.txt	STONE	3	1	[0, 0, 0]	n/a	FR1	1	R1063C
167.743	1.6	513385	WORD	n/a	wordpools/wordpool_EN.txt	FUDGE	4	1	[0, 0, 0]	n/a	FR1	1	R1063C
170.143	1.6	514585	WORD	n/a	wordpools/wordpool_EN.txt	FLAG	5	1	[0, 0, 0]	n/a	FR1	1	R1063C
172.677	1.6	515852	WORD	n/a	wordpools/wordpool_EN.txt	MAZE	6	1	[0, 0, 0]	n/a	FR1	1	R1063C
175.244	1.6	517135	WORD	n/a	wordpools/wordpool_EN.txt	FOG	7	1	[0, 0, 0]	n/a	FR1	1	R1063C
177.66	1.6	518343	WORD	n/a	wordpools/wordpool_EN.txt	SMOKE	8	1	[0, 0, 0]	n/a	FR1	1	R1063C
180.162	1.6	519594	WORD	n/a	wordpools/wordpool_EN.txt	DOCK	9	1	[0, 0, 0]	n/a	FR1	1	R1063C
182.562	1.6	520794	WORD	n/a	wordpools/wordpool_EN.txt	CONE	10	1	[0, 0, 0]	n/a	FR1	1	R1063C
185.012	1.6	522019	WORD	n/a	wordpools/wordpool_EN.txt	BOY	11	1	[0, 0, 0]	n/a	FR1	1	R1063C
187.513	1.6	523269	WORD	n/a	wordpools/wordpool_EN.txt	FORT	12	1	[0, 0, 0]	n/a	FR1	1	R1063C
189.13	0.001	524077	DISTRACT_START	n/a	n/a	n/a	-999	1	[0, 0, 0]	n/a	FR1	1	R1063C
189.131	0.016	524078	START	n/a	n/a	n/a	-999	1	[-999, -999, -999]	n/a	FR1	1	R1063C
189.147	3.251	524086	PROB	3.228	n/a	n/a	-999	1	[3, 4, 6]	16.0	FR1	1	R1063C
192.398	2.533	525711	PROB	2.497	n/a	n/a	-999	1	[9, 5, 4]	14.0	FR1	1	R1063C
194.931	2.134	526978	PROB	2.108	n/a	n/a	-999	1	[5, 4, 6]	15.0	FR1	1	R1063C
197.065	2.35	528045	PROB	2.326	n/a	n/a	-999	1	[3, 2, 5]	10.0	FR1	1	R1063C
199.415	2.351	529219	PROB	2.32	n/a	n/a	-999	1	[1, 9, 4]	14.0	FR1	1	R1063C
201.766	2.951	530395	PROB	2.921	n/a	n/a	-999	1	[7, 7, 5]	19.0	FR1	1	R1063C
204.717	2.333	531870	PROB	2.298	n/a	n/a	-999	1	[9, 2, 1]	12.0	FR1	1	R1063C
207.05	2.757	533037	PROB	2.757	n/a	n/a	-999	1	[3, 3, 7]	13.0	FR1	1	R1063C
209.807	0.011	534415	STOP	n/a	n/a	n/a	-999	1	[-999, -999, -999]	n/a	FR1	1	R1063C
209.818	1.171	534421	DISTRACT_END	n/a	n/a	n/a	-999	1	[0, 0, 0]	n/a	FR1	1	R1063C
210.989	1.6	535006	REC_START	n/a	n/a	n/a	-999	1	[0, 0, 0]	n/a	FR1	1	R1063C
212.589	1.592	535806	REC_WORD_VV	1.6	n/a	<>	-999	1	[0, 0, 0]	n/a	FR1	1	R1063C
214.181	0.84	536602	REC_WORD	3.192	n/a	BLOOM	2	1	[0, 0, 0]	n/a	FR1	1	R1063C
215.021	2.45	537022	REC_WORD	4.032	n/a	FUDGE	4	1	[0, 0, 0]	n/a	FR1	1	R1063C
217.471	1.143	538247	REC_WORD_VV	6.482	n/a	<>	-999	1	[0, 0, 0]	n/a	FR1	1	R1063C
218.614	1.446	538818	REC_WORD	7.625	n/a	SMOKE	8	1	[0, 0, 0]	n/a	FR1	1	R1063C
220.06	5.379	539541	REC_WORD_VV	9.071	n/a	<>	-999	1	[0, 0, 0]	n/a	FR1	1	R1063C
225.439	3.632	542230	REC_WORD_VV	14.45	n/a	<>	-999	1	[0, 0, 0]	n/a	FR1	1	R1063C
229.071	4.98	544046	REC_WORD_VV	18.082	n/a	<>	-999	1	[0, 0, 0]	n/a	FR1	1	R1063C
234.051	6.956	546536	REC_WORD_VV	23.062	n/a	<>	-999	1	[0, 0, 0]	n/a	FR1	1	R1063C
241.007	2.583	550014	REC_END	n/a	n/a	n/a	-999	1	[0, 0, 0]	n/a	FR1	1	R1063C
243.59	10.0	551305	COUNTDOWN_START	n/a	n/a	n/a	-999	2	[0, 0, 0]	n/a	FR1	1	R1063C
243.591	10.427	551306	TRIAL	n/a	n/a	n/a	-999	2	[0, 0, 0]	n/a	FR1	1	R1063C
254.018	0.008	556519	COUNTDOWN_END	n/a	n/a	n/a	-999	2	[0, 0, 0]	n/a	FR1	1	R1063C
254.026	1.6	556523	ORIENT	n/a	n/a	n/a	-999	2	[0, 0, 0]	n/a	FR1	1	R1063C
256.476	1.6	557747	WORD	n/a	wordpools/wordpool_EN.txt	DRESS	1	2	[0, 0, 0]	n/a	FR1	1	R1063C
259.043	1.6	559031	WORD	n/a	wordpools/wordpool_EN.txt	DITCH	2	2	[0, 0, 0]	n/a	FR1	1	R1063C
261.444	1.6	560231	WORD	n/a	wordpools/wordpool_EN.txt	KITE	3	2	[0, 0, 0]	n/a	FR1	1	R1063C
263.861	1.6	561440	WORD	n/a	wordpools/wordpool_EN.txt	ROAD	4	2	[0, 0, 0]	n/a	FR1	1	R1063C
266.295	1.6	562657	WORD	n/a	wordpools/wordpool_EN.txt	GATE	5	2	[0, 0, 0]	n/a	FR1	1	R1063C
268.762	1.6	563890	WORD	n/a	wordpools/wordpool_EN.txt	TIE	6	2	[0, 0, 0]	n/a	FR1	1	R1063C
271.312	1.6	565165	WORD	n/a	wordpools/wordpool_EN.txt	AXE	7	2	[0, 0, 0]	n/a	FR1	1	R1063C
273.763	1.6	566390	WORD	n/a	wordpools/wordpool_EN.txt	STOOL	8	2	[0, 0, 0]	n/a	FR1	1	R1063C
276.297	1.6	567657	WORD	n/a	wordpools/wordpool_EN.txt	NOSE	9	2	[0, 0, 0]	n/a	FR1	1	R1063C
278.847	1.6	568932	WORD	n/a	wordpools/wordpool_EN.txt	SWORD	10	2	[0, 0, 0]	n/a	FR1	1	R1063C
281.331	1.6	570174	WORD	n/a	wordpools/wordpool_EN.txt	SLEEVE	11	2	[0, 0, 0]	n/a	FR1	1	R1063C
283.915	1.6	571466	WORD	n/a	wordpools/wordpool_EN.txt	COUCH	12	2	[0, 0, 0]	n/a	FR1	1	R1063C
285.532	0.001	572274	DISTRACT_START	n/a	n/a	n/a	-999	2	[0, 0, 0]	n/a	FR1	1	R1063C
285.533	0.015	572275	START	n/a	n/a	n/a	-999	2	[-999, -999, -999]	n/a	FR1	1	R1063C
285.548	3.234	572282	PROB	3.203	n/a	n/a	-999	2	[6, 6, 9]	21.0	FR1	1	R1063C
288.782	2.517	573899	PROB	2.489	n/a	n/a	-999	2	[6, 2, 4]	12.0	FR1	1	R1063C
291.299	3.168	575157	PROB	3.132	n/a	n/a	-999	2	[9, 5, 3]	17.0	FR1	1	R1063C
294.467	3.0	576741	PROB	2.98	n/a	n/a	-999	2	[8, 7, 3]	18.0	FR1	1	R1063C
297.467	3.068	578241	PROB	3.036	n/a	n/a	-999	2	[5, 7, 9]	21.0	FR1	1	R1063C
300.535	2.717	579775	PROB	2.68	n/a	n/a	-999	2	[8, 3, 3]	14.0	FR1	1	R1063C
303.252	2.371	581133	PROB	2.371	n/a	n/a	-999	2	[1, 2, 5]	8.0	FR1	1	R1063C
305.623	0.013	582319	STOP	n/a	n/a	n/a	-999	2	[-999, -999, -999]	n/a	FR1	1	R1063C
305.636	1.067	582325	DISTRACT_END	n/a	n/a	n/a	-999	2	[0, 0, 0]	n/a	FR1	1	R1063C
306.703	0.96	582859	REC_START	n/a	n/a	n/a	-999	2	[0, 0, 0]	n/a	FR1	1	R1063C
307.663	0.47	583339	REC_WORD_VV	0.96	n/a	<>	-999	2	[0, 0, 0]	n/a	FR1	1	R1063C
308.133	1.845	583574	REC_WORD	1.43	n/a	KITE	3	2	[0, 0, 0]	n/a	FR1	1	R1063C
309.978	1.954	584496	REC_WORD	3.275	n/a	DITCH	2	2	[0, 0, 0]	n/a	FR1	1	R1063C
311.932	1.591	585473	REC_WORD_VV	5.229	n/a	<>	-999	2	[0, 0, 0]	n/a	FR1	1	R1063C
313.523	2.774	586269	REC_WORD	6.82	n/a	AXE	7	2	[0, 0, 0]	n/a	FR1	1	R1063C
316.297	3.403	587655	REC_WORD_VV	9.594	n/a	<>	-999	2	[0, 0, 0]	n/a	FR1	1	R1063C
319.7	10.001	589357	REC_WORD_VV	12.997	n/a	<>	-999	2	[0, 0, 0]	n/a	FR1	1	R1063C
329.701	1.0	594357	REC_WORD_VV	22.998	n/a	<>	-999	2	[0, 0, 0]	n/a	FR1	1	R1063C
330.701	1.0	594857	REC_WORD_VV	23.998	n/a	<>	-999	2	[0, 0, 0]	n/a	FR1	1	R1063C
331.701	4.393	595357	REC_WORD_VV	24.998	n/a	<>	-999	2	[0, 0, 0]	n/a	FR1	1	R1063C
336.094	0.619	597553	REC_WORD_VV	29.391	n/a	<>	-999	2	[0, 0, 0]	n/a	FR1	1	R1063C
336.713	3.096	597862	REC_END	n/a	n/a	n/a	-999	2	[0, 0, 0]	n/a	FR1	1	R1063C
339.809	0.0	599410	TRIAL	n/a	n/a	n/a	-999	3	[0, 0, 0]	n/a	FR1	1	R1063C
339.809	10.0	599410	COUNTDOWN_START	n/a	n/a	n/a	-999	3	[0, 0, 0]	n/a	FR1	1	R1063C
350.237	0.007	604624	COUNTDOWN_END	n/a	n/a	n/a	-999	3	[0, 0, 0]	n/a	FR1	1	R1063C
350.244	1.6	604627	ORIENT	n/a	n/a	n/a	-999	3	[0, 0, 0]	n/a	FR1	1	R1063C
352.861	1.6	605936	WORD	n/a	wordpools/wordpool_EN.txt	COIN	1	3	[0, 0, 0]	n/a	FR1	1	R1063C
355.295	1.6	607153	WORD	n/a	wordpools/wordpool_EN.txt	TOOL	2	3	[0, 0, 0]	n/a	FR1	1	R1063C
357.812	1.6	608411	WORD	n/a	wordpools/wordpool_EN.txt	MAIL	3	3	[0, 0, 0]	n/a	FR1	1	R1063C
360.346	1.6	609678	WORD	n/a	wordpools/wordpool_EN.txt	RAIN	4	3	[0, 0, 0]	n/a	FR1	1	R1063C
362.796	1.6	610903	WORD	n/a	wordpools/wordpool_EN.txt	BANK	5	3	[0, 0, 0]	n/a	FR1	1	R1063C
365.247	1.6	612128	WORD	n/a	wordpools/wordpool_EN.txt	KEY	6	3	[0, 0, 0]	n/a	FR1	1	R1063C
367.764	1.6	613387	WORD	n/a	wordpools/wordpool_EN.txt	ARK	7	3	[0, 0, 0]	n/a	FR1	1	R1063C
370.231	1.6	614620	WORD	n/a	wordpools/wordpool_EN.txt	SHEET	8	3	[0, 0, 0]	n/a	FR1	1	R1063C
372.698	1.6	615853	WORD	n/a	wordpools/wordpool_EN.txt	PHONE	9	3	[0, 0, 0]	n/a	FR1	1	R1063C
375.182	1.6	617095	WORD	n/a	wordpools/wordpool_EN.txt	CLOTH	10	3	[0, 0, 0]	n/a	FR1	1	R1063C
377.766	1.6	618387	WORD	n/a	wordpools/wordpool_EN.txt	BOOK	11	3	[0, 0, 0]	n/a	FR1	1	R1063C
380.166	1.6	619587	WORD	n/a	wordpools/wordpool_EN.txt	RAKE	12	3	[0, 0, 0]	n/a	FR1	1	R1063C
381.783	0.001	620396	DISTRACT_START	n/a	n/a	n/a	-999	3	[0, 0, 0]	n/a	FR1	1	R1063C
381.784	0.016	620396	START	n/a	n/a	n/a	-999	3	[-999, -999, -999]	n/a	FR1	1	R1063C
381.8	3.717	620404	PROB	3.695	n/a	n/a	-999	3	[5, 8, 4]	17.0	FR1	1	R1063C
385.517	2.334	622262	PROB	2.306	n/a	n/a	-999	3	[6, 5, 2]	13.0	FR1	1	R1063C
387.851	1.717	623429	PROB	1.692	n/a	n/a	-999	3	[6, 2, 5]	13.0	FR1	1	R1063C
389.568	3.167	624288	PROB	3.135	n/a	n/a	-999	3	[8, 8, 7]	19.0	FR1	1	R1063C
392.735	2.251	625871	PROB	2.216	n/a	n/a	-999	3	[3, 6, 4]	13.0	FR1	1	R1063C
394.986	7.373	626996	PROB	7.373	n/a	n/a	-999	3	[9, 9, 7]	25.0	FR1	1	R1063C
402.359	0.011	630683	STOP	n/a	n/a	n/a	-999	3	[-999, -999, -999]	n/a	FR1	1	R1063C
402.37	1.135	630688	DISTRACT_END	n/a	n/a	n/a	-999	3	[0, 0, 0]	n/a	FR1	1	R1063C
403.505	1.677	631256	REC_START	n/a	n/a	n/a	-999	3	[0, 0, 0]	n/a	FR1	1	R1063C
405.182	0.278	632094	REC_WORD_VV	1.677	n/a	<>	-999	3	[0, 0, 0]	n/a	FR1	1	R1063C
405.46	1.359	632233	REC_WORD	1.955	n/a	RAKE	12	3	[0, 0, 0]	n/a	FR1	1	R1063C
406.819	1.134	632912	REC_WORD	3.314	n/a	BOOK	11	3	[0, 0, 0]	n/a	FR1	1	R1063C
407.953	1.658	633479	REC_WORD	4.448	n/a	COIN	1	3	[0, 0, 0]	n/a	FR1	1	R1063C
409.611	8.356	634308	REC_WORD_VV	6.106	n/a	<>	-999	3	[0, 0, 0]	n/a	FR1	1	R1063C
417.967	1.0	638486	REC_WORD_VV	14.462	n/a	<>	-999	3	[0, 0, 0]	n/a	FR1	1	R1063C
418.967	1.0	638986	REC_WORD_VV	15.462	n/a	<>	-999	3	[0, 0, 0]	n/a	FR1	1	R1063C
419.967	1.0	639486	REC_WORD_VV	16.462	n/a	<>	-999	3	[0, 0, 0]	n/a	FR1	1	R1063C
420.967	6.084	639986	REC_WORD_VV	17.462	n/a	<>	-999	3	[0, 0, 0]	n/a	FR1	1	R1063C
427.051	6.464	643028	REC_WORD_VV	23.546	n/a	<>	-999	3	[0, 0, 0]	n/a	FR1	1	R1063C
433.515	2.678	646259	REC_END	n/a	n/a	n/a	-999	3	[0, 0, 0]	n/a	FR1	1	R1063C
436.193	10.0	647598	COUNTDOWN_START	n/a	n/a	n/a	-999	4	[0, 0, 0]	n/a	FR1	1	R1063C
436.194	10.427	647599	TRIAL	n/a	n/a	n/a	-999	4	[0, 0, 0]	n/a	FR1	1	R1063C
446.621	0.008	652812	COUNTDOWN_END	n/a	n/a	n/a	-999	4	[0, 0, 0]	n/a	FR1	1	R1063C
446.629	1.6	652816	ORIENT	n/a	n/a	n/a	-999	4	[0, 0, 0]	n/a	FR1	1	R1063C
449.196	1.6	654099	WORD	n/a	wordpools/wordpool_EN.txt	CHIN	1	4	[0, 0, 0]	n/a	FR1	1	R1063C
451.696	1.6	655349	WORD	n/a	wordpools/wordpool_EN.txt	FORK	2	4	[0, 0, 0]	n/a	FR1	1	R1063C
454.18	1.6	656591	WORD	n/a	wordpools/wordpool_EN.txt	OAR	3	4	[0, 0, 0]	n/a	FR1	1	R1063C
456.747	1.6	657874	WORD	n/a	wordpools/wordpool_EN.txt	DOLL	4	4	[0, 0, 0]	n/a	FR1	1	R1063C
459.364	1.6	659183	WORD	n/a	wordpools/wordpool_EN.txt	DEER	5	4	[0, 0, 0]	n/a	FR1	1	R1063C
461.748	1.6	660375	WORD	n/a	wordpools/wordpool_EN.txt	SEAL	6	4	[0, 0, 0]	n/a	FR1	1	R1063C
464.149	1.6	661575	WORD	n/a	wordpools/wordpool_EN.txt	PET	7	4	[0, 0, 0]	n/a	FR1	1	R1063C
466.716	1.6	662858	WORD	n/a	wordpools/wordpool_EN.txt	BRUSH	8	4	[0, 0, 0]	n/a	FR1	1	R1063C
469.283	1.6	664142	WORD	n/a	wordpools/wordpool_EN.txt	GOAT	9	4	[0, 0, 0]	n/a	FR1	1	R1063C
471.9	1.6	665450	WORD	n/a	wordpools/wordpool_EN.txt	DOG	10	4	[0, 0, 0]	n/a	FR1	1	R1063C
474.334	1.6	666667	WORD	n/a	wordpools/wordpool_EN.txt	CAT	11	4	[0, 0, 0]	n/a	FR1	1	R1063C
476.784	1.6	667892	WORD	n/a	wordpools/wordpool_EN.txt	SOUP	12	4	[0, 0, 0]	n/a	FR1	1	R1063C
478.401	0.001	668700	DISTRACT_START	n/a	n/a	n/a	-999	4	[0, 0, 0]	n/a	FR1	1	R1063C
478.402	0.016	668701	START	n/a	n/a	n/a	-999	4	[-999, -999, -999]	n/a	FR1	1	R1063C
478.418	5.551	668709	PROB	5.517	n/a	n/a	-999	4	[9, 8, 8]	25.0	FR1	1	R1063C
483.969	4.884	671484	PROB	4.854	n/a	n/a	-999	4	[7, 5, 6]	18.0	FR1	1	R1063C
488.853	3.534	673926	PROB	3.514	n/a	n/a	-999	4	[2, 8, 4]	14.0	FR1	1	R1063C
492.387	4.985	675693	PROB	4.956	n/a	n/a	-999	4	[7, 6, 5]	18.0	FR1	1	R1063C
497.372	2.027	678185	PROB	2.027	n/a	n/a	-999	4	[1, 1, 6]	8.0	FR1	1	R1063C
499.399	0.006	679198	STOP	n/a	n/a	n/a	-999	4	[-999, -999, -999]	n/a	FR1	1	R1063C
499.405	1.051	679201	DISTRACT_END	n/a	n/a	n/a	-999	4	[0, 0, 0]	n/a	FR1	1	R1063C
500.456	1.655	679727	REC_START	n/a	n/a	n/a	-999	4	[0, 0, 0]	n/a	FR1	1	R1063C
502.111	0.583	680554	REC_WORD	1.655	n/a	DOG	10	4	[0, 0, 0]	n/a	FR1	1	R1063C
502.694	0.631	680846	REC_WORD	2.238	n/a	CAT	11	4	[0, 0, 0]	n/a	FR1	1	R1063C
503.325	0.683	681161	REC_WORD	2.869	n/a	CHIN	1	4	[0, 0, 0]	n/a	FR1	1	R1063C
504.008	2.604	681503	REC_WORD	3.552	n/a	FORK	2	4	[0, 0, 0]	n/a	FR1	1	R1063C
506.612	9.323	682805	REC_WORD_VV	6.156	n/a	<>	-999	4	[0, 0, 0]	n/a	FR1	1	R1063C
515.935	5.264	687466	REC_WORD	15.479	n/a	RAIN	-999	4	[0, 0, 0]	n/a	FR1	1	R1063C
521.199	9.267	690097	REC_WORD_VV	20.743	n/a	<>	-999	4	[0, 0, 0]	n/a	FR1	1	R1063C
530.466	2.912	694731	REC_END	n/a	n/a	n/a	-999	4	[0, 0, 0]	n/a	FR1	1	R1063C
533.378	0.0	696186	TRIAL	n/a	n/a	n/a	-999	5	[0, 0, 0]	n/a	FR1	1	R1063C
533.378	10.0	696186	COUNTDOWN_START	n/a	n/a	n/a	-999	5	[0, 0, 0]	n/a	FR1	1	R1063C
543.806	0.008	701400	COUNTDOWN_END	n/a	n/a	n/a	-999	5	[0, 0, 0]	n/a	FR1	1	R1063C
543.814	1.6	701404	ORIENT	n/a	n/a	n/a	-999	5	[0, 0, 0]	n/a	FR1	1	R1063C
546.347	1.6	702670	WORD	n/a	wordpools/wordpool_EN.txt	HOOK	1	5	[0, 0, 0]	n/a	FR1	1	R1063C
548.748	1.6	703871	WORD	n/a	wordpools/wordpool_EN.txt	CORD	2	5	[0, 0, 0]	n/a	FR1	1	R1063C
551.215	1.6	705104	WORD	n/a	wordpools/wordpool_EN.txt	LAMP	3	5	[0, 0, 0]	n/a	FR1	1	R1063C
553.615	1.6	706304	WORD	n/a	wordpools/wordpool_EN.txt	SLUSH	4	5	[0, 0, 0]	n/a	FR1	1	R1063C
555.999	1.6	707496	WORD	n/a	wordpools/wordpool_EN.txt	SOCK	5	5	[0, 0, 0]	n/a	FR1	1	R1063C
558.6	1.6	708796	WORD	n/a	wordpools/wordpool_EN.txt	CAGE	6	5	[0, 0, 0]	n/a	FR1	1	R1063C
561.1	1.6	710046	WORD	n/a	wordpools/wordpool_EN.txt	HAND	7	5	[0, 0, 0]	n/a	FR1	1	R1063C
563.534	1.6	711263	WORD	n/a	wordpools/wordpool_EN.txt	VAN	8	5	[0, 0, 0]	n/a	FR1	1	R1063C
566.018	1.6	712505	WORD	n/a	wordpools/wordpool_EN.txt	MAT	9	5	[0, 0, 0]	n/a	FR1	1	R1063C
568.618	1.6	713805	WORD	n/a	wordpools/wordpool_EN.txt	CASH	10	5	[0, 0, 0]	n/a	FR1	1	R1063C
571.035	1.6	715013	WORD	n/a	wordpools/wordpool_EN.txt	BOARD	11	5	[0, 0, 0]	n/a	FR1	1	R1063C
573.586	1.6	716289	WORD	n/a	wordpools/wordpool_EN.txt	NAIL	12	5	[0, 0, 0]	n/a	FR1	1	R1063C
575.203	0.001	717097	DISTRACT_START	n/a	n/a	n/a	-999	5	[0, 0, 0]	n/a	FR1	1	R1063C
575.204	0.015	717098	START	n/a	n/a	n/a	-999	5	[-999, -999, -999]	n/a	FR1	1	R1063C
575.219	3.684	717105	PROB	3.66	n/a	n/a	-999	5	[1, 5, 4]	10.0	FR1	1	R1063C
578.903	3.268	718947	PROB	3.232	n/a	n/a	-999	5	[3, 2, 1]	6.0	FR1	1	R1063C
582.171	3.417	720581	PROB	3.388	n/a	n/a	-999	5	[7, 3, 1]	11.0	FR1	1	R1063C
585.588	2.551	722289	PROB	2.515	n/a	n/a	-999	5	[9, 5, 9]	23.0	FR1	1	R1063C
588.139	5.034	723565	PROB	5.004	n/a	n/a	-999	5	[6, 9, 9]	24.0	FR1	1	R1063C
593.173	3.034	726081	PROB	3.034	n/a	n/a	-999	5	[3, 8, 6]	17.0	FR1	1	R1063C
596.207	0.016	727598	STOP	n/a	n/a	n/a	-999	5	[-999, -999, -999]	n/a	FR1	1	R1063C
596.223	1.168	727606	DISTRACT_END	n/a	n/a	n/a	-999	5	[0, 0, 0]	n/a	FR1	1	R1063C
597.391	1.207	728190	REC_START	n/a	n/a	n/a	-999	5	[0, 0, 0]	n/a	FR1	1	R1063C
598.598	1.142	728794	REC_WORD	1.207	n/a	VAN	8	5	[0, 0, 0]	n/a	FR1	1	R1063C
599.74	3.825	729365	REC_WORD	2.349	n/a	SOCK	5	5	[0, 0, 0]	n/a	FR1	1	R1063C
603.565	1.263	731277	REC_WORD_VV	6.174	n/a	<>	-999	5	[0, 0, 0]	n/a	FR1	1	R1063C
604.828	2.501	731908	REC_WORD_VV	7.437	n/a	<>	-999	5	[0, 0, 0]	n/a	FR1	1	R1063C
607.329	1.268	733159	REC_WORD_VV	9.938	n/a	<>	-999	5	[0, 0, 0]	n/a	FR1	1	R1063C
608.597	2.539	733793	REC_WORD	11.206	n/a	NAIL	12	5	[0, 0, 0]	n/a	FR1	1	R1063C
611.136	4.369	735062	REC_WORD_VV	13.745	n/a	<>	-999	5	[0, 0, 0]	n/a	FR1	1	R1063C
615.505	11.09	737246	REC_WORD_VV	18.114	n/a	<>	-999	5	[0, 0, 0]	n/a	FR1	1	R1063C
626.595	0.805	742791	REC_WORD_VV	29.204	n/a	<>	-999	5	[0, 0, 0]	n/a	FR1	1	R1063C
627.4	1.93	743193	REC_END	n/a	n/a	n/a	-999	5	[0, 0, 0]	n/a	FR1	1	R1063C
629.33	0.0	744158	TRIAL	n/a	n/a	n/a	-999	6	[0, 0, 0]	n/a	FR1	1	R1063C
629.33	10.0	744158	COUNTDOWN_START	n/a	n/a	n/a	-999	6	[0, 0, 0]	n/a	FR1	1	R1063C
639.758	0.007	749372	COUNTDOWN_END	n/a	n/a	n/a	-999	6	[0, 0, 0]	n/a	FR1	1	R1063C
639.765	1.6	749375	ORIENT	n/a	n/a	n/a	-999	6	[0, 0, 0]	n/a	FR1	1	R1063C
642.182	1.6	750584	WORD	n/a	wordpools/wordpool_EN.txt	FOX	1	6	[0, 0, 0]	n/a	FR1	1	R1063C
644.766	1.6	751876	WORD	n/a	wordpools/wordpool_EN.txt	FARM	2	6	[0, 0, 0]	n/a	FR1	1	R1063C
647.183	1.6	753084	WORD	n/a	wordpools/wordpool_EN.txt	CROW	3	6	[0, 0, 0]	n/a	FR1	1	R1063C
649.683	1.6	754334	WORD	n/a	wordpools/wordpool_EN.txt	MUD	4	6	[0, 0, 0]	n/a	FR1	1	R1063C
652.167	1.6	755576	WORD	n/a	wordpools/wordpool_EN.txt	BAG	5	6	[0, 0, 0]	n/a	FR1	1	R1063C
654.568	1.6	756776	WORD	n/a	wordpools/wordpool_EN.txt	BRANCH	6	6	[0, 0, 0]	n/a	FR1	1	R1063C
657.018	1.6	758001	WORD	n/a	wordpools/wordpool_EN.txt	ELF	7	6	[0, 0, 0]	n/a	FR1	1	R1063C
659.569	1.6	759276	WORD	n/a	wordpools/wordpool_EN.txt	TOE	8	6	[0, 0, 0]	n/a	FR1	1	R1063C
661.952	1.6	760468	WORD	n/a	wordpools/wordpool_EN.txt	WEB	9	6	[0, 0, 0]	n/a	FR1	1	R1063C
664.419	1.6	761701	WORD	n/a	wordpools/wordpool_EN.txt	COW	10	6	[0, 0, 0]	n/a	FR1	1	R1063C
666.887	1.6	762935	WORD	n/a	wordpools/wordpool_EN.txt	CANE	11	6	[0, 0, 0]	n/a	FR1	1	R1063C
669.437	1.6	764210	WORD	n/a	wordpools/wordpool_EN.txt	VINE	12	6	[0, 0, 0]	n/a	FR1	1	R1063C
671.054	0.001	765018	DISTRACT_START	n/a	n/a	n/a	-999	6	[0, 0, 0]	n/a	FR1	1	R1063C
671.055	0.016	765019	START	n/a	n/a	n/a	-999	6	[-999, -999, -999]	n/a	FR1	1	R1063C
671.071	3.617	765027	PROB	3.584	n/a	n/a	-999	6	[3, 6, 1]	10.0	FR1	1	R1063C
674.688	3.151	766835	PROB	3.119	n/a	n/a	-999	6	[9, 3, 6]	18.0	FR1	1	R1063C
677.839	3.884	768411	PROB	3.848	n/a	n/a	-999	6	[7, 3, 9]	19.0	FR1	1	R1063C
681.723	2.85	770353	PROB	2.82	n/a	n/a	-999	6	[6, 6, 8]	20.0	FR1	1	R1063C
684.573	3.201	771777	PROB	3.17	n/a	n/a	-999	6	[4, 1, 8]	13.0	FR1	1	R1063C
687.774	3.084	773378	PROB	3.049	n/a	n/a	-999	6	[2, 2, 7]	11.0	FR1	1	R1063C
690.858	1.205	774920	PROB	1.205	n/a	n/a	-999	6	[7, 7, 4]	11.0	FR1	1	R1063C
692.063	0.012	775522	STOP	n/a	n/a	n/a	-999	6	[-999, -999, -999]	n/a	FR1	1	R1063C
692.075	1.184	775528	DISTRACT_END	n/a	n/a	n/a	-999	6	[0, 0, 0]	n/a	FR1	1	R1063C
693.259	0.694	776120	REC_START	n/a	n/a	n/a	-999	6	[0, 0, 0]	n/a	FR1	1	R1063C
693.953	1.923	776467	REC_WORD_VV	0.694	n/a	<>	-999	6	[0, 0, 0]	n/a	FR1	1	R1063C
695.876	1.624	777428	REC_WORD_VV	2.617	n/a	<>	-999	6	[0, 0, 0]	n/a	FR1	1	R1063C
697.5	1.545	778240	REC_WORD	4.241	n/a	COW	10	6	[0, 0, 0]	n/a	FR1	1	R1063C
699.045	2.316	779013	REC_WORD	5.786	n/a	FARM	2	6	[0, 0, 0]	n/a	FR1	1	R1063C
701.361	1.76	780171	REC_WORD_VV	8.102	n/a	<>	-999	6	[0, 0, 0]	n/a	FR1	1	R1063C
703.121	4.676	781051	REC_WORD	9.862	n/a	CROW	3	6	[0, 0, 0]	n/a	FR1	1	R1063C
707.797	5.308	783388	REC_WORD_VV	14.538	n/a	<>	-999	6	[0, 0, 0]	n/a	FR1	1	R1063C
713.105	1.0	786042	REC_WORD_VV	19.846	n/a	<>	-999	6	[0, 0, 0]	n/a	FR1	1	R1063C
714.105	1.0	786542	REC_WORD_VV	20.846	n/a	<>	-999	6	[0, 0, 0]	n/a	FR1	1	R1063C
715.105	5.957	787042	REC_WORD_VV	21.846	n/a	<>	-999	6	[0, 0, 0]	n/a	FR1	1	R1063C
721.062	1.429	790020	REC_WORD	27.803	n/a	FOX	1	6	[0, 0, 0]	n/a	FR1	1	R1063C
722.491	0.778	790735	REC_WORD_VV	29.232	n/a	<>	-999	6	[0, 0, 0]	n/a	FR1	1	R1063C
723.269	2.745	791124	REC_END	n/a	n/a	n/a	-999	6	[0, 0, 0]	n/a	FR1	1	R1063C
726.014	10.0	792496	COUNTDOWN_START	n/a	n/a	n/a	-999	7	[0, 0, 0]	n/a	FR1	1	R1063C
726.015	10.427	792497	TRIAL	n/a	n/a	n/a	-999	7	[0, 0, 0]	n/a	FR1	1	R1063C
736.442	0.008	797710	COUNTDOWN_END	n/a	n/a	n/a	-999	7	[0, 0, 0]	n/a	FR1	1	R1063C
736.45	1.6	797714	ORIENT	n/a	n/a	n/a	-999	7	[0, 0, 0]	n/a	FR1	1	R1063C
738.867	1.6	798922	WORD	n/a	wordpools/wordpool_EN.txt	FLAME	1	7	[0, 0, 0]	n/a	FR1	1	R1063C
741.417	1.6	800197	WORD	n/a	wordpools/wordpool_EN.txt	JET	2	7	[0, 0, 0]	n/a	FR1	1	R1063C
743.868	1.6	801422	WORD	n/a	wordpools/wordpool_EN.txt	FUR	3	7	[0, 0, 0]	n/a	FR1	1	R1063C
746.318	1.6	802647	WORD	n/a	wordpools/wordpool_EN.txt	SNOW	4	7	[0, 0, 0]	n/a	FR1	1	R1063C
748.936	1.6	803956	WORD	n/a	wordpools/wordpool_EN.txt	PLANE	5	7	[0, 0, 0]	n/a	FR1	1	R1063C
751.569	1.6	805272	WORD	n/a	wordpools/wordpool_EN.txt	CAPE	6	7	[0, 0, 0]	n/a	FR1	1	R1063C
754.186	1.6	806581	WORD	n/a	wordpools/wordpool_EN.txt	DUCK	7	7	[0, 0, 0]	n/a	FR1	1	R1063C
756.72	1.6	807848	WORD	n/a	wordpools/wordpool_EN.txt	SHARK	8	7	[0, 0, 0]	n/a	FR1	1	R1063C
759.304	1.6	809140	WORD	n/a	wordpools/wordpool_EN.txt	STORM	9	7	[0, 0, 0]	n/a	FR1	1	R1063C
761.721	1.6	810348	WORD	n/a	wordpools/wordpool_EN.txt	SPRING	10	7	[0, 0, 0]	n/a	FR1	1	R1063C
764.205	1.6	811590	WORD	n/a	wordpools/wordpool_EN.txt	HAWK	11	7	[0, 0, 0]	n/a	FR1	1	R1063C
766.622	1.6	812798	WORD	n/a	wordpools/wordpool_EN.txt	WOLF	12	7	[0, 0, 0]	n/a	FR1	1	R1063C
768.239	0.001	813607	DISTRACT_START	n/a	n/a	n/a	-999	7	[0, 0, 0]	n/a	FR1	1	R1063C
768.24	0.016	813607	START	n/a	n/a	n/a	-999	7	[-999, -999, -999]	n/a	FR1	1	R1063C
768.256	4.467	813615	PROB	4.439	n/a	n/a	-999	7	[7, 9, 6]	22.0	FR1	1	R1063C
772.723	2.417	815849	PROB	2.396	n/a	n/a	-999	7	[2, 8, 1]	11.0	FR1	1	R1063C
775.14	2.751	817057	PROB	2.723	n/a	n/a	-999	7	[3, 3, 1]	7.0	FR1	1	R1063C
777.891	3.334	818432	PROB	3.3	n/a	n/a	-999	7	[6, 9, 2]	17.0	FR1	1	R1063C
781.225	2.784	820099	PROB	2.758	n/a	n/a	-999	7	[2, 5, 8]	15.0	FR1	1	R1063C
784.009	2.95	821491	PROB	2.926	n/a	n/a	-999	7	[2, 5, 9]	16.0	FR1	1	R1063C
786.959	1.824	822966	PROB	1.824	n/a	n/a	-999	7	[4, 5, 5]	14.0	FR1	1	R1063C
788.783	0.01	823878	STOP	n/a	n/a	n/a	-999	7	[-999, -999, -999]	n/a	FR1	1	R1063C
788.793	1.201	823883	DISTRACT_END	n/a	n/a	n/a	-999	7	[0, 0, 0]	n/a	FR1	1	R1063C
789.994	1.658	824483	REC_START	n/a	n/a	n/a	-999	7	[0, 0, 0]	n/a	FR1	1	R1063C
791.652	2.121	825312	REC_WORD_VV	1.658	n/a	<>	-999	7	[0, 0, 0]	n/a	FR1	1	R1063C
793.773	0.923	826373	REC_WORD	3.779	n/a	STORM	9	7	[0, 0, 0]	n/a	FR1	1	R1063C
794.696	2.413	826834	REC_WORD_VV	4.702	n/a	<>	-999	7	[0, 0, 0]	n/a	FR1	1	R1063C
797.109	1.0	828040	REC_WORD_VV	7.115	n/a	<>	-999	7	[0, 0, 0]	n/a	FR1	1	R1063C
798.109	3.454	828540	REC_WORD_VV	8.115	n/a	<>	-999	7	[0, 0, 0]	n/a	FR1	1	R1063C
801.563	18.441	830267	REC_WORD_VV	11.569	n/a	<>	-999	7	[0, 0, 0]	n/a	FR1	1	R1063C
820.004	2.529	839487	REC_END	n/a	n/a	n/a	-999	7	[0, 0, 0]	n/a	FR1	1	R1063C
822.533	0.0	840751	TRIAL	n/a	n/a	n/a	-999	8	[0, 0, 0]	n/a	FR1	1	R1063C
822.533	10.0	840751	COUNTDOWN_START	n/a	n/a	n/a	-999	8	[0, 0, 0]	n/a	FR1	1	R1063C
832.961	0.007	845965	COUNTDOWN_END	n/a	n/a	n/a	-999	8	[0, 0, 0]	n/a	FR1	1	R1063C
832.968	1.6	845968	ORIENT	n/a	n/a	n/a	-999	8	[0, 0, 0]	n/a	FR1	1	R1063C
835.585	1.6	847277	WORD	n/a	wordpools/wordpool_EN.txt	SWAMP	1	8	[0, 0, 0]	n/a	FR1	1	R1063C
838.052	1.6	848510	WORD	n/a	wordpools/wordpool_EN.txt	HEN	2	8	[0, 0, 0]	n/a	FR1	1	R1063C
840.502	1.6	849735	WORD	n/a	wordpools/wordpool_EN.txt	HOLE	3	8	[0, 0, 0]	n/a	FR1	1	R1063C
842.92	1.6	850944	WORD	n/a	wordpools/wordpool_EN.txt	OWL	4	8	[0, 0, 0]	n/a	FR1	1	R1063C
845.487	1.6	852227	WORD	n/a	wordpools/wordpool_EN.txt	BROOM	5	8	[0, 0, 0]	n/a	FR1	1	R1063C
848.004	1.6	853486	WORD	n/a	wordpools/wordpool_EN.txt	TAIL	6	8	[0, 0, 0]	n/a	FR1	1	R1063C
850.538	1.6	854753	WORD	n/a	wordpools/wordpool_EN.txt	EEL	7	8	[0, 0, 0]	n/a	FR1	1	R1063C
853.105	1.6	856036	WORD	n/a	wordpools/wordpool_EN.txt	YARD	8	8	[0, 0, 0]	n/a	FR1	1	R1063C
855.622	1.6	857294	WORD	n/a	wordpools/wordpool_EN.txt	BREAD	9	8	[0, 0, 0]	n/a	FR1	1	R1063C
858.073	1.6	858520	WORD	n/a	wordpools/wordpool_EN.txt	TOAST	10	8	[0, 0, 0]	n/a	FR1	1	R1063C
860.49	1.6	859728	WORD	n/a	wordpools/wordpool_EN.txt	PIE	11	8	[0, 0, 0]	n/a	FR1	1	R1063C
862.99	1.6	860978	WORD	n/a	wordpools/wordpool_EN.txt	PEN	12	8	[0, 0, 0]	n/a	FR1	1	R1063C
864.607	0.001	861787	DISTRACT_START	n/a	n/a	n/a	-999	8	[0, 0, 0]	n/a	FR1	1	R1063C
864.608	0.016	861787	START	n/a	n/a	n/a	-999	8	[-999, -999, -999]	n/a	FR1	1	R1063C
864.624	4.184	861795	PROB	4.159	n/a	n/a	-999	8	[7, 1, 2]	10.0	FR1	1	R1063C
868.808	2.05	863887	PROB	2.023	n/a	n/a	-999	8	[2, 1, 1]	4.0	FR1	1	R1063C
870.858	1.501	864912	PROB	1.477	n/a	n/a	-999	8	[5, 3, 5]	13.0	FR1	1	R1063C
872.359	2.884	865662	PROB	2.856	n/a	n/a	-999	8	[2, 8, 3]	13.0	FR1	1	R1063C
875.243	3.517	867104	PROB	3.492	n/a	n/a	-999	8	[3, 5, 6]	14.0	FR1	1	R1063C
878.76	3.467	868862	PROB	3.431	n/a	n/a	-999	8	[8, 9, 5]	22.0	FR1	1	R1063C
882.227	4.044	870596	PROB	4.044	n/a	n/a	-999	8	[8, 8, 7]	21.0	FR1	1	R1063C
886.271	0.007	872618	STOP	n/a	n/a	n/a	-999	8	[-999, -999, -999]	n/a	FR1	1	R1063C
886.278	1.117	872621	DISTRACT_END	n/a	n/a	n/a	-999	8	[0, 0, 0]	n/a	FR1	1	R1063C
887.395	7.525	873180	REC_START	n/a	n/a	n/a	-999	8	[0, 0, 0]	n/a	FR1	1	R1063C
894.92	4.907	876942	REC_WORD_VV	7.525	n/a	<>	-999	8	[0, 0, 0]	n/a	FR1	1	R1063C
899.827	3.839	879395	REC_WORD	12.432	n/a	CROW	-999	8	[0, 0, 0]	n/a	FR1	1	R1063C
903.666	9.434	881314	REC_WORD_VV	16.271	n/a	<>	-999	8	[0, 0, 0]	n/a	FR1	1	R1063C
913.1	4.309	886031	REC_WORD_VV	25.705	n/a	<>	-999	8	[0, 0, 0]	n/a	FR1	1	R1063C
917.409	1.358	888185	REC_END	n/a	n/a	n/a	-999	8	[0, 0, 0]	n/a	FR1	1	R1063C
918.767	0.0	888864	TRIAL	n/a	n/a	n/a	-999	9	[0, 0, 0]	n/a	FR1	1	R1063C
918.767	10.0	888864	COUNTDOWN_START	n/a	n/a	n/a	-999	9	[0, 0, 0]	n/a	FR1	1	R1063C
929.195	0.008	894078	COUNTDOWN_END	n/a	n/a	n/a	-999	9	[0, 0, 0]	n/a	FR1	1	R1063C
929.203	1.6	894082	ORIENT	n/a	n/a	n/a	-999	9	[0, 0, 0]	n/a	FR1	1	R1063C
931.686	1.6	895323	WORD	n/a	wordpools/wordpool_EN.txt	STEAM	1	9	[0, 0, 0]	n/a	FR1	1	R1063C
934.304	1.6	896632	WORD	n/a	wordpools/wordpool_EN.txt	POOL	2	9	[0, 0, 0]	n/a	FR1	1	R1063C
936.787	1.6	897873	WORD	n/a	wordpools/wordpool_EN.txt	BATH	3	9	[0, 0, 0]	n/a	FR1	1	R1063C
939.288	1.6	899124	WORD	n/a	wordpools/wordpool_EN.txt	DOOR	4	9	[0, 0, 0]	n/a	FR1	1	R1063C
941.855	1.6	900407	WORD	n/a	wordpools/wordpool_EN.txt	BUSH	5	9	[0, 0, 0]	n/a	FR1	1	R1063C
944.289	1.6	901624	WORD	n/a	wordpools/wordpool_EN.txt	ROOF	6	9	[0, 0, 0]	n/a	FR1	1	R1063C
946.723	1.6	902841	WORD	n/a	wordpools/wordpool_EN.txt	FENCE	7	9	[0, 0, 0]	n/a	FR1	1	R1063C
949.14	1.6	904049	WORD	n/a	wordpools/wordpool_EN.txt	ROPE	8	9	[0, 0, 0]	n/a	FR1	1	R1063C
951.69	1.6	905324	WORD	n/a	wordpools/wordpool_EN.txt	SALT	9	9	[0, 0, 0]	n/a	FR1	1	R1063C
954.107	1.6	906533	WORD	n/a	wordpools/wordpool_EN.txt	SPOON	10	9	[0, 0, 0]	n/a	FR1	1	R1063C
956.508	1.6	907733	WORD	n/a	wordpools/wordpool_EN.txt	PIPE	11	9	[0, 0, 0]	n/a	FR1	1	R1063C
958.925	1.6	908941	WORD	n/a	wordpools/wordpool_EN.txt	FROG	12	9	[0, 0, 0]	n/a	FR1	1	R1063C
960.542	0.001	909750	DISTRACT_START	n/a	n/a	n/a	-999	9	[0, 0, 0]	n/a	FR1	1	R1063C
960.543	0.015	909750	START	n/a	n/a	n/a	-999	9	[-999, -999, -999]	n/a	FR1	1	R1063C
960.558	7.369	909758	PROB	7.337	n/a	n/a	-999	9	[5, 9, 8]	22.0	FR1	1	R1063C
967.927	2.583	913442	PROB	2.552	n/a	n/a	-999	9	[3, 6, 5]	14.0	FR1	1	R1063C
970.51	3.401	914733	PROB	3.369	n/a	n/a	-999	9	[7, 4, 9]	20.0	FR1	1	R1063C
973.911	3.301	916434	PROB	3.28	n/a	n/a	-999	9	[8, 8, 1]	17.0	FR1	1	R1063C
977.212	3.803	918084	PROB	3.803	n/a	n/a	-999	9	[4, 6, 4]	14.0	FR1	1	R1063C
981.015	0.014	919986	STOP	n/a	n/a	n/a	-999	9	[-999, -999, -999]	n/a	FR1	1	R1063C
981.029	1.101	919993	DISTRACT_END	n/a	n/a	n/a	-999	9	[0, 0, 0]	n/a	FR1	1	R1063C
982.13	1.308	920543	REC_START	n/a	n/a	n/a	-999	9	[0, 0, 0]	n/a	FR1	1	R1063C
983.438	0.67	921197	REC_WORD_VV	1.308	n/a	<>	-999	9	[0, 0, 0]	n/a	FR1	1	R1063C
984.108	1.27	921532	REC_WORD	1.978	n/a	POLE	-999	9	[0, 0, 0]	n/a	FR1	1	R1063C
985.378	4.74	922167	REC_WORD	3.248	n/a	STEAM	1	9	[0, 0, 0]	n/a	FR1	1	R1063C
990.118	3.504	924537	REC_WORD	7.988	n/a	PIPE	11	9	[0, 0, 0]	n/a	FR1	1	R1063C
993.622	5.405	926288	REC_WORD_VV	11.492	n/a	<>	-999	9	[0, 0, 0]	n/a	FR1	1	R1063C
999.027	0.992	928991	REC_WORD_VV	16.897	n/a	<>	-999	9	[0, 0, 0]	n/a	FR1	1	R1063C
1000.019	10.045	929487	REC_WORD_VV	17.889	n/a	<>	-999	9	[0, 0, 0]	n/a	FR1	1	R1063C
1010.064	1.0	934509	REC_WORD_VV	27.934	n/a	<>	-999	9	[0, 0, 0]	n/a	FR1	1	R1063C
1011.064	1.076	935009	REC_WORD_VV	28.934	n/a	<>	-999	9	[0, 0, 0]	n/a	FR1	1	R1063C
1012.14	1.095	935547	REC_END	n/a	n/a	n/a	-999	9	[0, 0, 0]	n/a	FR1	1	R1063C
1013.235	0.0	936094	TRIAL	n/a	n/a	n/a	-999	10	[0, 0, 0]	n/a	FR1	1	R1063C
1013.235	10.0	936094	COUNTDOWN_START	n/a	n/a	n/a	-999	10	[0, 0, 0]	n/a	FR1	1	R1063C
1023.663	0.006	941308	COUNTDOWN_END	n/a	n/a	n/a	-999	10	[0, 0, 0]	n/a	FR1	1	R1063C
1023.669	1.6	941311	ORIENT	n/a	n/a	n/a	-999	10	[0, 0, 0]	n/a	FR1	1	R1063C
1026.171	1.6	942562	WORD	n/a	wordpools/wordpool_EN.txt	BAT	1	10	[0, 0, 0]	n/a	FR1	1	R1063C
1028.705	1.6	943828	WORD	n/a	wordpools/wordpool_EN.txt	FAN	2	10	[0, 0, 0]	n/a	FR1	1	R1063C
1031.222	1.6	945087	WORD	n/a	wordpools/wordpool_EN.txt	STRING	3	10	[0, 0, 0]	n/a	FR1	1	R1063C
1033.739	1.6	946345	WORD	n/a	wordpools/wordpool_EN.txt	SHOE	4	10	[0, 0, 0]	n/a	FR1	1	R1063C
1036.173	1.6	947562	WORD	n/a	wordpools/wordpool_EN.txt	FOAM	5	10	[0, 0, 0]	n/a	FR1	1	R1063C
1038.573	1.6	948762	WORD	n/a	wordpools/wordpool_EN.txt	MOUTH	6	10	[0, 0, 0]	n/a	FR1	1	R1063C
1040.974	1.6	949962	WORD	n/a	wordpools/wordpool_EN.txt	GEESE	7	10	[0, 0, 0]	n/a	FR1	1	R1063C
1043.508	1.6	951229	WORD	n/a	wordpools/wordpool_EN.txt	BEAK	8	10	[0, 0, 0]	n/a	FR1	1	R1063C
1045.908	1.6	952429	WORD	n/a	wordpools/wordpool_EN.txt	EAR	9	10	[0, 0, 0]	n/a	FR1	1	R1063C
1048.308	1.6	953629	WORD	n/a	wordpools/wordpool_EN.txt	WING	10	10	[0, 0, 0]	n/a	FR1	1	R1063C
1050.709	1.6	954829	WORD	n/a	wordpools/wordpool_EN.txt	STRAW	11	10	[0, 0, 0]	n/a	FR1	1	R1063C
1053.159	1.6	956054	WORD	n/a	wordpools/wordpool_EN.txt	WAVE	12	10	[0, 0, 0]	n/a	FR1	1	R1063C
1054.776	0.001	956863	DISTRACT_START	n/a	n/a	n/a	-999	10	[0, 0, 0]	n/a	FR1	1	R1063C
1054.777	0.016	956863	START	n/a	n/a	n/a	-999	10	[-999, -999, -999]	n/a	FR1	1	R1063C
1054.793	2.1	956871	PROB	2.078	n/a	n/a	-999	10	[3, 2, 6]	11.0	FR1	1	R1063C
1056.893	2.501	957921	PROB	2.474	n/a	n/a	-999	10	[2, 2, 7]	11.0	FR1	1	R1063C
1059.394	5.217	959172	PROB	5.181	n/a	n/a	-999	10	[5, 4, 7]	16.0	FR1	1	R1063C
1064.611	3.501	961780	PROB	3.468	n/a	n/a	-999	10	[2, 9, 6]	17.0	FR1	1	R1063C
1068.112	4.284	963530	PROB	4.255	n/a	n/a	-999	10	[4, 5, 8]	17.0	FR1	1	R1063C
1072.396	3.651	965672	PROB	3.651	n/a	n/a	-999	10	[8, 9, 1]	18.0	FR1	1	R1063C
1076.047	0.017	967497	STOP	n/a	n/a	n/a	-999	10	[-999, -999, -999]	n/a	FR1	1	R1063C
1076.064	1.084	967506	DISTRACT_END	n/a	n/a	n/a	-999	10	[0, 0, 0]	n/a	FR1	1	R1063C
1077.148	1.029	968048	REC_START	n/a	n/a	n/a	-999	10	[0, 0, 0]	n/a	FR1	1	R1063C
1078.177	0.912	968562	REC_WORD	1.029	n/a	FAN	2	10	[0, 0, 0]	n/a	FR1	1	R1063C
1079.089	0.922	969018	REC_WORD	1.941	n/a	BAT	1	10	[0, 0, 0]	n/a	FR1	1	R1063C
1080.011	3.596	969479	REC_WORD_VV	2.863	n/a	<>	-999	10	[0, 0, 0]	n/a	FR1	1	R1063C
1083.607	1.933	971277	REC_WORD_VV	6.459	n/a	<>	-999	10	[0, 0, 0]	n/a	FR1	1	R1063C
1085.54	18.26	972243	REC_WORD_VV	8.392	n/a	<>	-999	10	[0, 0, 0]	n/a	FR1	1	R1063C
1103.8	3.358	981373	REC_WORD_VV	26.652	n/a	<>	-999	10	[0, 0, 0]	n/a	FR1	1	R1063C
1107.158	1.912	983052	REC_END	n/a	n/a	n/a	-999	10	[0, 0, 0]	n/a	FR1	1	R1063C
1109.07	0.0	984007	TRIAL	n/a	n/a	n/a	-999	11	[0, 0, 0]	n/a	FR1	1	R1063C
1109.07	10.0	984007	COUNTDOWN_START	n/a	n/a	n/a	-999	11	[0, 0, 0]	n/a	FR1	1	R1063C
1119.498	0.007	989221	COUNTDOWN_END	n/a	n/a	n/a	-999	11	[0, 0, 0]	n/a	FR1	1	R1063C
1119.505	1.6	989224	ORIENT	n/a	n/a	n/a	-999	11	[0, 0, 0]	n/a	FR1	1	R1063C
1122.105	1.6	990524	WORD	n/a	wordpools/wordpool_EN.txt	MOUSE	1	11	[0, 0, 0]	n/a	FR1	1	R1063C
1124.689	1.6	991816	WORD	n/a	wordpools/wordpool_EN.txt	SHELL	2	11	[0, 0, 0]	n/a	FR1	1	R1063C
1127.073	1.6	993008	WORD	n/a	wordpools/wordpool_EN.txt	HORN	3	11	[0, 0, 0]	n/a	FR1	1	R1063C
1129.49	1.6	994217	WORD	n/a	wordpools/wordpool_EN.txt	WALL	4	11	[0, 0, 0]	n/a	FR1	1	R1063C
1132.09	1.6	995516	WORD	n/a	wordpools/wordpool_EN.txt	BEAN	5	11	[0, 0, 0]	n/a	FR1	1	R1063C
1134.708	1.6	996825	WORD	n/a	wordpools/wordpool_EN.txt	SUIT	6	11	[0, 0, 0]	n/a	FR1	1	R1063C
1137.292	1.6	998117	WORD	n/a	wordpools/wordpool_EN.txt	PEAR	7	11	[0, 0, 0]	n/a	FR1	1	R1063C
1139.726	1.6	999334	WORD	n/a	wordpools/wordpool_EN.txt	MOOSE	8	11	[0, 0, 0]	n/a	FR1	1	R1063C
1142.276	1.6	1000609	WORD	n/a	wordpools/wordpool_EN.txt	RAT	9	11	[0, 0, 0]	n/a	FR1	1	R1063C
1144.693	1.6	1001817	WORD	n/a	wordpools/wordpool_EN.txt	EGG	10	11	[0, 0, 0]	n/a	FR1	1	R1063C
1147.11	1.6	1003026	WORD	n/a	wordpools/wordpool_EN.txt	RUG	11	11	[0, 0, 0]	n/a	FR1	1	R1063C
1149.544	1.6	1004243	WORD	n/a	wordpools/wordpool_EN.txt	SHIELD	12	11	[0, 0, 0]	n/a	FR1	1	R1063C
1151.161	0.001	1005051	DISTRACT_START	n/a	n/a	n/a	-999	11	[0, 0, 0]	n/a	FR1	1	R1063C
1151.162	0.016	1005052	START	n/a	n/a	n/a	-999	11	[-999, -999, -999]	n/a	FR1	1	R1063C
1151.178	3.95	1005060	PROB	3.917	n/a	n/a	-999	11	[2, 3, 3]	8.0	FR1	1	R1063C
1155.128	2.734	1007034	PROB	2.703	n/a	n/a	-999	11	[1, 6, 9]	16.0	FR1	1	R1063C
1157.862	1.734	1008401	PROB	1.713	n/a	n/a	-999	11	[5, 5, 5]	15.0	FR1	1	R1063C
1159.596	3.05	1009268	PROB	3.027	n/a	n/a	-999	11	[1, 6, 5]	12.0	FR1	1	R1063C
1162.646	3.268	1010793	PROB	3.233	n/a	n/a	-999	11	[3, 8, 8]	19.0	FR1	1	R1063C
1165.914	3.25	1012427	PROB	3.221	n/a	n/a	-999	11	[9, 4, 5]	18.0	FR1	1	R1063C
1169.164	5.547	1014052	PROB	5.547	n/a	n/a	-999	11	[4, 8, 2]	14.0	FR1	1	R1063C
1174.711	0.004	1016825	STOP	n/a	n/a	n/a	-999	11	[-999, -999, -999]	n/a	FR1	1	R1063C
1174.715	1.035	1016827	DISTRACT_END	n/a	n/a	n/a	-999	11	[0, 0, 0]	n/a	FR1	1	R1063C
1175.75	2.385	1017345	REC_START	n/a	n/a	n/a	-999	11	[0, 0, 0]	n/a	FR1	1	R1063C
1178.135	0.611	1018537	REC_WORD	2.385	n/a	MOUSE	1	11	[0, 0, 0]	n/a	FR1	1	R1063C
1178.746	0.958	1018842	REC_WORD	2.996	n/a	RAT	9	11	[0, 0, 0]	n/a	FR1	1	R1063C
1179.704	5.794	1019321	REC_WORD_VV	3.954	n/a	<>	-999	11	[0, 0, 0]	n/a	FR1	1	R1063C
1185.498	2.2	1022218	REC_WORD_VV	9.748	n/a	<>	-999	11	[0, 0, 0]	n/a	FR1	1	R1063C
1187.698	2.54	1023318	REC_WORD	11.948	n/a	SHOE	-999	11	[0, 0, 0]	n/a	FR1	1	R1063C
1190.238	3.469	1024588	REC_WORD	14.488	n/a	HORN	3	11	[0, 0, 0]	n/a	FR1	1	R1063C
1193.707	9.826	1026322	REC_WORD_VV	17.957	n/a	<>	-999	11	[0, 0, 0]	n/a	FR1	1	R1063C
1203.533	2.227	1031235	REC_WORD	27.783	n/a	RAIN	-999	11	[0, 0, 0]	n/a	FR1	1	R1063C
1205.76	1.995	1032348	REC_END	n/a	n/a	n/a	-999	11	[0, 0, 0]	n/a	FR1	1	R1063C
1207.755	0.0	1033346	TRIAL	n/a	n/a	n/a	-999	12	[0, 0, 0]	n/a	FR1	1	R1063C
1207.755	10.0	1033346	COUNTDOWN_START	n/a	n/a	n/a	-999	12	[0, 0, 0]	n/a	FR1	1	R1063C
1218.183	0.007	1038559	COUNTDOWN_END	n/a	n/a	n/a	-999	12	[0, 0, 0]	n/a	FR1	1	R1063C
1218.19	1.6	1038563	ORIENT	n/a	n/a	n/a	-999	12	[0, 0, 0]	n/a	FR1	1	R1063C
1220.591	1.6	1039763	WORD	n/a	wordpools/wordpool_EN.txt	CAR	1	12	[0, 0, 0]	n/a	FR1	1	R1063C
1223.141	1.6	1041038	WORD	n/a	wordpools/wordpool_EN.txt	CLAY	2	12	[0, 0, 0]	n/a	FR1	1	R1063C
1225.542	1.6	1042238	WORD	n/a	wordpools/wordpool_EN.txt	PASTE	3	12	[0, 0, 0]	n/a	FR1	1	R1063C
1228.075	1.6	1043505	WORD	n/a	wordpools/wordpool_EN.txt	LEAF	4	12	[0, 0, 0]	n/a	FR1	1	R1063C
1230.676	1.6	1044805	WORD	n/a	wordpools/wordpool_EN.txt	ROOT	5	12	[0, 0, 0]	n/a	FR1	1	R1063C
1233.126	1.6	1046030	WORD	n/a	wordpools/wordpool_EN.txt	NEST	6	12	[0, 0, 0]	n/a	FR1	1	R1063C
1235.51	1.6	1047222	WORD	n/a	wordpools/wordpool_EN.txt	CRANE	7	12	[0, 0, 0]	n/a	FR1	1	R1063C
1238.094	1.6	1048514	WORD	n/a	wordpools/wordpool_EN.txt	SKUNK	8	12	[0, 0, 0]	n/a	FR1	1	R1063C
1240.561	1.6	1049747	WORD	n/a	wordpools/wordpool_EN.txt	SOAP	9	12	[0, 0, 0]	n/a	FR1	1	R1063C
1243.178	1.6	1051056	WORD	n/a	wordpools/wordpool_EN.txt	TRUCK	10	12	[0, 0, 0]	n/a	FR1	1	R1063C
1245.745	1.6	1052339	WORD	n/a	wordpools/wordpool_EN.txt	HOOF	11	12	[0, 0, 0]	n/a	FR1	1	R1063C
1248.213	1.6	1053573	WORD	n/a	wordpools/wordpool_EN.txt	TREE	12	12	[0, 0, 0]	n/a	FR1	1	R1063C
1249.829	0.001	1054381	DISTRACT_START	n/a	n/a	n/a	-999	12	[0, 0, 0]	n/a	FR1	1	R1063C
1249.83	0.016	1054381	START	n/a	n/a	n/a	-999	12	[-999, -999, -999]	n/a	FR1	1	R1063C
1249.846	5.534	1054389	PROB	5.505	n/a	n/a	-999	12	[6, 9, 3]	18.0	FR1	1	R1063C
1255.38	2.834	1057156	PROB	2.811	n/a	n/a	-999	12	[2, 4, 5]	11.0	FR1	1	R1063C
1258.214	6.635	1058573	PROB	6.601	n/a	n/a	-999	12	[5, 3, 6]	14.0	FR1	1	R1063C
1264.849	2.684	1061890	PROB	2.654	n/a	n/a	-999	12	[7, 1, 9]	17.0	FR1	1	R1063C
1267.533	2.594	1063232	PROB	2.594	n/a	n/a	-999	12	[8, 3, 1]	12.0	FR1	1	R1063C
1270.127	0.006	1064529	STOP	n/a	n/a	n/a	-999	12	[-999, -999, -999]	n/a	FR1	1	R1063C
1270.133	1.218	1064532	DISTRACT_END	n/a	n/a	n/a	-999	12	[0, 0, 0]	n/a	FR1	1	R1063C
1271.351	1.684	1065141	REC_START	n/a	n/a	n/a	-999	12	[0, 0, 0]	n/a	FR1	1	R1063C
1273.035	0.746	1065983	REC_WORD	1.684	n/a	CAR	1	12	[0, 0, 0]	n/a	FR1	1	R1063C
1273.781	3.023	1066356	REC_WORD	2.43	n/a	CLAY	2	12	[0, 0, 0]	n/a	FR1	1	R1063C
1276.804	13.451	1067867	REC_WORD	5.453	n/a	PASTE	3	12	[0, 0, 0]	n/a	FR1	1	R1063C
1290.255	1.0	1074592	REC_WORD_VV	18.904	n/a	<>	-999	12	[0, 0, 0]	n/a	FR1	1	R1063C
1291.255	10.106	1075092	REC_WORD_VV	19.904	n/a	<>	-999	12	[0, 0, 0]	n/a	FR1	1	R1063C
1301.361	17.748	1080145	REC_END	n/a	n/a	n/a	-999	12	[0, 0, 0]	n/a	FR1	1	R1063C
1319.109	0.0	1089018	TRIAL	n/a	n/a	n/a	-999	13	[0, 0, 0]	n/a	FR1	1	R1063C
1319.109	10.0	1089018	COUNTDOWN_START	n/a	n/a	n/a	-999	13	[0, 0, 0]	n/a	FR1	1	R1063C
1329.537	0.008	1094231	COUNTDOWN_END	n/a	n/a	n/a	-999	13	[0, 0, 0]	n/a	FR1	1	R1063C
1329.545	1.6	1094235	ORIENT	n/a	n/a	n/a	-999	13	[0, 0, 0]	n/a	FR1	1	R1063C
1332.078	1.6	1095502	WORD	n/a	wordpools/wordpool_EN.txt	STICK	1	13	[0, 0, 0]	n/a	FR1	1	R1063C
1334.679	1.6	1096802	WORD	n/a	wordpools/wordpool_EN.txt	LAKE	2	13	[0, 0, 0]	n/a	FR1	1	R1063C
1337.229	1.6	1098077	WORD	n/a	wordpools/wordpool_EN.txt	CUBE	3	13	[0, 0, 0]	n/a	FR1	1	R1063C
1339.796	1.6	1099360	WORD	n/a	wordpools/wordpool_EN.txt	CHALK	4	13	[0, 0, 0]	n/a	FR1	1	R1063C
1342.28	1.6	1100602	WORD	n/a	wordpools/wordpool_EN.txt	GUARD	5	13	[0, 0, 0]	n/a	FR1	1	R1063C
1344.881	1.6	1101903	WORD	n/a	wordpools/wordpool_EN.txt	JAR	6	13	[0, 0, 0]	n/a	FR1	1	R1063C
1347.298	1.6	1103111	WORD	n/a	wordpools/wordpool_EN.txt	PALM	7	13	[0, 0, 0]	n/a	FR1	1	R1063C
1349.765	1.6	1104344	WORD	n/a	wordpools/wordpool_EN.txt	TENT	8	13	[0, 0, 0]	n/a	FR1	1	R1063C
1352.315	1.6	1105619	WORD	n/a	wordpools/wordpool_EN.txt	SNAKE	9	13	[0, 0, 0]	n/a	FR1	1	R1063C
1354.749	1.6	1106836	WORD	n/a	wordpools/wordpool_EN.txt	CLIFF	10	13	[0, 0, 0]	n/a	FR1	1	R1063C
1357.333	1.6	1108128	WORD	n/a	wordpools/wordpool_EN.txt	CUP	11	13	[0, 0, 0]	n/a	FR1	1	R1063C
1359.867	1.6	1109395	WORD	n/a	wordpools/wordpool_EN.txt	SINK	12	13	[0, 0, 0]	n/a	FR1	1	R1063C
1361.484	0.001	1110203	DISTRACT_START	n/a	n/a	n/a	-999	13	[0, 0, 0]	n/a	FR1	1	R1063C
1361.485	0.016	1110204	START	n/a	n/a	n/a	-999	13	[-999, -999, -999]	n/a	FR1	1	R1063C
1361.501	6.101	1110212	PROB	6.074	n/a	n/a	-999	13	[8, 4, 2]	14.0	FR1	1	R1063C
1367.602	5.951	1113262	PROB	5.925	n/a	n/a	-999	13	[8, 9, 5]	24.0	FR1	1	R1063C
1373.553	6.468	1116237	PROB	6.446	n/a	n/a	-999	13	[9, 4, 8]	21.0	FR1	1	R1063C
1380.021	4.434	1119471	PROB	4.434	n/a	n/a	-999	13	[4, 3, 8]	15.0	FR1	1	R1063C
1384.455	0.017	1121688	STOP	n/a	n/a	n/a	-999	13	[-999, -999, -999]	n/a	FR1	1	R1063C
1384.472	1.033	1121696	DISTRACT_END	n/a	n/a	n/a	-999	13	[0, 0, 0]	n/a	FR1	1	R1063C
1385.505	20.312	1122213	REC_START	n/a	n/a	n/a	-999	13	[0, 0, 0]	n/a	FR1	1	R1063C
1405.817	1.0	1132368	REC_WORD	20.312	n/a	STICK	1	13	[0, 0, 0]	n/a	FR1	1	R1063C
1406.817	8.702	1132868	REC_WORD_VV	21.312	n/a	<>	-999	13	[0, 0, 0]	n/a	FR1	1	R1063C
1415.519	1.592	1137219	REC_END	n/a	n/a	n/a	-999	13	[0, 0, 0]	n/a	FR1	1	R1063C
1417.111	0.0	1138015	TRIAL	n/a	n/a	n/a	-999	14	[0, 0, 0]	n/a	FR1	1	R1063C
1417.111	10.0	1138015	COUNTDOWN_START	n/a	n/a	n/a	-999	14	[0, 0, 0]	n/a	FR1	1	R1063C
1427.539	0.007	1143228	COUNTDOWN_END	n/a	n/a	n/a	-999	14	[0, 0, 0]	n/a	FR1	1	R1063C
1427.546	1.6	1143232	ORIENT	n/a	n/a	n/a	-999	14	[0, 0, 0]	n/a	FR1	1	R1063C
1430.13	1.6	1144524	WORD	n/a	wordpools/wordpool_EN.txt	HORSE	1	14	[0, 0, 0]	n/a	FR1	1	R1063C
1432.597	1.6	1145757	WORD	n/a	wordpools/wordpool_EN.txt	BRICK	2	14	[0, 0, 0]	n/a	FR1	1	R1063C
1435.098	1.6	1147007	WORD	n/a	wordpools/wordpool_EN.txt	TEETH	3	14	[0, 0, 0]	n/a	FR1	1	R1063C
1437.615	1.6	1148266	WORD	n/a	wordpools/wordpool_EN.txt	SHRIMP	4	14	[0, 0, 0]	n/a	FR1	1	R1063C
1440.165	1.6	1149541	WORD	n/a	wordpools/wordpool_EN.txt	ZOO	5	14	[0, 0, 0]	n/a	FR1	1	R1063C
1442.649	1.6	1150782	WORD	n/a	wordpools/wordpool_EN.txt	SKI	6	14	[0, 0, 0]	n/a	FR1	1	R1063C
1445.133	1.6	1152024	WORD	n/a	wordpools/wordpool_EN.txt	GRAPE	7	14	[0, 0, 0]	n/a	FR1	1	R1063C
1447.7	1.6	1153308	WORD	n/a	wordpools/wordpool_EN.txt	BLUSH	8	14	[0, 0, 0]	n/a	FR1	1	R1063C
1450.184	1.6	1154550	WORD	n/a	wordpools/wordpool_EN.txt	MOON	9	14	[0, 0, 0]	n/a	FR1	1	R1063C
1452.618	1.6	1155767	WORD	n/a	wordpools/wordpool_EN.txt	SHIP	10	14	[0, 0, 0]	n/a	FR1	1	R1063C
1455.235	1.6	1157075	WORD	n/a	wordpools/wordpool_EN.txt	TRASH	11	14	[0, 0, 0]	n/a	FR1	1	R1063C
1457.702	1.6	1158308	WORD	n/a	wordpools/wordpool_EN.txt	BOMB	12	14	[0, 0, 0]	n/a	FR1	1	R1063C
1459.319	0.001	1159117	DISTRACT_START	n/a	n/a	n/a	-999	14	[0, 0, 0]	n/a	FR1	1	R1063C
1459.32	0.016	1159117	START	n/a	n/a	n/a	-999	14	[-999, -999, -999]	n/a	FR1	1	R1063C
1459.336	3.3	1159125	PROB	3.271	n/a	n/a	-999	14	[1, 7, 3]	11.0	FR1	1	R1063C
1462.636	2.834	1160775	PROB	2.811	n/a	n/a	-999	14	[1, 6, 1]	8.0	FR1	1	R1063C
1465.47	5.484	1162192	PROB	5.457	n/a	n/a	-999	14	[8, 7, 3]	18.0	FR1	1	R1063C
1470.954	3.034	1164934	PROB	3.013	n/a	n/a	-999	14	[6, 6, 4]	16.0	FR1	1	R1063C
1473.988	2.217	1166451	PROB	2.195	n/a	n/a	-999	14	[1, 9, 2]	12.0	FR1	1	R1063C
1476.205	1.817	1167559	PROB	1.794	n/a	n/a	-999	14	[3, 2, 6]	11.0	FR1	1	R1063C
1478.022	1.793	1168467	PROB	1.793	n/a	n/a	-999	14	[1, 1, 4]	6.0	FR1	1	R1063C
1479.815	0.008	1169364	STOP	n/a	n/a	n/a	-999	14	[-999, -999, -999]	n/a	FR1	1	R1063C
1479.823	1.05	1169368	DISTRACT_END	n/a	n/a	n/a	-999	14	[0, 0, 0]	n/a	FR1	1	R1063C
1480.873	2.337	1169893	REC_START	n/a	n/a	n/a	-999	14	[0, 0, 0]	n/a	FR1	1	R1063C
1483.21	0.857	1171061	REC_WORD	2.337	n/a	BRICK	2	14	[0, 0, 0]	n/a	FR1	1	R1063C
1484.067	0.744	1171490	REC_WORD_VV	3.194	n/a	<>	-999	14	[0, 0, 0]	n/a	FR1	1	R1063C
1484.811	0.551	1171862	REC_WORD	3.938	n/a	LAWN	-999	14	[0, 0, 0]	n/a	FR1	1	R1063C
1485.362	0.96	1172137	REC_WORD	4.489	n/a	BRUSH	-999	14	[0, 0, 0]	n/a	FR1	1	R1063C
1486.322	2.639	1172617	REC_WORD	5.449	n/a	SKI	6	14	[0, 0, 0]	n/a	FR1	1	R1063C
1488.961	5.041	1173936	REC_WORD_VV	8.088	n/a	<>	-999	14	[0, 0, 0]	n/a	FR1	1	R1063C
1494.002	2.775	1176457	REC_WORD	13.129	n/a	BOMB	12	14	[0, 0, 0]	n/a	FR1	1	R1063C
1496.777	0.87	1177844	REC_WORD_VV	15.904	n/a	<>	-999	14	[0, 0, 0]	n/a	FR1	1	R1063C
1497.647	11.243	1178279	REC_WORD	16.774	n/a	BRICK	2	14	[0, 0, 0]	n/a	FR1	1	R1063C
1508.89	1.997	1183900	REC_WORD_VV	28.017	n/a	<>	-999	14	[0, 0, 0]	n/a	FR1	1	R1063C
1510.887	1.058	1184898	REC_END	n/a	n/a	n/a	-999	14	[0, 0, 0]	n/a	FR1	1	R1063C
1511.945	10.0	1185427	COUNTDOWN_START	n/a	n/a	n/a	-999	15	[0, 0, 0]	n/a	FR1	1	R1063C
1511.946	10.427	1185428	TRIAL	n/a	n/a	n/a	-999	15	[0, 0, 0]	n/a	FR1	1	R1063C
1522.373	0.008	1190641	COUNTDOWN_END	n/a	n/a	n/a	-999	15	[0, 0, 0]	n/a	FR1	1	R1063C
1522.381	1.6	1190645	ORIENT	n/a	n/a	n/a	-999	15	[0, 0, 0]	n/a	FR1	1	R1063C
1524.814	1.6	1191861	WORD	n/a	wordpools/wordpool_EN.txt	JUICE	1	15	[0, 0, 0]	n/a	FR1	1	R1063C
1527.298	1.6	1193103	WORD	n/a	wordpools/wordpool_EN.txt	PEARL	2	15	[0, 0, 0]	n/a	FR1	1	R1063C
1529.832	1.6	1194370	WORD	n/a	wordpools/wordpool_EN.txt	SMILE	3	15	[0, 0, 0]	n/a	FR1	1	R1063C
1532.383	1.6	1195646	WORD	n/a	wordpools/wordpool_EN.txt	RIB	4	15	[0, 0, 0]	n/a	FR1	1	R1063C
1534.833	1.6	1196870	WORD	n/a	wordpools/wordpool_EN.txt	WORM	5	15	[0, 0, 0]	n/a	FR1	1	R1063C
1537.417	1.6	1198162	WORD	n/a	wordpools/wordpool_EN.txt	SNAIL	6	15	[0, 0, 0]	n/a	FR1	1	R1063C
1539.967	1.6	1199437	WORD	n/a	wordpools/wordpool_EN.txt	MOLE	7	15	[0, 0, 0]	n/a	FR1	1	R1063C
1542.418	1.6	1200663	WORD	n/a	wordpools/wordpool_EN.txt	BEE	8	15	[0, 0, 0]	n/a	FR1	1	R1063C
1544.852	1.6	1201880	WORD	n/a	wordpools/wordpool_EN.txt	FLEA	9	15	[0, 0, 0]	n/a	FR1	1	R1063C
1547.435	1.6	1203171	WORD	n/a	wordpools/wordpool_EN.txt	TOAD	10	15	[0, 0, 0]	n/a	FR1	1	R1063C
1549.853	1.6	1204380	WORD	n/a	wordpools/wordpool_EN.txt	TOOTH	11	15	[0, 0, 0]	n/a	FR1	1	R1063C
1552.236	1.6	1205571	WORD	n/a	wordpools/wordpool_EN.txt	ANT	12	15	[0, 0, 0]	n/a	FR1	1	R1063C
1553.853	0.001	1206380	DISTRACT_START	n/a	n/a	n/a	-999	15	[0, 0, 0]	n/a	FR1	1	R1063C
1553.854	0.016	1206380	START	n/a	n/a	n/a	-999	15	[-999, -999, -999]	n/a	FR1	1	R1063C
1553.87	4.984	1206388	PROB	4.961	n/a	n/a	-999	15	[4, 2, 9]	16.0	FR1	1	R1063C
1558.854	4.418	1208880	PROB	4.393	n/a	n/a	-999	15	[5, 8, 5]	18.0	FR1	1	R1063C
1563.272	2.75	1211089	PROB	2.727	n/a	n/a	-999	15	[4, 4, 1]	9.0	FR1	1	R1063C
1566.022	1.767	1212464	PROB	1.745	n/a	n/a	-999	15	[1, 1, 6]	8.0	FR1	1	R1063C
1567.789	2.134	1213347	PROB	2.098	n/a	n/a	-999	15	[8, 1, 2]	10.0	FR1	1	R1063C
1569.923	4.436	1214414	PROB	4.436	n/a	n/a	-999	15	[3, 1, 5]	9.0	FR1	1	R1063C
1574.359	0.015	1216632	STOP	n/a	n/a	n/a	-999	15	[-999, -999, -999]	n/a	FR1	1	R1063C
1574.374	1.217	1216639	DISTRACT_END	n/a	n/a	n/a	-999	15	[0, 0, 0]	n/a	FR1	1	R1063C
1575.591	1.829	1217248	REC_START	n/a	n/a	n/a	-999	15	[0, 0, 0]	n/a	FR1	1	R1063C
1577.42	0.733	1218162	REC_WORD	1.829	n/a	PEARL	2	15	[0, 0, 0]	n/a	FR1	1	R1063C
1578.153	6.616	1218529	REC_WORD	2.562	n/a	ANT	12	15	[0, 0, 0]	n/a	FR1	1	R1063C
1584.769	6.704	1221836	REC_WORD_VV	9.178	n/a	<>	-999	15	[0, 0, 0]	n/a	FR1	1	R1063C
1591.473	14.129	1225188	REC_WORD_VV	15.882	n/a	<>	-999	15	[0, 0, 0]	n/a	FR1	1	R1063C
1605.602	0.978	1232252	REC_END	n/a	n/a	n/a	-999	15	[0, 0, 0]	n/a	FR1	1	R1063C
1606.58	10.0	1232741	COUNTDOWN_START	n/a	n/a	n/a	-999	16	[0, 0, 0]	n/a	FR1	1	R1063C
1606.58	10.428	1232741	TRIAL	n/a	n/a	n/a	-999	16	[0, 0, 0]	n/a	FR1	1	R1063C
1617.008	0.007	1237954	COUNTDOWN_END	n/a	n/a	n/a	-999	16	[0, 0, 0]	n/a	FR1	1	R1063C
1617.015	1.6	1237958	ORIENT	n/a	n/a	n/a	-999	16	[0, 0, 0]	n/a	FR1	1	R1063C
1619.516	1.6	1239208	WORD	n/a	wordpools/wordpool_EN.txt	ARM	1	16	[0, 0, 0]	n/a	FR1	1	R1063C
1622.016	1.6	1240458	WORD	n/a	wordpools/wordpool_EN.txt	SPONGE	2	16	[0, 0, 0]	n/a	FR1	1	R1063C
1624.466	1.6	1241683	WORD	n/a	wordpools/wordpool_EN.txt	PIT	3	16	[0, 0, 0]	n/a	FR1	1	R1063C
1626.85	1.6	1242875	WORD	n/a	wordpools/wordpool_EN.txt	GRASS	4	16	[0, 0, 0]	n/a	FR1	1	R1063C
1629.301	1.6	1244100	WORD	n/a	wordpools/wordpool_EN.txt	CHEEK	5	16	[0, 0, 0]	n/a	FR1	1	R1063C
1631.885	1.6	1245392	WORD	n/a	wordpools/wordpool_EN.txt	STEAK	6	16	[0, 0, 0]	n/a	FR1	1	R1063C
1634.468	1.6	1246684	WORD	n/a	wordpools/wordpool_EN.txt	FISH	7	16	[0, 0, 0]	n/a	FR1	1	R1063C
1636.869	1.6	1247884	WORD	n/a	wordpools/wordpool_EN.txt	BOWL	8	16	[0, 0, 0]	n/a	FR1	1	R1063C
1639.319	1.6	1249109	WORD	n/a	wordpools/wordpool_EN.txt	SEA	9	16	[0, 0, 0]	n/a	FR1	1	R1063C
1641.837	1.6	1250368	WORD	n/a	wordpools/wordpool_EN.txt	CALF	10	16	[0, 0, 0]	n/a	FR1	1	R1063C
1644.437	1.6	1251668	WORD	n/a	wordpools/wordpool_EN.txt	MILK	11	16	[0, 0, 0]	n/a	FR1	1	R1063C
1647.054	1.6	1252976	WORD	n/a	wordpools/wordpool_EN.txt	WEED	12	16	[0, 0, 0]	n/a	FR1	1	R1063C
1648.67	0.001	1253784	DISTRACT_START	n/a	n/a	n/a	-999	16	[0, 0, 0]	n/a	FR1	1	R1063C
1648.671	0.017	1253785	START	n/a	n/a	n/a	-999	16	[-999, -999, -999]	n/a	FR1	1	R1063C
1648.688	3.65	1253793	PROB	3.615	n/a	n/a	-999	16	[7, 2, 8]	17.0	FR1	1	R1063C
1652.338	2.534	1255618	PROB	2.509	n/a	n/a	-999	16	[5, 3, 5]	13.0	FR1	1	R1063C
1654.872	3.251	1256885	PROB	3.215	n/a	n/a	-999	16	[9, 8, 8]	25.0	FR1	1	R1063C
1658.123	2.15	1258510	PROB	2.124	n/a	n/a	-999	16	[6, 1, 6]	13.0	FR1	1	R1063C
1660.273	2.651	1259585	PROB	2.622	n/a	n/a	-999	16	[5, 1, 3]	9.0	FR1	1	R1063C
1662.924	4.501	1260910	PROB	4.467	n/a	n/a	-999	16	[8, 6, 9]	23.0	FR1	1	R1063C
1667.425	2.342	1263161	PROB	2.342	n/a	n/a	-999	16	[8, 1, 7]	16.0	FR1	1	R1063C
1669.767	0.008	1264332	STOP	n/a	n/a	n/a	-999	16	[-999, -999, -999]	n/a	FR1	1	R1063C
1669.775	1.168	1264336	DISTRACT_END	n/a	n/a	n/a	-999	16	[0, 0, 0]	n/a	FR1	1	R1063C
1670.943	1.987	1264920	REC_START	n/a	n/a	n/a	-999	16	[0, 0, 0]	n/a	FR1	1	R1063C
1672.93	0.63	1265913	REC_WORD	1.987	n/a	ARM	1	16	[0, 0, 0]	n/a	FR1	1	R1063C
1673.56	1.22	1266228	REC_WORD	2.617	n/a	GRASS	4	16	[0, 0, 0]	n/a	FR1	1	R1063C
1674.78	26.173	1266838	REC_WORD	3.837	n/a	PIT	3	16	[0, 0, 0]	n/a	FR1	1	R1063C
1700.953	1.695	1279923	REC_END	n/a	n/a	n/a	-999	16	[0, 0, 0]	n/a	FR1	1	R1063C
1702.648	0.0	1280771	TRIAL	n/a	n/a	n/a	-999	17	[0, 0, 0]	n/a	FR1	1	R1063C
1702.648	10.0	1280771	COUNTDOWN_START	n/a	n/a	n/a	-999	17	[0, 0, 0]	n/a	FR1	1	R1063C
1713.076	0.007	1285984	COUNTDOWN_END	n/a	n/a	n/a	-999	17	[0, 0, 0]	n/a	FR1	1	R1063C
1713.083	1.6	1285988	ORIENT	n/a	n/a	n/a	-999	17	[0, 0, 0]	n/a	FR1	1	R1063C
1715.7	1.6	1287296	WORD	n/a	wordpools/wordpool_EN.txt	SAIL	1	17	[0, 0, 0]	n/a	FR1	1	R1063C
1718.267	1.6	1288579	WORD	n/a	wordpools/wordpool_EN.txt	STAR	2	17	[0, 0, 0]	n/a	FR1	1	R1063C
1720.851	1.6	1289871	WORD	n/a	wordpools/wordpool_EN.txt	FILM	3	17	[0, 0, 0]	n/a	FR1	1	R1063C
1723.419	1.6	1291155	WORD	n/a	wordpools/wordpool_EN.txt	PRINCE	4	17	[0, 0, 0]	n/a	FR1	1	R1063C
1725.902	1.6	1292397	WORD	n/a	wordpools/wordpool_EN.txt	JUDGE	5	17	[0, 0, 0]	n/a	FR1	1	R1063C
1728.403	1.6	1293647	WORD	n/a	wordpools/wordpool_EN.txt	BALL	6	17	[0, 0, 0]	n/a	FR1	1	R1063C
1730.887	1.6	1294889	WORD	n/a	wordpools/wordpool_EN.txt	BIRD	7	17	[0, 0, 0]	n/a	FR1	1	R1063C
1733.42	1.6	1296155	WORD	n/a	wordpools/wordpool_EN.txt	NET	8	17	[0, 0, 0]	n/a	FR1	1	R1063C
1735.954	1.6	1297422	WORD	n/a	wordpools/wordpool_EN.txt	CLOUD	9	17	[0, 0, 0]	n/a	FR1	1	R1063C
1738.355	1.6	1298623	WORD	n/a	wordpools/wordpool_EN.txt	INK	10	17	[0, 0, 0]	n/a	FR1	1	R1063C
1740.838	1.6	1299864	WORD	n/a	wordpools/wordpool_EN.txt	HEART	11	17	[0, 0, 0]	n/a	FR1	1	R1063C
1743.239	1.6	1301064	WORD	n/a	wordpools/wordpool_EN.txt	FLUTE	12	17	[0, 0, 0]	n/a	FR1	1	R1063C
1744.856	0.001	1301873	DISTRACT_START	n/a	n/a	n/a	-999	17	[0, 0, 0]	n/a	FR1	1	R1063C
1744.857	0.015	1301873	START	n/a	n/a	n/a	-999	17	[-999, -999, -999]	n/a	FR1	1	R1063C
1744.872	3.218	1301881	PROB	3.183	n/a	n/a	-999	17	[1, 5, 3]	9.0	FR1	1	R1063C
1748.09	2.8	1303490	PROB	2.773	n/a	n/a	-999	17	[2, 9, 2]	13.0	FR1	1	R1063C
1750.89	2.718	1304890	PROB	2.693	n/a	n/a	-999	17	[2, 1, 4]	7.0	FR1	1	R1063C
1753.608	2.883	1306248	PROB	2.847	n/a	n/a	-999	17	[4, 6, 9]	19.0	FR1	1	R1063C
1756.491	3.268	1307690	PROB	3.244	n/a	n/a	-999	17	[5, 4, 8]	17.0	FR1	1	R1063C
1759.759	6.648	1309324	PROB	6.648	n/a	n/a	-999	17	[5, 5, 8]	18.0	FR1	1	R1063C
1766.407	0.02	1312647	STOP	n/a	n/a	n/a	-999	17	[-999, -999, -999]	n/a	FR1	1	R1063C
1766.427	1.151	1312657	DISTRACT_END	n/a	n/a	n/a	-999	17	[0, 0, 0]	n/a	FR1	1	R1063C
1767.578	2.214	1313233	REC_START	n/a	n/a	n/a	-999	17	[0, 0, 0]	n/a	FR1	1	R1063C
1769.792	0.7	1314340	REC_WORD	2.214	n/a	STAR	2	17	[0, 0, 0]	n/a	FR1	1	R1063C
1770.492	0.751	1314690	REC_WORD	2.914	n/a	FILM	3	17	[0, 0, 0]	n/a	FR1	1	R1063C
1771.243	2.684	1315065	REC_WORD	3.665	n/a	PRINCE	4	17	[0, 0, 0]	n/a	FR1	1	R1063C
1773.927	9.127	1316407	REC_WORD_VV	6.349	n/a	<>	-999	17	[0, 0, 0]	n/a	FR1	1	R1063C
1783.054	14.533	1320970	REC_WORD_VV	15.476	n/a	<>	-999	17	[0, 0, 0]	n/a	FR1	1	R1063C
1797.587	0.946	1328236	REC_END	n/a	n/a	n/a	-999	17	[0, 0, 0]	n/a	FR1	1	R1063C
1798.533	0.0	1328709	TRIAL	n/a	n/a	n/a	-999	18	[0, 0, 0]	n/a	FR1	1	R1063C
1798.533	10.0	1328709	COUNTDOWN_START	n/a	n/a	n/a	-999	18	[0, 0, 0]	n/a	FR1	1	R1063C
1808.961	0.007	1333923	COUNTDOWN_END	n/a	n/a	n/a	-999	18	[0, 0, 0]	n/a	FR1	1	R1063C
1808.968	1.6	1333926	ORIENT	n/a	n/a	n/a	-999	18	[0, 0, 0]	n/a	FR1	1	R1063C
1811.602	1.6	1335243	WORD	n/a	wordpools/wordpool_EN.txt	WHEEL	1	18	[0, 0, 0]	n/a	FR1	1	R1063C
1814.019	1.6	1336451	WORD	n/a	wordpools/wordpool_EN.txt	PIN	2	18	[0, 0, 0]	n/a	FR1	1	R1063C
1816.469	1.6	1337676	WORD	n/a	wordpools/wordpool_EN.txt	BAND	3	18	[0, 0, 0]	n/a	FR1	1	R1063C
1819.003	1.6	1338943	WORD	n/a	wordpools/wordpool_EN.txt	WAND	4	18	[0, 0, 0]	n/a	FR1	1	R1063C
1821.57	1.6	1340227	WORD	n/a	wordpools/wordpool_EN.txt	SKY	5	18	[0, 0, 0]	n/a	FR1	1	R1063C
1824.004	1.6	1341443	WORD	n/a	wordpools/wordpool_EN.txt	POLE	6	18	[0, 0, 0]	n/a	FR1	1	R1063C
1826.388	1.6	1342635	WORD	n/a	wordpools/wordpool_EN.txt	GLASS	7	18	[0, 0, 0]	n/a	FR1	1	R1063C
1828.922	1.6	1343902	WORD	n/a	wordpools/wordpool_EN.txt	LAWN	8	18	[0, 0, 0]	n/a	FR1	1	R1063C
1831.322	1.6	1345102	WORD	n/a	wordpools/wordpool_EN.txt	HOUSE	9	18	[0, 0, 0]	n/a	FR1	1	R1063C
1833.856	1.6	1346369	WORD	n/a	wordpools/wordpool_EN.txt	LOCK	10	18	[0, 0, 0]	n/a	FR1	1	R1063C
1836.29	1.6	1347586	WORD	n/a	wordpools/wordpool_EN.txt	CART	11	18	[0, 0, 0]	n/a	FR1	1	R1063C
1838.857	1.6	1348869	WORD	n/a	wordpools/wordpool_EN.txt	BED	12	18	[0, 0, 0]	n/a	FR1	1	R1063C
1840.474	0.001	1349678	DISTRACT_START	n/a	n/a	n/a	-999	18	[0, 0, 0]	n/a	FR1	1	R1063C
1840.475	0.015	1349678	START	n/a	n/a	n/a	-999	18	[-999, -999, -999]	n/a	FR1	1	R1063C
1840.49	5.435	1349686	PROB	5.405	n/a	n/a	-999	18	[2, 6, 9]	17.0	FR1	1	R1063C
1845.925	2.25	1352403	PROB	2.218	n/a	n/a	-999	18	[8, 1, 1]	10.0	FR1	1	R1063C
1848.175	3.101	1353528	PROB	3.072	n/a	n/a	-999	18	[8, 1, 3]	12.0	FR1	1	R1063C
1851.276	5.217	1355078	PROB	5.195	n/a	n/a	-999	18	[3, 3, 7]	13.0	FR1	1	R1063C
1856.493	3.401	1357686	PROB	3.37	n/a	n/a	-999	18	[6, 7, 7]	20.0	FR1	1	R1063C
1859.894	2.657	1359387	PROB	2.657	n/a	n/a	-999	18	[9, 2, 1]	11.0	FR1	1	R1063C
1862.551	0.01	1360715	STOP	n/a	n/a	n/a	-999	18	[-999, -999, -999]	n/a	FR1	1	R1063C
1862.561	1.1	1360720	DISTRACT_END	n/a	n/a	n/a	-999	18	[0, 0, 0]	n/a	FR1	1	R1063C
1863.661	10.327	1361270	REC_START	n/a	n/a	n/a	-999	18	[0, 0, 0]	n/a	FR1	1	R1063C
1873.988	19.683	1366433	REC_WORD	10.327	n/a	GRASS	-999	18	[0, 0, 0]	n/a	FR1	1	R1063C
1893.671	0.863	1376274	REC_END	n/a	n/a	n/a	-999	18	[0, 0, 0]	n/a	FR1	1	R1063C
1894.534	0.0	1376705	TRIAL	n/a	n/a	n/a	-999	19	[0, 0, 0]	n/a	FR1	1	R1063C
1894.534	10.0	1376705	COUNTDOWN_START	n/a	n/a	n/a	-999	19	[0, 0, 0]	n/a	FR1	1	R1063C
1904.962	0.007	1381919	COUNTDOWN_END	n/a	n/a	n/a	-999	19	[0, 0, 0]	n/a	FR1	1	R1063C
1904.969	1.6	1381922	ORIENT	n/a	n/a	n/a	-999	19	[0, 0, 0]	n/a	FR1	1	R1063C
1907.403	1.6	1383139	WORD	n/a	wordpools/wordpool_EN.txt	BRIDGE	1	19	[0, 0, 0]	n/a	FR1	1	R1063C
1909.837	1.6	1384356	WORD	n/a	wordpools/wordpool_EN.txt	CAKE	2	19	[0, 0, 0]	n/a	FR1	1	R1063C
1912.321	1.6	1385598	WORD	n/a	wordpools/wordpool_EN.txt	TRAIN	3	19	[0, 0, 0]	n/a	FR1	1	R1063C
1914.788	1.6	1386831	WORD	n/a	wordpools/wordpool_EN.txt	ICE	4	19	[0, 0, 0]	n/a	FR1	1	R1063C
1917.355	1.6	1388115	WORD	n/a	wordpools/wordpool_EN.txt	JAIL	5	19	[0, 0, 0]	n/a	FR1	1	R1063C
1919.906	1.6	1389390	WORD	n/a	wordpools/wordpool_EN.txt	CHAIR	6	19	[0, 0, 0]	n/a	FR1	1	R1063C
1922.456	1.6	1390665	WORD	n/a	wordpools/wordpool_EN.txt	DART	7	19	[0, 0, 0]	n/a	FR1	1	R1063C
1924.856	1.6	1391865	WORD	n/a	wordpools/wordpool_EN.txt	BADGE	8	19	[0, 0, 0]	n/a	FR1	1	R1063C
1927.307	1.6	1393090	WORD	n/a	wordpools/wordpool_EN.txt	CLOCK	9	19	[0, 0, 0]	n/a	FR1	1	R1063C
1929.774	1.6	1394324	WORD	n/a	wordpools/wordpool_EN.txt	STREET	10	19	[0, 0, 0]	n/a	FR1	1	R1063C
1932.374	1.6	1395624	WORD	n/a	wordpools/wordpool_EN.txt	MULE	11	19	[0, 0, 0]	n/a	FR1	1	R1063C
1934.825	1.6	1396849	WORD	n/a	wordpools/wordpool_EN.txt	BENCH	12	19	[0, 0, 0]	n/a	FR1	1	R1063C
1936.442	0.001	1397658	DISTRACT_START	n/a	n/a	n/a	-999	19	[0, 0, 0]	n/a	FR1	1	R1063C
1936.443	0.015	1397658	START	n/a	n/a	n/a	-999	19	[-999, -999, -999]	n/a	FR1	1	R1063C
1936.458	5.985	1397666	PROB	5.949	n/a	n/a	-999	19	[9, 4, 8]	22.0	FR1	1	R1063C
1942.443	4.518	1400658	PROB	4.492	n/a	n/a	-999	19	[6, 3, 8]	17.0	FR1	1	R1063C
1946.961	3.699	1402917	PROB	3.67	n/a	n/a	-999	19	[3, 8, 6]	17.0	FR1	1	R1063C
1950.66	1.935	1404766	PROB	1.899	n/a	n/a	-999	19	[1, 9, 2]	12.0	FR1	1	R1063C
1952.595	2.584	1405733	PROB	2.548	n/a	n/a	-999	19	[6, 2, 3]	11.0	FR1	1	R1063C
1955.179	3.876	1407025	PROB	3.876	n/a	n/a	-999	19	[6, 3, 5]	14.0	FR1	1	R1063C
1959.055	0.008	1408963	STOP	n/a	n/a	n/a	-999	19	[-999, -999, -999]	n/a	FR1	1	R1063C
1959.063	1.151	1408967	DISTRACT_END	n/a	n/a	n/a	-999	19	[0, 0, 0]	n/a	FR1	1	R1063C
1960.214	2.756	1409542	REC_START	n/a	n/a	n/a	-999	19	[0, 0, 0]	n/a	FR1	1	R1063C
1962.97	3.094	1410920	REC_WORD	2.756	n/a	BRIDGE	1	19	[0, 0, 0]	n/a	FR1	1	R1063C
1966.064	9.71	1412467	REC_WORD	5.85	n/a	BENCH	12	19	[0, 0, 0]	n/a	FR1	1	R1063C
1975.774	14.45	1417322	REC_WORD	15.56	n/a	STORE	-999	19	[0, 0, 0]	n/a	FR1	1	R1063C
1990.224	0.561	1424546	REC_END	n/a	n/a	n/a	-999	19	[0, 0, 0]	n/a	FR1	1	R1063C
1990.785	10.0	1424827	COUNTDOWN_START	n/a	n/a	n/a	-999	20	[0, 0, 0]	n/a	FR1	1	R1063C
1990.786	10.427	1424827	TRIAL	n/a	n/a	n/a	-999	20	[0, 0, 0]	n/a	FR1	1	R1063C
2001.213	0.008	1430040	COUNTDOWN_END	n/a	n/a	n/a	-999	20	[0, 0, 0]	n/a	FR1	1	R1063C
2001.221	1.6	1430044	ORIENT	n/a	n/a	n/a	-999	20	[0, 0, 0]	n/a	FR1	1	R1063C
2003.705	1.6	1431286	WORD	n/a	wordpools/wordpool_EN.txt	CLOWN	1	20	[0, 0, 0]	n/a	FR1	1	R1063C
2006.222	1.6	1432544	WORD	n/a	wordpools/wordpool_EN.txt	PLATE	2	20	[0, 0, 0]	n/a	FR1	1	R1063C
2008.639	1.6	1433753	WORD	n/a	wordpools/wordpool_EN.txt	GOLD	3	20	[0, 0, 0]	n/a	FR1	1	R1063C
2011.139	1.6	1435003	WORD	n/a	wordpools/wordpool_EN.txt	PANTS	4	20	[0, 0, 0]	n/a	FR1	1	R1063C
2013.523	1.6	1436195	WORD	n/a	wordpools/wordpool_EN.txt	SIGN	5	20	[0, 0, 0]	n/a	FR1	1	R1063C
2016.073	1.6	1437470	WORD	n/a	wordpools/wordpool_EN.txt	SCHOOL	6	20	[0, 0, 0]	n/a	FR1	1	R1063C
2018.524	1.6	1438695	WORD	n/a	wordpools/wordpool_EN.txt	PIG	7	20	[0, 0, 0]	n/a	FR1	1	R1063C
2021.074	1.6	1439970	WORD	n/a	wordpools/wordpool_EN.txt	WHALE	8	20	[0, 0, 0]	n/a	FR1	1	R1063C
2023.692	1.6	1441279	WORD	n/a	wordpools/wordpool_EN.txt	CAVE	9	20	[0, 0, 0]	n/a	FR1	1	R1063C
2026.225	1.6	1442545	WORD	n/a	wordpools/wordpool_EN.txt	CROWN	10	20	[0, 0, 0]	n/a	FR1	1	R1063C
2028.809	1.6	1443837	WORD	n/a	wordpools/wordpool_EN.txt	GLOVE	11	20	[0, 0, 0]	n/a	FR1	1	R1063C
2031.376	1.6	1445120	WORD	n/a	wordpools/wordpool_EN.txt	BEAR	12	20	[0, 0, 0]	n/a	FR1	1	R1063C
2032.993	0.001	1445929	DISTRACT_START	n/a	n/a	n/a	-999	20	[0, 0, 0]	n/a	FR1	1	R1063C
2032.994	0.016	1445929	START	n/a	n/a	n/a	-999	20	[-999, -999, -999]	n/a	FR1	1	R1063C
2033.01	4.067	1445937	PROB	4.037	n/a	n/a	-999	20	[5, 5, 8]	18.0	FR1	1	R1063C
2037.077	2.067	1447971	PROB	2.034	n/a	n/a	-999	20	[1, 7, 1]	9.0	FR1	1	R1063C
2039.144	3.684	1449004	PROB	3.663	n/a	n/a	-999	20	[9, 2, 8]	19.0	FR1	1	R1063C
2042.828	3.385	1450846	PROB	3.355	n/a	n/a	-999	20	[7, 7, 7]	21.0	FR1	1	R1063C
2046.213	4.617	1452538	PROB	4.594	n/a	n/a	-999	20	[6, 2, 7]	15.0	FR1	1	R1063C
2050.83	3.489	1454847	PROB	3.489	n/a	n/a	-999	20	[8, 7, 3]	18.0	FR1	1	R1063C
2054.319	0.012	1456591	STOP	n/a	n/a	n/a	-999	20	[-999, -999, -999]	n/a	FR1	1	R1063C
2054.331	1.067	1456597	DISTRACT_END	n/a	n/a	n/a	-999	20	[0, 0, 0]	n/a	FR1	1	R1063C
2055.398	1.741	1457130	REC_START	n/a	n/a	n/a	-999	20	[0, 0, 0]	n/a	FR1	1	R1063C
2057.139	1.318	1458001	REC_WORD	1.741	n/a	CROWN	10	20	[0, 0, 0]	n/a	FR1	1	R1063C
2058.457	1.856	1458660	REC_WORD	3.059	n/a	GOLD	3	20	[0, 0, 0]	n/a	FR1	1	R1063C
2060.313	1.443	1459588	REC_WORD	4.915	n/a	CLOWN	1	20	[0, 0, 0]	n/a	FR1	1	R1063C
2061.756	0.275	1460309	REC_WORD	6.358	n/a	PANTS	4	20	[0, 0, 0]	n/a	FR1	1	R1063C
2062.031	6.328	1460447	REC_WORD	6.633	n/a	SCHOOL	6	20	[0, 0, 0]	n/a	FR1	1	R1063C
2068.359	17.053	1463610	REC_WORD	12.961	n/a	BEAR	12	20	[0, 0, 0]	n/a	FR1	1	R1063C
2085.412	0.974	1472136	REC_END	n/a	n/a	n/a	-999	20	[0, 0, 0]	n/a	FR1	1	R1063C
2086.386	10.0	1472623	COUNTDOWN_START	n/a	n/a	n/a	-999	21	[0, 0, 0]	n/a	FR1	1	R1063C
2086.387	10.427	1472624	TRIAL	n/a	n/a	n/a	-999	21	[0, 0, 0]	n/a	FR1	1	R1063C
2096.814	0.008	1477837	COUNTDOWN_END	n/a	n/a	n/a	-999	21	[0, 0, 0]	n/a	FR1	1	R1063C
2096.822	1.6	1477841	ORIENT	n/a	n/a	n/a	-999	21	[0, 0, 0]	n/a	FR1	1	R1063C
2099.239	1.6	1479049	WORD	n/a	wordpools/wordpool_EN.txt	STORE	1	21	[0, 0, 0]	n/a	FR1	1	R1063C
2101.856	1.6	1480357	WORD	n/a	wordpools/wordpool_EN.txt	VASE	2	21	[0, 0, 0]	n/a	FR1	1	R1063C
2104.24	1.6	1481549	WORD	n/a	wordpools/wordpool_EN.txt	FRUIT	3	21	[0, 0, 0]	n/a	FR1	1	R1063C
2106.724	1.6	1482791	WORD	n/a	wordpools/wordpool_EN.txt	PURSE	4	21	[0, 0, 0]	n/a	FR1	1	R1063C
2109.257	1.6	1484058	WORD	n/a	wordpools/wordpool_EN.txt	DESK	5	21	[0, 0, 0]	n/a	FR1	1	R1063C
2111.758	1.6	1485308	WORD	n/a	wordpools/wordpool_EN.txt	TEA	6	21	[0, 0, 0]	n/a	FR1	1	R1063C
2114.142	1.6	1486500	WORD	n/a	wordpools/wordpool_EN.txt	LIP	7	21	[0, 0, 0]	n/a	FR1	1	R1063C
2116.776	1.6	1487817	WORD	n/a	wordpools/wordpool_EN.txt	LAMB	8	21	[0, 0, 0]	n/a	FR1	1	R1063C
2119.276	1.6	1489067	WORD	n/a	wordpools/wordpool_EN.txt	PLANT	9	21	[0, 0, 0]	n/a	FR1	1	R1063C
2121.743	1.6	1490300	WORD	n/a	wordpools/wordpool_EN.txt	PEACH	10	21	[0, 0, 0]	n/a	FR1	1	R1063C
2124.243	1.6	1491550	WORD	n/a	wordpools/wordpool_EN.txt	APE	11	21	[0, 0, 0]	n/a	FR1	1	R1063C
2126.611	1.6	1492734	WORD	n/a	wordpools/wordpool_EN.txt	FOOD	12	21	[0, 0, 0]	n/a	FR1	1	R1063C
2128.228	0.001	1493542	DISTRACT_START	n/a	n/a	n/a	-999	21	[0, 0, 0]	n/a	FR1	1	R1063C
2128.229	0.016	1493543	START	n/a	n/a	n/a	-999	21	[-999, -999, -999]	n/a	FR1	1	R1063C
2128.245	11.485	1493551	PROB	11.45	n/a	n/a	-999	21	[9, 7, 8]	24.0	FR1	1	R1063C
2139.73	3.167	1499293	PROB	3.133	n/a	n/a	-999	21	[1, 3, 4]	8.0	FR1	1	R1063C
2142.897	3.301	1500876	PROB	3.278	n/a	n/a	-999	21	[5, 1, 6]	12.0	FR1	1	R1063C
2146.198	2.193	1502526	PROB	2.193	n/a	n/a	-999	21	[1, 7, 1]	9.0	FR1	1	R1063C
2148.391	0.007	1503623	STOP	n/a	n/a	n/a	-999	21	[-999, -999, -999]	n/a	FR1	1	R1063C
2148.398	1.101	1503626	DISTRACT_END	n/a	n/a	n/a	-999	21	[0, 0, 0]	n/a	FR1	1	R1063C
2149.499	1.675	1504177	REC_START	n/a	n/a	n/a	-999	21	[0, 0, 0]	n/a	FR1	1	R1063C
2151.174	0.804	1505014	REC_WORD	1.675	n/a	STORE	1	21	[0, 0, 0]	n/a	FR1	1	R1063C
2151.978	27.535	1505416	REC_WORD	2.479	n/a	FACE	-999	21	[0, 0, 0]	n/a	FR1	1	R1063C
2179.513	1.157	1519182	REC_END	n/a	n/a	n/a	-999	21	[0, 0, 0]	n/a	FR1	1	R1063C
2180.67	10.0	1519761	COUNTDOWN_START	n/a	n/a	n/a	-999	22	[0, 0, 0]	n/a	FR1	1	R1063C
2180.67	10.428	1519761	TRIAL	n/a	n/a	n/a	-999	22	[0, 0, 0]	n/a	FR1	1	R1063C
2191.098	0.008	1524974	COUNTDOWN_END	n/a	n/a	n/a	-999	22	[0, 0, 0]	n/a	FR1	1	R1063C
2191.106	1.6	1524978	ORIENT	n/a	n/a	n/a	-999	22	[0, 0, 0]	n/a	FR1	1	R1063C
2193.623	1.6	1526237	WORD	n/a	wordpools/wordpool_EN.txt	TRAY	1	22	[0, 0, 0]	n/a	FR1	1	R1063C
2196.157	1.6	1527504	WORD	n/a	wordpools/wordpool_EN.txt	ROSE	2	22	[0, 0, 0]	n/a	FR1	1	R1063C
2198.541	1.6	1528696	WORD	n/a	wordpools/wordpool_EN.txt	BEACH	3	22	[0, 0, 0]	n/a	FR1	1	R1063C
2200.925	1.6	1529888	WORD	n/a	wordpools/wordpool_EN.txt	BOAT	4	22	[0, 0, 0]	n/a	FR1	1	R1063C
2203.442	1.6	1531146	WORD	n/a	wordpools/wordpool_EN.txt	LEG	5	22	[0, 0, 0]	n/a	FR1	1	R1063C
2206.059	1.6	1532454	WORD	n/a	wordpools/wordpool_EN.txt	SUN	6	22	[0, 0, 0]	n/a	FR1	1	R1063C
2208.626	1.6	1533738	WORD	n/a	wordpools/wordpool_EN.txt	FLOOR	7	22	[0, 0, 0]	n/a	FR1	1	R1063C
2211.227	1.6	1535038	WORD	n/a	wordpools/wordpool_EN.txt	RICE	8	22	[0, 0, 0]	n/a	FR1	1	R1063C
2213.811	1.6	1536330	WORD	n/a	wordpools/wordpool_EN.txt	DRUM	9	22	[0, 0, 0]	n/a	FR1	1	R1063C
2216.394	1.6	1537621	WORD	n/a	wordpools/wordpool_EN.txt	STAIR	10	22	[0, 0, 0]	n/a	FR1	1	R1063C
2218.778	1.6	1538813	WORD	n/a	wordpools/wordpool_EN.txt	VEST	11	22	[0, 0, 0]	n/a	FR1	1	R1063C
2221.179	1.6	1540014	WORD	n/a	wordpools/wordpool_EN.txt	TOY	12	22	[0, 0, 0]	n/a	FR1	1	R1063C
2222.796	0.001	1540822	DISTRACT_START	n/a	n/a	n/a	-999	22	[0, 0, 0]	n/a	FR1	1	R1063C
2222.797	0.015	1540823	START	n/a	n/a	n/a	-999	22	[-999, -999, -999]	n/a	FR1	1	R1063C
2222.812	4.668	1540830	PROB	4.643	n/a	n/a	-999	22	[7, 6, 3]	16.0	FR1	1	R1063C
2227.48	4.284	1543164	PROB	4.255	n/a	n/a	-999	22	[9, 7, 7]	24.0	FR1	1	R1063C
2231.764	3.134	1545306	PROB	3.107	n/a	n/a	-999	22	[3, 1, 8]	12.0	FR1	1	R1063C
2234.898	4.334	1546873	PROB	4.301	n/a	n/a	-999	22	[7, 4, 2]	13.0	FR1	1	R1063C
2239.232	2.684	1549039	PROB	2.655	n/a	n/a	-999	22	[2, 1, 9]	12.0	FR1	1	R1063C
2241.916	2.739	1550381	PROB	2.739	n/a	n/a	-999	22	[1, 5, 6]	12.0	FR1	1	R1063C
2244.655	0.01	1551751	STOP	n/a	n/a	n/a	-999	22	[-999, -999, -999]	n/a	FR1	1	R1063C
2244.665	1.036	1551756	DISTRACT_END	n/a	n/a	n/a	-999	22	[0, 0, 0]	n/a	FR1	1	R1063C
2245.701	3.14	1552274	REC_START	n/a	n/a	n/a	-999	22	[0, 0, 0]	n/a	FR1	1	R1063C
2248.841	1.568	1553843	REC_WORD_VV	3.14	n/a	<>	-999	22	[0, 0, 0]	n/a	FR1	1	R1063C
2250.409	1.353	1554627	REC_WORD_VV	4.708	n/a	<>	-999	22	[0, 0, 0]	n/a	FR1	1	R1063C
2251.762	2.08	1555304	REC_WORD	6.061	n/a	LEG	5	22	[0, 0, 0]	n/a	FR1	1	R1063C
2253.842	1.539	1556344	REC_WORD	8.141	n/a	PLATE	-999	22	[0, 0, 0]	n/a	FR1	1	R1063C
2255.381	4.533	1557113	REC_WORD	9.68	n/a	ROSE	2	22	[0, 0, 0]	n/a	FR1	1	R1063C
2259.914	15.797	1559379	REC_WORD_VV	14.213	n/a	<>	-999	22	[0, 0, 0]	n/a	FR1	1	R1063C
2275.711	1.195	1567277	REC_END	n/a	n/a	n/a	-999	22	[0, 0, 0]	n/a	FR1	1	R1063C
2276.906	0.0	1567875	TRIAL	n/a	n/a	n/a	-999	23	[0, 0, 0]	n/a	FR1	1	R1063C
2276.906	10.0	1567875	COUNTDOWN_START	n/a	n/a	n/a	-999	23	[0, 0, 0]	n/a	FR1	1	R1063C
2287.334	0.007	1573088	COUNTDOWN_END	n/a	n/a	n/a	-999	23	[0, 0, 0]	n/a	FR1	1	R1063C
2287.341	1.6	1573092	ORIENT	n/a	n/a	n/a	-999	23	[0, 0, 0]	n/a	FR1	1	R1063C
2289.825	1.6	1574334	WORD	n/a	wordpools/wordpool_EN.txt	WOOD	1	23	[0, 0, 0]	n/a	FR1	1	R1063C
2292.209	1.6	1575526	WORD	n/a	wordpools/wordpool_EN.txt	STOVE	2	23	[0, 0, 0]	n/a	FR1	1	R1063C
2294.676	1.6	1576759	WORD	n/a	wordpools/wordpool_EN.txt	BOX	3	23	[0, 0, 0]	n/a	FR1	1	R1063C
2297.209	1.6	1578025	WORD	n/a	wordpools/wordpool_EN.txt	HAT	4	23	[0, 0, 0]	n/a	FR1	1	R1063C
2299.81	1.6	1579326	WORD	n/a	wordpools/wordpool_EN.txt	DIME	5	23	[0, 0, 0]	n/a	FR1	1	R1063C
2302.227	1.6	1580534	WORD	n/a	wordpools/wordpool_EN.txt	BARN	6	23	[0, 0, 0]	n/a	FR1	1	R1063C
2304.744	1.6	1581793	WORD	n/a	wordpools/wordpool_EN.txt	BOOT	7	23	[0, 0, 0]	n/a	FR1	1	R1063C
2307.345	1.6	1583093	WORD	n/a	wordpools/wordpool_EN.txt	MUG	8	23	[0, 0, 0]	n/a	FR1	1	R1063C
2309.779	1.6	1584310	WORD	n/a	wordpools/wordpool_EN.txt	THUMB	9	23	[0, 0, 0]	n/a	FR1	1	R1063C
2312.196	1.6	1585518	WORD	n/a	wordpools/wordpool_EN.txt	SHIRT	10	23	[0, 0, 0]	n/a	FR1	1	R1063C
2314.596	1.6	1586718	WORD	n/a	wordpools/wordpool_EN.txt	SQUARE	11	23	[0, 0, 0]	n/a	FR1	1	R1063C
2317.097	1.6	1587968	WORD	n/a	wordpools/wordpool_EN.txt	SLIME	12	23	[0, 0, 0]	n/a	FR1	1	R1063C
2318.714	0.001	1588777	DISTRACT_START	n/a	n/a	n/a	-999	23	[0, 0, 0]	n/a	FR1	1	R1063C
2318.715	0.015	1588777	START	n/a	n/a	n/a	-999	23	[-999, -999, -999]	n/a	FR1	1	R1063C
2318.73	3.201	1588785	PROB	3.165	n/a	n/a	-999	23	[7, 1, 8]	16.0	FR1	1	R1063C
2321.931	3.934	1590385	PROB	3.908	n/a	n/a	-999	23	[8, 9, 2]	19.0	FR1	1	R1063C
2325.865	2.817	1592352	PROB	2.79	n/a	n/a	-999	23	[3, 8, 8]	19.0	FR1	1	R1063C
2328.682	3.968	1593760	PROB	3.941	n/a	n/a	-999	23	[7, 2, 1]	10.0	FR1	1	R1063C
2332.65	2.967	1595744	PROB	2.941	n/a	n/a	-999	23	[4, 5, 2]	11.0	FR1	1	R1063C
2335.617	3.142	1597228	PROB	3.142	n/a	n/a	-999	23	[6, 8, 2]	16.0	FR1	1	R1063C
2338.759	0.008	1598799	STOP	n/a	n/a	n/a	-999	23	[-999, -999, -999]	n/a	FR1	1	R1063C
2338.767	1.051	1598803	DISTRACT_END	n/a	n/a	n/a	-999	23	[0, 0, 0]	n/a	FR1	1	R1063C
2339.818	1.574	1599328	REC_START	n/a	n/a	n/a	-999	23	[0, 0, 0]	n/a	FR1	1	R1063C
2341.392	0.674	1600115	REC_WORD	1.574	n/a	WOOD	1	23	[0, 0, 0]	n/a	FR1	1	R1063C
2342.066	0.492	1600452	REC_WORD	2.248	n/a	HAT	4	23	[0, 0, 0]	n/a	FR1	1	R1063C
2342.558	1.107	1600698	REC_WORD	2.74	n/a	STOVE	2	23	[0, 0, 0]	n/a	FR1	1	R1063C
2343.665	0.555	1601251	REC_WORD	3.847	n/a	DIME	5	23	[0, 0, 0]	n/a	FR1	1	R1063C
2344.22	22.259	1601529	REC_WORD	4.402	n/a	BOOT	7	23	[0, 0, 0]	n/a	FR1	1	R1063C
2366.479	1.0	1612657	REC_WORD_VV	26.661	n/a	<>	-999	23	[0, 0, 0]	n/a	FR1	1	R1063C
2367.479	2.353	1613157	REC_WORD_VV	27.661	n/a	<>	-999	23	[0, 0, 0]	n/a	FR1	1	R1063C
2369.832	1.425	1614334	REC_END	n/a	n/a	n/a	-999	23	[0, 0, 0]	n/a	FR1	1	R1063C
2371.257	0.0	1615046	TRIAL	n/a	n/a	n/a	-999	24	[0, 0, 0]	n/a	FR1	1	R1063C
2371.257	10.0	1615046	COUNTDOWN_START	n/a	n/a	n/a	-999	24	[0, 0, 0]	n/a	FR1	1	R1063C
2381.685	0.007	1620260	COUNTDOWN_END	n/a	n/a	n/a	-999	24	[0, 0, 0]	n/a	FR1	1	R1063C
2381.692	1.6	1620263	ORIENT	n/a	n/a	n/a	-999	24	[0, 0, 0]	n/a	FR1	1	R1063C
2384.209	1.6	1621522	WORD	n/a	wordpools/wordpool_EN.txt	ROOM	1	24	[0, 0, 0]	n/a	FR1	1	R1063C
2386.61	1.6	1622722	WORD	n/a	wordpools/wordpool_EN.txt	FOOT	2	24	[0, 0, 0]	n/a	FR1	1	R1063C
2389.027	1.6	1623930	WORD	n/a	wordpools/wordpool_EN.txt	JEEP	3	24	[0, 0, 0]	n/a	FR1	1	R1063C
2391.561	1.6	1625197	WORD	n/a	wordpools/wordpool_EN.txt	HOSE	4	24	[0, 0, 0]	n/a	FR1	1	R1063C
2394.145	1.6	1626489	WORD	n/a	wordpools/wordpool_EN.txt	SPEAR	5	24	[0, 0, 0]	n/a	FR1	1	R1063C
2396.712	1.6	1627773	WORD	n/a	wordpools/wordpool_EN.txt	FACE	6	24	[0, 0, 0]	n/a	FR1	1	R1063C
2399.329	1.6	1629081	WORD	n/a	wordpools/wordpool_EN.txt	HILL	7	24	[0, 0, 0]	n/a	FR1	1	R1063C
2401.763	1.6	1630298	WORD	n/a	wordpools/wordpool_EN.txt	SEAT	8	24	[0, 0, 0]	n/a	FR1	1	R1063C
2404.163	1.6	1631498	WORD	n/a	wordpools/wordpool_EN.txt	PARK	9	24	[0, 0, 0]	n/a	FR1	1	R1063C
2406.68	1.6	1632756	WORD	n/a	wordpools/wordpool_EN.txt	OAK	10	24	[0, 0, 0]	n/a	FR1	1	R1063C
2409.081	1.6	1633956	WORD	n/a	wordpools/wordpool_EN.txt	TANK	11	24	[0, 0, 0]	n/a	FR1	1	R1063C
2411.564	1.6	1635198	WORD	n/a	wordpools/wordpool_EN.txt	PEA	12	24	[0, 0, 0]	n/a	FR1	1	R1063C
2413.182	0.0	1636007	DISTRACT_START	n/a	n/a	n/a	-999	24	[0, 0, 0]	n/a	FR1	1	R1063C
2413.182	0.016	1636007	START	n/a	n/a	n/a	-999	24	[-999, -999, -999]	n/a	FR1	1	R1063C
2413.198	3.117	1636015	PROB	3.097	n/a	n/a	-999	24	[6, 5, 3]	14.0	FR1	1	R1063C
2416.315	2.484	1637573	PROB	2.452	n/a	n/a	-999	24	[9, 6, 7]	22.0	FR1	1	R1063C
2418.799	1.917	1638815	PROB	1.896	n/a	n/a	-999	24	[2, 2, 2]	6.0	FR1	1	R1063C
2420.716	2.284	1639773	PROB	2.259	n/a	n/a	-999	24	[6, 8, 8]	21.0	FR1	1	R1063C
2423.0	5.318	1640915	PROB	5.287	n/a	n/a	-999	24	[7, 8, 3]	18.0	FR1	1	R1063C
2428.318	2.267	1643574	PROB	2.233	n/a	n/a	-999	24	[2, 7, 7]	16.0	FR1	1	R1063C
2430.585	6.766	1644708	PROB	6.766	n/a	n/a	-999	24	[4, 9, 1]	14.0	FR1	1	R1063C
2437.351	0.018	1648090	STOP	n/a	n/a	n/a	-999	24	[-999, -999, -999]	n/a	FR1	1	R1063C
2437.369	1.184	1648099	DISTRACT_END	n/a	n/a	n/a	-999	24	[0, 0, 0]	n/a	FR1	1	R1063C
2438.553	1.05	1648691	REC_START	n/a	n/a	n/a	-999	24	[0, 0, 0]	n/a	FR1	1	R1063C
2439.603	0.865	1649216	REC_WORD	1.05	n/a	FOOT	2	24	[0, 0, 0]	n/a	FR1	1	R1063C
2440.468	0.601	1649649	REC_WORD	1.915	n/a	JEEP	3	24	[0, 0, 0]	n/a	FR1	1	R1063C
2441.069	0.313	1649949	REC_WORD	2.516	n/a	HOSE	4	24	[0, 0, 0]	n/a	FR1	1	R1063C
2441.382	9.762	1650106	REC_WORD	2.829	n/a	SPEAR	5	24	[0, 0, 0]	n/a	FR1	1	R1063C
2451.144	1.0	1654986	REC_WORD_VV	12.591	n/a	<>	-999	24	[0, 0, 0]	n/a	FR1	1	R1063C
2452.144	11.855	1655486	REC_WORD_VV	13.591	n/a	<>	-999	24	[0, 0, 0]	n/a	FR1	1	R1063C
2463.999	4.568	1661413	REC_WORD	25.446	n/a	PEAR	-999	24	[0, 0, 0]	n/a	FR1	1	R1063C
2468.567	1.225	1663697	REC_END	n/a	n/a	n/a	-999	24	[0, 0, 0]	n/a	FR1	1	R1063C
2469.792	0.0	1664309	TRIAL	n/a	n/a	n/a	-999	25	[0, 0, 0]	n/a	FR1	1	R1063C
2469.792	10.0	1664309	COUNTDOWN_START	n/a	n/a	n/a	-999	25	[0, 0, 0]	n/a	FR1	1	R1063C
2480.22	0.007	1669523	COUNTDOWN_END	n/a	n/a	n/a	-999	25	[0, 0, 0]	n/a	FR1	1	R1063C
2480.227	1.6	1669526	ORIENT	n/a	n/a	n/a	-999	25	[0, 0, 0]	n/a	FR1	1	R1063C
2482.794	1.6	1670810	WORD	n/a	wordpools/wordpool_EN.txt	LAND	1	25	[0, 0, 0]	n/a	FR1	1	R1063C
2485.345	1.6	1672085	WORD	n/a	wordpools/wordpool_EN.txt	MAP	2	25	[0, 0, 0]	n/a	FR1	1	R1063C
2487.912	1.6	1673369	WORD	n/a	wordpools/wordpool_EN.txt	SPARK	3	25	[0, 0, 0]	n/a	FR1	1	R1063C
2490.313	1.6	1674569	WORD	n/a	wordpools/wordpool_EN.txt	WORLD	4	25	[0, 0, 0]	n/a	FR1	1	R1063C
2492.846	1.6	1675835	WORD	n/a	wordpools/wordpool_EN.txt	MOTH	5	25	[0, 0, 0]	n/a	FR1	1	R1063C
2495.464	1.6	1677144	WORD	n/a	wordpools/wordpool_EN.txt	SHEEP	6	25	[0, 0, 0]	n/a	FR1	1	R1063C
2497.864	1.6	1678344	WORD	n/a	wordpools/wordpool_EN.txt	CHIEF	7	25	[0, 0, 0]	n/a	FR1	1	R1063C
2500.448	1.6	1679636	WORD	n/a	wordpools/wordpool_EN.txt	POND	8	25	[0, 0, 0]	n/a	FR1	1	R1063C
2503.015	1.6	1680919	WORD	n/a	wordpools/wordpool_EN.txt	STEM	9	25	[0, 0, 0]	n/a	FR1	1	R1063C
2505.549	1.6	1682186	WORD	n/a	wordpools/wordpool_EN.txt	CORN	10	25	[0, 0, 0]	n/a	FR1	1	R1063C
2508.083	1.6	1683453	WORD	n/a	wordpools/wordpool_EN.txt	THREAD	11	25	[0, 0, 0]	n/a	FR1	1	R1063C
2510.683	1.6	1684753	WORD	n/a	wordpools/wordpool_EN.txt	SEED	12	25	[0, 0, 0]	n/a	FR1	1	R1063C
2512.3	0.001	1685562	DISTRACT_START	n/a	n/a	n/a	-999	25	[0, 0, 0]	n/a	FR1	1	R1063C
2512.301	0.016	1685562	START	n/a	n/a	n/a	-999	25	[-999, -999, -999]	n/a	FR1	1	R1063C
2512.317	5.334	1685570	PROB	5.298	n/a	n/a	-999	25	[8, 2, 9]	19.0	FR1	1	R1063C
2517.651	4.668	1688237	PROB	4.644	n/a	n/a	-999	25	[9, 3, 7]	19.0	FR1	1	R1063C
2522.319	4.217	1690571	PROB	4.184	n/a	n/a	-999	25	[7, 6, 1]	14.0	FR1	1	R1063C
2526.536	4.218	1692679	PROB	4.183	n/a	n/a	-999	25	[4, 6, 7]	17.0	FR1	1	R1063C
2530.754	3.173	1694788	PROB	3.173	n/a	n/a	-999	25	[8, 6, 6]	20.0	FR1	1	R1063C
2533.927	0.011	1696374	STOP	n/a	n/a	n/a	-999	25	[-999, -999, -999]	n/a	FR1	1	R1063C
2533.938	1.184	1696380	DISTRACT_END	n/a	n/a	n/a	-999	25	[0, 0, 0]	n/a	FR1	1	R1063C
2535.122	1.808	1696972	REC_START	n/a	n/a	n/a	-999	25	[0, 0, 0]	n/a	FR1	1	R1063C
2536.93	2.535	1697875	REC_WORD	1.808	n/a	LAND	1	25	[0, 0, 0]	n/a	FR1	1	R1063C
2539.465	3.063	1699143	REC_WORD_VV	4.343	n/a	<>	-999	25	[0, 0, 0]	n/a	FR1	1	R1063C
2542.528	6.915	1700674	REC_WORD_VV	7.406	n/a	<>	-999	25	[0, 0, 0]	n/a	FR1	1	R1063C
2549.443	5.12	1704131	REC_WORD_VV	14.321	n/a	<>	-999	25	[0, 0, 0]	n/a	FR1	1	R1063C
2554.563	10.569	1706691	REC_WORD_VV	19.441	n/a	<>	-999	25	[0, 0, 0]	n/a	FR1	1	R1063C
2565.132	3.295	1711975	REC_END	n/a	n/a	n/a	-999	25	[0, 0, 0]	n/a	FR1	1	R1063C
2568.427	0.0	1713623	SESS_END	n/a	n/a	n/a	-999	25	[0, 0, 0]	n/a	FR1	1	R1063C
