onset	duration	sample	trial_type	response_time	stim_file	item_name	serialpos	list	test	answer	experiment	session	subject
0.0	35.848	173498	SESS_START	n/a	n/a	n/a	-999	-999	[0, 0, 0]	n/a	FR1	1	R1125T
35.848	10.0	209344	COUNTDOWN_START	n/a	n/a	n/a	-999	-999	[0, 0, 0]	n/a	FR1	1	R1125T
46.276	3.691	219771	COUNTDOWN_END	n/a	n/a	n/a	-999	-999	[0, 0, 0]	n/a	FR1	1	R1125T
49.967	1.6	223462	PRACTICE_WORD	n/a	n/a	FLOOD	1	-1	[0, 0, 0]	n/a	FR1	1	R1125T
52.518	1.6	226013	PRACTICE_WORD	n/a	n/a	CAMEL	2	-1	[0, 0, 0]	n/a	FR1	1	R1125T
55.135	1.6	228630	PRACTICE_WORD	n/a	n/a	TONGUE	3	-1	[0, 0, 0]	n/a	FR1	1	R1125T
57.553	1.6	231048	PRACTICE_WORD	n/a	n/a	CHEST	4	-1	[0, 0, 0]	n/a	FR1	1	R1125T
60.002	1.6	233497	PRACTICE_WORD	n/a	n/a	WATCH	5	-1	[0, 0, 0]	n/a	FR1	1	R1125T
62.603	1.6	236098	PRACTICE_WORD	n/a	n/a	ATTIC	6	-1	[0, 0, 0]	n/a	FR1	1	R1125T
65.087	1.6	238581	PRACTICE_WORD	n/a	n/a	RING	7	-1	[0, 0, 0]	n/a	FR1	1	R1125T
67.72	1.6	241214	PRACTICE_WORD	n/a	n/a	BEAM	8	-1	[0, 0, 0]	n/a	FR1	1	R1125T
70.172	1.6	243666	PRACTICE_WORD	n/a	n/a	COTTON	9	-1	[0, 0, 0]	n/a	FR1	1	R1125T
72.721	1.6	246215	PRACTICE_WORD	n/a	n/a	WAGON	10	-1	[0, 0, 0]	n/a	FR1	1	R1125T
75.139	1.6	248633	PRACTICE_WORD	n/a	n/a	IRON	11	-1	[0, 0, 0]	n/a	FR1	1	R1125T
77.573	1.6	251067	PRACTICE_WORD	n/a	n/a	RHINO	12	-1	[0, 0, 0]	n/a	FR1	1	R1125T
79.19	0.0	252684	PRACTICE_DISTRACT_START	n/a	n/a	n/a	-999	-1	[0, 0, 0]	n/a	FR1	1	R1125T
79.19	0.017	252684	START	n/a	n/a	n/a	-999	-1	[-999, -999, -999]	n/a	FR1	1	R1125T
79.207	7.934	252701	PROB	7.909	n/a	n/a	-999	-1	[7, 7, 6]	20.0	FR1	1	R1125T
87.141	6.101	260634	PROB	6.079	n/a	n/a	-999	-1	[1, 4, 4]	9.0	FR1	1	R1125T
93.242	6.977	266735	PROB	6.977	n/a	n/a	-999	-1	[2, 8, 9]	19.0	FR1	1	R1125T
100.219	0.008	273712	STOP	n/a	n/a	n/a	-999	-1	[-999, -999, -999]	n/a	FR1	1	R1125T
100.227	0.551	273720	PRACTICE_DISTRACT_END	n/a	n/a	n/a	-999	-1	[0, 0, 0]	n/a	FR1	1	R1125T
100.778	30.516	274271	PRACTICE_REC_START	n/a	n/a	n/a	-999	-1	[0, 0, 0]	n/a	FR1	1	R1125T
131.294	10.74	304785	PRACTICE_REC_END	n/a	n/a	n/a	-999	-1	[0, 0, 0]	n/a	FR1	1	R1125T
142.034	10.0	315525	COUNTDOWN_START	n/a	n/a	n/a	-999	1	[0, 0, 0]	n/a	FR1	1	R1125T
142.034	10.428	315525	TRIAL	n/a	n/a	n/a	-999	1	[0, 0, 0]	n/a	FR1	1	R1125T
152.462	0.008	325952	COUNTDOWN_END	n/a	n/a	n/a	-999	1	[0, 0, 0]	n/a	FR1	1	R1125T
152.47	1.6	325960	ORIENT	n/a	n/a	n/a	-999	1	[0, 0, 0]	n/a	FR1	1	R1125T
154.919	1.6	328409	WORD	n/a	wordpools/wordpool_EN.txt	SCHOOL	1	1	[0, 0, 0]	n/a	FR1	1	R1125T
157.421	1.6	330911	WORD	n/a	wordpools/wordpool_EN.txt	DRESS	2	1	[0, 0, 0]	n/a	FR1	1	R1125T
159.804	1.6	333294	WORD	n/a	wordpools/wordpool_EN.txt	HORN	3	1	[0, 0, 0]	n/a	FR1	1	R1125T
162.272	1.6	335762	WORD	n/a	wordpools/wordpool_EN.txt	ROOF	4	1	[0, 0, 0]	n/a	FR1	1	R1125T
164.871	1.6	338360	WORD	n/a	wordpools/wordpool_EN.txt	STREET	5	1	[0, 0, 0]	n/a	FR1	1	R1125T
167.256	1.6	340745	WORD	n/a	wordpools/wordpool_EN.txt	SLEEVE	6	1	[0, 0, 0]	n/a	FR1	1	R1125T
169.689	1.6	343178	WORD	n/a	wordpools/wordpool_EN.txt	DART	7	1	[0, 0, 0]	n/a	FR1	1	R1125T
172.173	1.6	345662	WORD	n/a	wordpools/wordpool_EN.txt	THUMB	8	1	[0, 0, 0]	n/a	FR1	1	R1125T
174.79	1.6	348279	WORD	n/a	wordpools/wordpool_EN.txt	PEN	9	1	[0, 0, 0]	n/a	FR1	1	R1125T
177.341	1.6	350830	WORD	n/a	wordpools/wordpool_EN.txt	VEST	10	1	[0, 0, 0]	n/a	FR1	1	R1125T
179.824	1.6	353313	WORD	n/a	wordpools/wordpool_EN.txt	STICK	11	1	[0, 0, 0]	n/a	FR1	1	R1125T
182.409	1.6	355898	WORD	n/a	wordpools/wordpool_EN.txt	PURSE	12	1	[0, 0, 0]	n/a	FR1	1	R1125T
184.025	0.0	357514	DISTRACT_START	n/a	n/a	n/a	-999	1	[0, 0, 0]	n/a	FR1	1	R1125T
184.025	0.016	357514	START	n/a	n/a	n/a	-999	1	[-999, -999, -999]	n/a	FR1	1	R1125T
184.041	7.419	357530	PROB	7.387	n/a	n/a	-999	1	[9, 2, 7]	18.0	FR1	1	R1125T
191.46	7.501	364948	PROB	7.47	n/a	n/a	-999	1	[2, 9, 2]	13.0	FR1	1	R1125T
198.961	7.858	372449	PROB	7.858	n/a	n/a	-999	1	[6, 7, 2]	15.0	FR1	1	R1125T
206.819	0.01	380306	STOP	n/a	n/a	n/a	-999	1	[-999, -999, -999]	n/a	FR1	1	R1125T
206.829	1.037	380316	DISTRACT_END	n/a	n/a	n/a	-999	1	[0, 0, 0]	n/a	FR1	1	R1125T
207.866	1.169	381353	REC_START	n/a	n/a	n/a	-999	1	[0, 0, 0]	n/a	FR1	1	R1125T
209.035	3.053	382522	REC_WORD	1.169	n/a	SCHOOL	-999	1	[0, 0, 0]	n/a	FR1	1	R1125T
212.088	1.776	385575	REC_WORD	4.222	n/a	INTRUSION	-999	1	[0, 0, 0]	n/a	FR1	1	R1125T
213.864	3.576	387351	REC_WORD	5.998	n/a	CHEST	-999	1	[0, 0, 0]	n/a	FR1	1	R1125T
217.44	3.858	390927	REC_WORD	9.574	n/a	PURSE	-999	1	[0, 0, 0]	n/a	FR1	1	R1125T
221.298	5.772	394785	REC_WORD	13.432	n/a	DART	-999	1	[0, 0, 0]	n/a	FR1	1	R1125T
227.07	9.824	400556	REC_WORD	19.204	n/a	STREET	-999	1	[0, 0, 0]	n/a	FR1	1	R1125T
236.894	0.979	410380	REC_WORD	29.028	n/a	PEN	-999	1	[0, 0, 0]	n/a	FR1	1	R1125T
237.873	2.912	411359	REC_END	n/a	n/a	n/a	-999	1	[0, 0, 0]	n/a	FR1	1	R1125T
240.785	0.0	414271	TRIAL	n/a	n/a	n/a	-999	2	[0, 0, 0]	n/a	FR1	1	R1125T
240.785	10.0	414271	COUNTDOWN_START	n/a	n/a	n/a	-999	2	[0, 0, 0]	n/a	FR1	1	R1125T
251.213	0.008	424698	COUNTDOWN_END	n/a	n/a	n/a	-999	2	[0, 0, 0]	n/a	FR1	1	R1125T
251.221	1.6	424706	ORIENT	n/a	n/a	n/a	-999	2	[0, 0, 0]	n/a	FR1	1	R1125T
253.787	1.6	427272	WORD	n/a	wordpools/wordpool_EN.txt	STEM	1	2	[0, 0, 0]	n/a	FR1	1	R1125T
256.289	1.6	429774	WORD	n/a	wordpools/wordpool_EN.txt	WALL	2	2	[0, 0, 0]	n/a	FR1	1	R1125T
258.671	1.6	432156	WORD	n/a	wordpools/wordpool_EN.txt	GRASS	3	2	[0, 0, 0]	n/a	FR1	1	R1125T
261.055	1.6	434540	WORD	n/a	wordpools/wordpool_EN.txt	WEED	4	2	[0, 0, 0]	n/a	FR1	1	R1125T
263.573	1.6	437058	WORD	n/a	wordpools/wordpool_EN.txt	SPONGE	5	2	[0, 0, 0]	n/a	FR1	1	R1125T
266.074	1.6	439558	WORD	n/a	wordpools/wordpool_EN.txt	SHELL	6	2	[0, 0, 0]	n/a	FR1	1	R1125T
268.491	1.6	441975	WORD	n/a	wordpools/wordpool_EN.txt	COIN	7	2	[0, 0, 0]	n/a	FR1	1	R1125T
271.108	1.6	444592	WORD	n/a	wordpools/wordpool_EN.txt	MAT	8	2	[0, 0, 0]	n/a	FR1	1	R1125T
273.724	1.6	447208	WORD	n/a	wordpools/wordpool_EN.txt	LEAF	9	2	[0, 0, 0]	n/a	FR1	1	R1125T
276.176	1.6	449660	WORD	n/a	wordpools/wordpool_EN.txt	ROOT	10	2	[0, 0, 0]	n/a	FR1	1	R1125T
278.792	1.6	452276	WORD	n/a	wordpools/wordpool_EN.txt	SNAIL	11	2	[0, 0, 0]	n/a	FR1	1	R1125T
281.193	1.6	454677	WORD	n/a	wordpools/wordpool_EN.txt	WORM	12	2	[0, 0, 0]	n/a	FR1	1	R1125T
282.809	0.001	456293	DISTRACT_START	n/a	n/a	n/a	-999	2	[0, 0, 0]	n/a	FR1	1	R1125T
282.81	0.016	456294	START	n/a	n/a	n/a	-999	2	[-999, -999, -999]	n/a	FR1	1	R1125T
282.826	5.918	456310	PROB	5.896	n/a	n/a	-999	2	[3, 2, 3]	8.0	FR1	1	R1125T
288.744	5.835	462227	PROB	5.804	n/a	n/a	-999	2	[8, 2, 8]	18.0	FR1	1	R1125T
294.579	6.001	468062	PROB	5.969	n/a	n/a	-999	2	[3, 4, 2]	9.0	FR1	1	R1125T
300.58	4.967	474063	PROB	4.967	n/a	n/a	-999	2	[5, 3, 1]	9.0	FR1	1	R1125T
305.547	0.017	479030	STOP	n/a	n/a	n/a	-999	2	[-999, -999, -999]	n/a	FR1	1	R1125T
305.564	1.2	479047	DISTRACT_END	n/a	n/a	n/a	-999	2	[0, 0, 0]	n/a	FR1	1	R1125T
306.764	0.59	480246	REC_START	n/a	n/a	n/a	-999	2	[0, 0, 0]	n/a	FR1	1	R1125T
307.354	4.903	480836	REC_WORD	0.59	n/a	SHELL	-999	2	[0, 0, 0]	n/a	FR1	1	R1125T
312.257	12.023	485739	REC_WORD	5.493	n/a	BEAN	-999	2	[0, 0, 0]	n/a	FR1	1	R1125T
324.28	2.976	497762	REC_WORD	17.516	n/a	FOOT	-999	2	[0, 0, 0]	n/a	FR1	1	R1125T
327.256	6.101	500737	REC_WORD	20.492	n/a	NAIL	-999	2	[0, 0, 0]	n/a	FR1	1	R1125T
333.357	3.417	506838	REC_WORD	26.593	n/a	WALL	-999	2	[0, 0, 0]	n/a	FR1	1	R1125T
336.774	2.313	510255	REC_END	n/a	n/a	n/a	-999	2	[0, 0, 0]	n/a	FR1	1	R1125T
339.087	0.0	512568	TRIAL	n/a	n/a	n/a	-999	3	[0, 0, 0]	n/a	FR1	1	R1125T
339.087	10.0	512568	COUNTDOWN_START	n/a	n/a	n/a	-999	3	[0, 0, 0]	n/a	FR1	1	R1125T
349.515	0.007	522995	COUNTDOWN_END	n/a	n/a	n/a	-999	3	[0, 0, 0]	n/a	FR1	1	R1125T
349.522	1.6	523002	ORIENT	n/a	n/a	n/a	-999	3	[0, 0, 0]	n/a	FR1	1	R1125T
352.038	1.6	525518	WORD	n/a	wordpools/wordpool_EN.txt	DITCH	1	3	[0, 0, 0]	n/a	FR1	1	R1125T
354.507	1.6	527987	WORD	n/a	wordpools/wordpool_EN.txt	CHIN	2	3	[0, 0, 0]	n/a	FR1	1	R1125T
357.023	1.6	530503	WORD	n/a	wordpools/wordpool_EN.txt	BRIDGE	3	3	[0, 0, 0]	n/a	FR1	1	R1125T
359.623	1.6	533103	WORD	n/a	wordpools/wordpool_EN.txt	TRUCK	4	3	[0, 0, 0]	n/a	FR1	1	R1125T
362.225	1.6	535705	WORD	n/a	wordpools/wordpool_EN.txt	SMOKE	5	3	[0, 0, 0]	n/a	FR1	1	R1125T
364.824	1.6	538304	WORD	n/a	wordpools/wordpool_EN.txt	STEAM	6	3	[0, 0, 0]	n/a	FR1	1	R1125T
367.376	1.6	540855	WORD	n/a	wordpools/wordpool_EN.txt	SLIME	7	3	[0, 0, 0]	n/a	FR1	1	R1125T
369.775	1.6	543254	WORD	n/a	wordpools/wordpool_EN.txt	SHOE	8	3	[0, 0, 0]	n/a	FR1	1	R1125T
372.293	1.6	545772	WORD	n/a	wordpools/wordpool_EN.txt	BUSH	9	3	[0, 0, 0]	n/a	FR1	1	R1125T
374.909	1.6	548388	WORD	n/a	wordpools/wordpool_EN.txt	BARN	10	3	[0, 0, 0]	n/a	FR1	1	R1125T
377.311	1.6	550790	WORD	n/a	wordpools/wordpool_EN.txt	ROAD	11	3	[0, 0, 0]	n/a	FR1	1	R1125T
379.91	1.6	553389	WORD	n/a	wordpools/wordpool_EN.txt	FORK	12	3	[0, 0, 0]	n/a	FR1	1	R1125T
381.511	0.001	554990	DISTRACT_START	n/a	n/a	n/a	-999	3	[0, 0, 0]	n/a	FR1	1	R1125T
381.512	0.016	554991	START	n/a	n/a	n/a	-999	3	[-999, -999, -999]	n/a	FR1	1	R1125T
381.528	5.868	555007	PROB	5.843	n/a	n/a	-999	3	[3, 1, 8]	12.0	FR1	1	R1125T
387.396	4.901	560874	PROB	4.871	n/a	n/a	-999	3	[5, 2, 2]	9.0	FR1	1	R1125T
392.297	10.795	565775	PROB	10.795	n/a	n/a	-999	3	[9, 4, 8]	21.0	FR1	1	R1125T
403.092	0.007	576570	STOP	n/a	n/a	n/a	-999	3	[-999, -999, -999]	n/a	FR1	1	R1125T
403.099	1.051	576577	DISTRACT_END	n/a	n/a	n/a	-999	3	[0, 0, 0]	n/a	FR1	1	R1125T
404.15	1.243	577628	REC_START	n/a	n/a	n/a	-999	3	[0, 0, 0]	n/a	FR1	1	R1125T
405.393	1.964	578871	REC_WORD	1.243	n/a	TRUCK	-999	3	[0, 0, 0]	n/a	FR1	1	R1125T
407.357	3.337	580834	REC_WORD	3.207	n/a	ROAD	-999	3	[0, 0, 0]	n/a	FR1	1	R1125T
410.694	12.72	584171	REC_WORD	6.544	n/a	FORK	-999	3	[0, 0, 0]	n/a	FR1	1	R1125T
423.414	8.337	596891	REC_WORD	19.264	n/a	ROAD	-999	3	[0, 0, 0]	n/a	FR1	1	R1125T
431.751	2.42	605227	REC_WORD	27.601	n/a	WALL	-999	3	[0, 0, 0]	n/a	FR1	1	R1125T
434.171	2.317	607647	REC_END	n/a	n/a	n/a	-999	3	[0, 0, 0]	n/a	FR1	1	R1125T
436.488	10.0	609964	COUNTDOWN_START	n/a	n/a	n/a	-999	4	[0, 0, 0]	n/a	FR1	1	R1125T
436.489	10.427	609965	TRIAL	n/a	n/a	n/a	-999	4	[0, 0, 0]	n/a	FR1	1	R1125T
446.916	0.006	620392	COUNTDOWN_END	n/a	n/a	n/a	-999	4	[0, 0, 0]	n/a	FR1	1	R1125T
446.922	1.6	620398	ORIENT	n/a	n/a	n/a	-999	4	[0, 0, 0]	n/a	FR1	1	R1125T
449.407	1.6	622882	WORD	n/a	wordpools/wordpool_EN.txt	BADGE	1	4	[0, 0, 0]	n/a	FR1	1	R1125T
451.84	1.6	625315	WORD	n/a	wordpools/wordpool_EN.txt	BAND	2	4	[0, 0, 0]	n/a	FR1	1	R1125T
454.425	1.6	627900	WORD	n/a	wordpools/wordpool_EN.txt	DOLL	3	4	[0, 0, 0]	n/a	FR1	1	R1125T
456.991	1.6	630466	WORD	n/a	wordpools/wordpool_EN.txt	HOSE	4	4	[0, 0, 0]	n/a	FR1	1	R1125T
459.426	1.6	632901	WORD	n/a	wordpools/wordpool_EN.txt	PANTS	5	4	[0, 0, 0]	n/a	FR1	1	R1125T
461.858	1.6	635333	WORD	n/a	wordpools/wordpool_EN.txt	ROOM	6	4	[0, 0, 0]	n/a	FR1	1	R1125T
464.443	1.6	637918	WORD	n/a	wordpools/wordpool_EN.txt	RUG	7	4	[0, 0, 0]	n/a	FR1	1	R1125T
466.926	1.6	640401	WORD	n/a	wordpools/wordpool_EN.txt	HOOF	8	4	[0, 0, 0]	n/a	FR1	1	R1125T
469.494	1.6	642968	WORD	n/a	wordpools/wordpool_EN.txt	WAVE	9	4	[0, 0, 0]	n/a	FR1	1	R1125T
471.91	1.6	645384	WORD	n/a	wordpools/wordpool_EN.txt	HILL	10	4	[0, 0, 0]	n/a	FR1	1	R1125T
474.345	1.6	647819	WORD	n/a	wordpools/wordpool_EN.txt	SHIELD	11	4	[0, 0, 0]	n/a	FR1	1	R1125T
476.911	1.6	650385	WORD	n/a	wordpools/wordpool_EN.txt	LAKE	12	4	[0, 0, 0]	n/a	FR1	1	R1125T
478.512	0.001	651986	DISTRACT_START	n/a	n/a	n/a	-999	4	[0, 0, 0]	n/a	FR1	1	R1125T
478.513	0.016	651987	START	n/a	n/a	n/a	-999	4	[-999, -999, -999]	n/a	FR1	1	R1125T
478.529	5.367	652003	PROB	5.345	n/a	n/a	-999	4	[2, 7, 2]	11.0	FR1	1	R1125T
483.896	6.968	657370	PROB	6.946	n/a	n/a	-999	4	[6, 8, 1]	15.0	FR1	1	R1125T
490.864	5.552	664337	PROB	5.523	n/a	n/a	-999	4	[7, 9, 3]	19.0	FR1	1	R1125T
496.416	10.514	669889	PROB	10.514	n/a	n/a	-999	4	[9, 3, 9]	21.0	FR1	1	R1125T
506.93	0.02	680403	STOP	n/a	n/a	n/a	-999	4	[-999, -999, -999]	n/a	FR1	1	R1125T
506.95	1.135	680423	DISTRACT_END	n/a	n/a	n/a	-999	4	[0, 0, 0]	n/a	FR1	1	R1125T
508.085	0.915	681558	REC_START	n/a	n/a	n/a	-999	4	[0, 0, 0]	n/a	FR1	1	R1125T
509.0	2.026	682472	REC_WORD	0.915	n/a	ROOM	-999	4	[0, 0, 0]	n/a	FR1	1	R1125T
511.026	2.176	684498	REC_WORD	2.941	n/a	CLOTH	-999	4	[0, 0, 0]	n/a	FR1	1	R1125T
513.202	2.105	686674	REC_WORD	5.117	n/a	WALL	-999	4	[0, 0, 0]	n/a	FR1	1	R1125T
515.307	5.635	688779	REC_WORD	7.222	n/a	BADGE	-999	4	[0, 0, 0]	n/a	FR1	1	R1125T
520.942	3.093	694414	REC_WORD	12.857	n/a	FALL	-999	4	[0, 0, 0]	n/a	FR1	1	R1125T
524.035	11.146	697507	REC_WORD	15.95	n/a	WAVE	-999	4	[0, 0, 0]	n/a	FR1	1	R1125T
535.181	2.915	708652	REC_WORD	27.096	n/a	BADGE	-999	4	[0, 0, 0]	n/a	FR1	1	R1125T
538.096	1.978	711567	REC_END	n/a	n/a	n/a	-999	4	[0, 0, 0]	n/a	FR1	1	R1125T
540.074	0.0	713545	TRIAL	n/a	n/a	n/a	-999	5	[0, 0, 0]	n/a	FR1	1	R1125T
540.074	10.0	713545	COUNTDOWN_START	n/a	n/a	n/a	-999	5	[0, 0, 0]	n/a	FR1	1	R1125T
550.502	0.007	723972	COUNTDOWN_END	n/a	n/a	n/a	-999	5	[0, 0, 0]	n/a	FR1	1	R1125T
550.509	1.6	723979	ORIENT	n/a	n/a	n/a	-999	5	[0, 0, 0]	n/a	FR1	1	R1125T
552.908	1.6	726378	WORD	n/a	wordpools/wordpool_EN.txt	HAT	1	5	[0, 0, 0]	n/a	FR1	1	R1125T
555.476	1.6	728946	WORD	n/a	wordpools/wordpool_EN.txt	BATH	2	5	[0, 0, 0]	n/a	FR1	1	R1125T
558.026	1.6	731496	WORD	n/a	wordpools/wordpool_EN.txt	COW	3	5	[0, 0, 0]	n/a	FR1	1	R1125T
560.577	1.6	734047	WORD	n/a	wordpools/wordpool_EN.txt	GATE	4	5	[0, 0, 0]	n/a	FR1	1	R1125T
563.144	1.6	736614	WORD	n/a	wordpools/wordpool_EN.txt	MUD	5	5	[0, 0, 0]	n/a	FR1	1	R1125T
565.727	1.6	739197	WORD	n/a	wordpools/wordpool_EN.txt	DIME	6	5	[0, 0, 0]	n/a	FR1	1	R1125T
568.295	1.6	741765	WORD	n/a	wordpools/wordpool_EN.txt	MOOSE	7	5	[0, 0, 0]	n/a	FR1	1	R1125T
570.811	1.6	744280	WORD	n/a	wordpools/wordpool_EN.txt	SPRING	8	5	[0, 0, 0]	n/a	FR1	1	R1125T
573.38	1.6	746849	WORD	n/a	wordpools/wordpool_EN.txt	FACE	9	5	[0, 0, 0]	n/a	FR1	1	R1125T
575.762	1.6	749231	WORD	n/a	wordpools/wordpool_EN.txt	GOAT	10	5	[0, 0, 0]	n/a	FR1	1	R1125T
578.197	1.6	751666	WORD	n/a	wordpools/wordpool_EN.txt	SINK	11	5	[0, 0, 0]	n/a	FR1	1	R1125T
580.813	1.6	754282	WORD	n/a	wordpools/wordpool_EN.txt	TEA	12	5	[0, 0, 0]	n/a	FR1	1	R1125T
582.414	0.001	755883	DISTRACT_START	n/a	n/a	n/a	-999	5	[0, 0, 0]	n/a	FR1	1	R1125T
582.415	0.016	755884	START	n/a	n/a	n/a	-999	5	[-999, -999, -999]	n/a	FR1	1	R1125T
582.431	7.2	755900	PROB	7.181	n/a	n/a	-999	5	[3, 2, 9]	14.0	FR1	1	R1125T
589.631	7.953	763099	PROB	7.917	n/a	n/a	-999	5	[8, 6, 3]	17.0	FR1	1	R1125T
597.584	6.475	771052	PROB	6.475	n/a	n/a	-999	5	[3, 4, 5]	12.0	FR1	1	R1125T
604.059	0.009	777527	STOP	n/a	n/a	n/a	-999	5	[-999, -999, -999]	n/a	FR1	1	R1125T
604.068	1.051	777536	DISTRACT_END	n/a	n/a	n/a	-999	5	[0, 0, 0]	n/a	FR1	1	R1125T
605.119	0.507	778587	REC_START	n/a	n/a	n/a	-999	5	[0, 0, 0]	n/a	FR1	1	R1125T
605.626	2.055	779094	REC_WORD	0.507	n/a	BATH	-999	5	[0, 0, 0]	n/a	FR1	1	R1125T
607.681	7.86	781149	REC_WORD	2.562	n/a	GOAT	-999	5	[0, 0, 0]	n/a	FR1	1	R1125T
615.541	0.839	789008	REC_WORD	10.422	n/a	WALL	-999	5	[0, 0, 0]	n/a	FR1	1	R1125T
616.38	3.015	789847	REC_WORD	11.261	n/a	COW	-999	5	[0, 0, 0]	n/a	FR1	1	R1125T
619.395	2.179	792862	REC_WORD	14.276	n/a	MUD	-999	5	[0, 0, 0]	n/a	FR1	1	R1125T
621.574	12.473	795041	REC_WORD	16.455	n/a	MOOSE	-999	5	[0, 0, 0]	n/a	FR1	1	R1125T
634.047	1.083	807513	REC_WORD	28.928	n/a	SINK	-999	5	[0, 0, 0]	n/a	FR1	1	R1125T
635.13	2.727	808596	REC_END	n/a	n/a	n/a	-999	5	[0, 0, 0]	n/a	FR1	1	R1125T
637.857	0.0	811323	TRIAL	n/a	n/a	n/a	-999	6	[0, 0, 0]	n/a	FR1	1	R1125T
637.857	10.0	811323	COUNTDOWN_START	n/a	n/a	n/a	-999	6	[0, 0, 0]	n/a	FR1	1	R1125T
648.285	0.008	821751	COUNTDOWN_END	n/a	n/a	n/a	-999	6	[0, 0, 0]	n/a	FR1	1	R1125T
648.293	1.6	821759	ORIENT	n/a	n/a	n/a	-999	6	[0, 0, 0]	n/a	FR1	1	R1125T
650.726	1.6	824191	WORD	n/a	wordpools/wordpool_EN.txt	DOG	1	6	[0, 0, 0]	n/a	FR1	1	R1125T
653.311	1.6	826776	WORD	n/a	wordpools/wordpool_EN.txt	LEG	2	6	[0, 0, 0]	n/a	FR1	1	R1125T
655.793	1.6	829258	WORD	n/a	wordpools/wordpool_EN.txt	STOOL	3	6	[0, 0, 0]	n/a	FR1	1	R1125T
658.328	1.6	831793	WORD	n/a	wordpools/wordpool_EN.txt	PLATE	4	6	[0, 0, 0]	n/a	FR1	1	R1125T
660.878	1.6	834343	WORD	n/a	wordpools/wordpool_EN.txt	CHALK	5	6	[0, 0, 0]	n/a	FR1	1	R1125T
663.296	1.6	836761	WORD	n/a	wordpools/wordpool_EN.txt	TRAY	6	6	[0, 0, 0]	n/a	FR1	1	R1125T
665.895	1.6	839360	WORD	n/a	wordpools/wordpool_EN.txt	WOOD	7	6	[0, 0, 0]	n/a	FR1	1	R1125T
668.263	1.6	841728	WORD	n/a	wordpools/wordpool_EN.txt	GLASS	8	6	[0, 0, 0]	n/a	FR1	1	R1125T
670.713	1.6	844177	WORD	n/a	wordpools/wordpool_EN.txt	STAIR	9	6	[0, 0, 0]	n/a	FR1	1	R1125T
673.281	1.6	846745	WORD	n/a	wordpools/wordpool_EN.txt	CROWN	10	6	[0, 0, 0]	n/a	FR1	1	R1125T
675.697	1.6	849161	WORD	n/a	wordpools/wordpool_EN.txt	SLUSH	11	6	[0, 0, 0]	n/a	FR1	1	R1125T
678.065	1.6	851529	WORD	n/a	wordpools/wordpool_EN.txt	SOCK	12	6	[0, 0, 0]	n/a	FR1	1	R1125T
679.681	0.001	853145	DISTRACT_START	n/a	n/a	n/a	-999	6	[0, 0, 0]	n/a	FR1	1	R1125T
679.682	0.016	853146	START	n/a	n/a	n/a	-999	6	[-999, -999, -999]	n/a	FR1	1	R1125T
679.698	6.168	853162	PROB	6.137	n/a	n/a	-999	6	[1, 4, 1]	6.0	FR1	1	R1125T
685.866	5.318	859330	PROB	5.298	n/a	n/a	-999	6	[6, 2, 8]	16.0	FR1	1	R1125T
691.184	5.218	864647	PROB	5.196	n/a	n/a	-999	6	[6, 2, 7]	15.0	FR1	1	R1125T
696.402	4.913	869865	PROB	4.913	n/a	n/a	-999	6	[7, 3, 9]	19.0	FR1	1	R1125T
701.315	0.004	874778	STOP	n/a	n/a	n/a	-999	6	[-999, -999, -999]	n/a	FR1	1	R1125T
701.319	1.168	874782	DISTRACT_END	n/a	n/a	n/a	-999	6	[0, 0, 0]	n/a	FR1	1	R1125T
702.487	1.938	875950	REC_START	n/a	n/a	n/a	-999	6	[0, 0, 0]	n/a	FR1	1	R1125T
704.425	1.453	877888	REC_WORD	1.938	n/a	CALL	-999	6	[0, 0, 0]	n/a	FR1	1	R1125T
705.878	1.577	879341	REC_WORD	3.391	n/a	DOG	-999	6	[0, 0, 0]	n/a	FR1	1	R1125T
707.455	3.09	880918	REC_WORD	4.968	n/a	STAIR	-999	6	[0, 0, 0]	n/a	FR1	1	R1125T
710.545	13.45	884007	REC_WORD	8.058	n/a	WOOD	-999	6	[0, 0, 0]	n/a	FR1	1	R1125T
723.995	8.502	897457	REC_WORD	21.508	n/a	CROWN	-999	6	[0, 0, 0]	n/a	FR1	1	R1125T
732.497	2.161	905958	REC_END	n/a	n/a	n/a	-999	6	[0, 0, 0]	n/a	FR1	1	R1125T
734.658	0.0	908119	TRIAL	n/a	n/a	n/a	-999	7	[0, 0, 0]	n/a	FR1	1	R1125T
734.658	10.0	908119	COUNTDOWN_START	n/a	n/a	n/a	-999	7	[0, 0, 0]	n/a	FR1	1	R1125T
745.086	0.008	918547	COUNTDOWN_END	n/a	n/a	n/a	-999	7	[0, 0, 0]	n/a	FR1	1	R1125T
745.094	1.6	918555	ORIENT	n/a	n/a	n/a	-999	7	[0, 0, 0]	n/a	FR1	1	R1125T
747.528	1.6	920989	WORD	n/a	wordpools/wordpool_EN.txt	TAIL	1	7	[0, 0, 0]	n/a	FR1	1	R1125T
750.061	1.6	923522	WORD	n/a	wordpools/wordpool_EN.txt	MOUSE	2	7	[0, 0, 0]	n/a	FR1	1	R1125T
752.628	1.6	926088	WORD	n/a	wordpools/wordpool_EN.txt	ROPE	3	7	[0, 0, 0]	n/a	FR1	1	R1125T
755.246	1.6	928706	WORD	n/a	wordpools/wordpool_EN.txt	WEB	4	7	[0, 0, 0]	n/a	FR1	1	R1125T
757.695	1.6	931155	WORD	n/a	wordpools/wordpool_EN.txt	MUG	5	7	[0, 0, 0]	n/a	FR1	1	R1125T
760.264	1.6	933724	WORD	n/a	wordpools/wordpool_EN.txt	SKUNK	6	7	[0, 0, 0]	n/a	FR1	1	R1125T
762.746	1.6	936206	WORD	n/a	wordpools/wordpool_EN.txt	SHEEP	7	7	[0, 0, 0]	n/a	FR1	1	R1125T
765.331	1.6	938791	WORD	n/a	wordpools/wordpool_EN.txt	PET	8	7	[0, 0, 0]	n/a	FR1	1	R1125T
767.814	1.6	941274	WORD	n/a	wordpools/wordpool_EN.txt	CLOTH	9	7	[0, 0, 0]	n/a	FR1	1	R1125T
770.199	1.6	943659	WORD	n/a	wordpools/wordpool_EN.txt	HAWK	10	7	[0, 0, 0]	n/a	FR1	1	R1125T
772.815	1.6	946274	WORD	n/a	wordpools/wordpool_EN.txt	FUDGE	11	7	[0, 0, 0]	n/a	FR1	1	R1125T
775.433	1.6	948892	WORD	n/a	wordpools/wordpool_EN.txt	CALF	12	7	[0, 0, 0]	n/a	FR1	1	R1125T
777.049	0.001	950508	DISTRACT_START	n/a	n/a	n/a	-999	7	[0, 0, 0]	n/a	FR1	1	R1125T
777.05	0.017	950509	START	n/a	n/a	n/a	-999	7	[-999, -999, -999]	n/a	FR1	1	R1125T
777.067	7.733	950526	PROB	7.703	n/a	n/a	-999	7	[5, 4, 4]	13.0	FR1	1	R1125T
784.8	5.552	958259	PROB	5.532	n/a	n/a	-999	7	[3, 7, 3]	13.0	FR1	1	R1125T
790.352	5.001	963811	PROB	4.971	n/a	n/a	-999	7	[9, 8, 1]	18.0	FR1	1	R1125T
795.353	5.074	968811	PROB	5.074	n/a	n/a	-999	7	[6, 5, 5]	16.0	FR1	1	R1125T
800.427	0.011	973885	STOP	n/a	n/a	n/a	-999	7	[-999, -999, -999]	n/a	FR1	1	R1125T
800.438	1.084	973896	DISTRACT_END	n/a	n/a	n/a	-999	7	[0, 0, 0]	n/a	FR1	1	R1125T
801.522	3.681	974980	REC_START	n/a	n/a	n/a	-999	7	[0, 0, 0]	n/a	FR1	1	R1125T
805.203	8.143	978661	REC_WORD	3.681	n/a	CLOTH	-999	7	[0, 0, 0]	n/a	FR1	1	R1125T
813.346	6.515	986803	REC_WORD	11.824	n/a	MUG	-999	7	[0, 0, 0]	n/a	FR1	1	R1125T
819.861	11.671	993318	REC_WORD	18.339	n/a	INTRUSION	-999	7	[0, 0, 0]	n/a	FR1	1	R1125T
831.532	2.494	1004989	REC_END	n/a	n/a	n/a	-999	7	[0, 0, 0]	n/a	FR1	1	R1125T
834.026	0.0	1007482	TRIAL	n/a	n/a	n/a	-999	8	[0, 0, 0]	n/a	FR1	1	R1125T
834.026	10.0	1007482	COUNTDOWN_START	n/a	n/a	n/a	-999	8	[0, 0, 0]	n/a	FR1	1	R1125T
844.454	0.008	1017910	COUNTDOWN_END	n/a	n/a	n/a	-999	8	[0, 0, 0]	n/a	FR1	1	R1125T
844.462	1.6	1017918	ORIENT	n/a	n/a	n/a	-999	8	[0, 0, 0]	n/a	FR1	1	R1125T
847.045	1.6	1020501	WORD	n/a	wordpools/wordpool_EN.txt	STRING	1	8	[0, 0, 0]	n/a	FR1	1	R1125T
849.679	1.6	1023135	WORD	n/a	wordpools/wordpool_EN.txt	CLOUD	2	8	[0, 0, 0]	n/a	FR1	1	R1125T
852.23	1.6	1025685	WORD	n/a	wordpools/wordpool_EN.txt	HOOK	3	8	[0, 0, 0]	n/a	FR1	1	R1125T
854.796	1.6	1028251	WORD	n/a	wordpools/wordpool_EN.txt	PEA	4	8	[0, 0, 0]	n/a	FR1	1	R1125T
857.298	1.6	1030753	WORD	n/a	wordpools/wordpool_EN.txt	TREE	5	8	[0, 0, 0]	n/a	FR1	1	R1125T
859.847	1.6	1033302	WORD	n/a	wordpools/wordpool_EN.txt	HEN	6	8	[0, 0, 0]	n/a	FR1	1	R1125T
862.465	1.6	1035920	WORD	n/a	wordpools/wordpool_EN.txt	OWL	7	8	[0, 0, 0]	n/a	FR1	1	R1125T
864.948	1.6	1038403	WORD	n/a	wordpools/wordpool_EN.txt	PIN	8	8	[0, 0, 0]	n/a	FR1	1	R1125T
867.366	1.6	1040821	WORD	n/a	wordpools/wordpool_EN.txt	PLANE	9	8	[0, 0, 0]	n/a	FR1	1	R1125T
869.982	1.6	1043437	WORD	n/a	wordpools/wordpool_EN.txt	SKY	10	8	[0, 0, 0]	n/a	FR1	1	R1125T
872.517	1.6	1045971	WORD	n/a	wordpools/wordpool_EN.txt	NEST	11	8	[0, 0, 0]	n/a	FR1	1	R1125T
874.95	1.6	1048404	WORD	n/a	wordpools/wordpool_EN.txt	SQUARE	12	8	[0, 0, 0]	n/a	FR1	1	R1125T
876.551	0.001	1050005	DISTRACT_START	n/a	n/a	n/a	-999	8	[0, 0, 0]	n/a	FR1	1	R1125T
876.552	0.016	1050006	START	n/a	n/a	n/a	-999	8	[-999, -999, -999]	n/a	FR1	1	R1125T
876.568	9.167	1050022	PROB	9.147	n/a	n/a	-999	8	[9, 7, 6]	22.0	FR1	1	R1125T
885.735	7.102	1059189	PROB	7.076	n/a	n/a	-999	8	[2, 9, 5]	16.0	FR1	1	R1125T
892.837	6.366	1066290	PROB	6.366	n/a	n/a	-999	8	[5, 3, 2]	10.0	FR1	1	R1125T
899.203	0.019	1072656	STOP	n/a	n/a	n/a	-999	8	[-999, -999, -999]	n/a	FR1	1	R1125T
899.222	1.218	1072675	DISTRACT_END	n/a	n/a	n/a	-999	8	[0, 0, 0]	n/a	FR1	1	R1125T
900.44	0.802	1073893	REC_START	n/a	n/a	n/a	-999	8	[0, 0, 0]	n/a	FR1	1	R1125T
901.242	2.542	1074695	REC_WORD	0.802	n/a	SQUARE	-999	8	[0, 0, 0]	n/a	FR1	1	R1125T
903.784	10.152	1077237	REC_WORD	3.344	n/a	PLANE	-999	8	[0, 0, 0]	n/a	FR1	1	R1125T
913.936	8.19	1087388	REC_WORD	13.496	n/a	CORN	-999	8	[0, 0, 0]	n/a	FR1	1	R1125T
922.126	5.205	1095578	REC_WORD	21.686	n/a	CHIN	-999	8	[0, 0, 0]	n/a	FR1	1	R1125T
927.331	3.119	1100783	REC_WORD	26.891	n/a	STAIR	-999	8	[0, 0, 0]	n/a	FR1	1	R1125T
930.45	2.361	1103902	REC_END	n/a	n/a	n/a	-999	8	[0, 0, 0]	n/a	FR1	1	R1125T
932.811	0.0	1106263	TRIAL	n/a	n/a	n/a	-999	9	[0, 0, 0]	n/a	FR1	1	R1125T
932.811	10.0	1106263	COUNTDOWN_START	n/a	n/a	n/a	-999	9	[0, 0, 0]	n/a	FR1	1	R1125T
943.239	0.008	1116690	COUNTDOWN_END	n/a	n/a	n/a	-999	9	[0, 0, 0]	n/a	FR1	1	R1125T
943.247	1.6	1116698	ORIENT	n/a	n/a	n/a	-999	9	[0, 0, 0]	n/a	FR1	1	R1125T
945.663	1.6	1119114	WORD	n/a	wordpools/wordpool_EN.txt	SMILE	1	9	[0, 0, 0]	n/a	FR1	1	R1125T
948.181	1.6	1121632	WORD	n/a	wordpools/wordpool_EN.txt	FAN	2	9	[0, 0, 0]	n/a	FR1	1	R1125T
950.647	1.6	1124098	WORD	n/a	wordpools/wordpool_EN.txt	CART	3	9	[0, 0, 0]	n/a	FR1	1	R1125T
953.249	1.6	1126700	WORD	n/a	wordpools/wordpool_EN.txt	SEAT	4	9	[0, 0, 0]	n/a	FR1	1	R1125T
955.748	1.6	1129198	WORD	n/a	wordpools/wordpool_EN.txt	BOX	5	9	[0, 0, 0]	n/a	FR1	1	R1125T
958.216	1.6	1131666	WORD	n/a	wordpools/wordpool_EN.txt	GLOVE	6	9	[0, 0, 0]	n/a	FR1	1	R1125T
960.617	1.6	1134067	WORD	n/a	wordpools/wordpool_EN.txt	WAND	7	9	[0, 0, 0]	n/a	FR1	1	R1125T
963.084	1.6	1136534	WORD	n/a	wordpools/wordpool_EN.txt	ARM	8	9	[0, 0, 0]	n/a	FR1	1	R1125T
965.467	1.6	1138917	WORD	n/a	wordpools/wordpool_EN.txt	BAG	9	9	[0, 0, 0]	n/a	FR1	1	R1125T
967.884	1.6	1141334	WORD	n/a	wordpools/wordpool_EN.txt	BROOM	10	9	[0, 0, 0]	n/a	FR1	1	R1125T
970.318	1.6	1143768	WORD	n/a	wordpools/wordpool_EN.txt	FENCE	11	9	[0, 0, 0]	n/a	FR1	1	R1125T
972.701	1.6	1146151	WORD	n/a	wordpools/wordpool_EN.txt	SIGN	12	9	[0, 0, 0]	n/a	FR1	1	R1125T
974.302	0.001	1147751	DISTRACT_START	n/a	n/a	n/a	-999	9	[0, 0, 0]	n/a	FR1	1	R1125T
974.303	0.016	1147752	START	n/a	n/a	n/a	-999	9	[-999, -999, -999]	n/a	FR1	1	R1125T
974.319	5.201	1147768	PROB	5.172	n/a	n/a	-999	9	[1, 3, 9]	13.0	FR1	1	R1125T
979.52	6.635	1152969	PROB	6.604	n/a	n/a	-999	9	[6, 3, 7]	16.0	FR1	1	R1125T
986.155	5.417	1159604	PROB	5.384	n/a	n/a	-999	9	[4, 4, 8]	16.0	FR1	1	R1125T
991.572	5.527	1165021	PROB	5.527	n/a	n/a	-999	9	[9, 9, 4]	22.0	FR1	1	R1125T
997.099	0.008	1170547	STOP	n/a	n/a	n/a	-999	9	[-999, -999, -999]	n/a	FR1	1	R1125T
997.107	1.184	1170555	DISTRACT_END	n/a	n/a	n/a	-999	9	[0, 0, 0]	n/a	FR1	1	R1125T
998.291	1.034	1171739	REC_START	n/a	n/a	n/a	-999	9	[0, 0, 0]	n/a	FR1	1	R1125T
999.325	1.99	1172773	REC_WORD	1.034	n/a	FAN	-999	9	[0, 0, 0]	n/a	FR1	1	R1125T
1001.315	10.801	1174763	REC_WORD	3.024	n/a	SEAT	-999	9	[0, 0, 0]	n/a	FR1	1	R1125T
1012.116	6.264	1185564	REC_WORD	13.825	n/a	CHEST	-999	9	[0, 0, 0]	n/a	FR1	1	R1125T
1018.38	9.921	1191827	REC_WORD	20.089	n/a	STAR	-999	9	[0, 0, 0]	n/a	FR1	1	R1125T
1028.301	1.945	1201748	REC_END	n/a	n/a	n/a	-999	9	[0, 0, 0]	n/a	FR1	1	R1125T
1030.246	0.0	1203693	TRIAL	n/a	n/a	n/a	-999	10	[0, 0, 0]	n/a	FR1	1	R1125T
1030.246	10.0	1203693	COUNTDOWN_START	n/a	n/a	n/a	-999	10	[0, 0, 0]	n/a	FR1	1	R1125T
1040.674	0.006	1214120	COUNTDOWN_END	n/a	n/a	n/a	-999	10	[0, 0, 0]	n/a	FR1	1	R1125T
1040.68	1.6	1214126	ORIENT	n/a	n/a	n/a	-999	10	[0, 0, 0]	n/a	FR1	1	R1125T
1043.232	1.6	1216678	WORD	n/a	wordpools/wordpool_EN.txt	JET	1	10	[0, 0, 0]	n/a	FR1	1	R1125T
1045.648	1.6	1219094	WORD	n/a	wordpools/wordpool_EN.txt	FILM	2	10	[0, 0, 0]	n/a	FR1	1	R1125T
1048.166	1.6	1221612	WORD	n/a	wordpools/wordpool_EN.txt	MOLE	3	10	[0, 0, 0]	n/a	FR1	1	R1125T
1050.665	1.6	1224111	WORD	n/a	wordpools/wordpool_EN.txt	BOAT	4	10	[0, 0, 0]	n/a	FR1	1	R1125T
1053.049	1.6	1226495	WORD	n/a	wordpools/wordpool_EN.txt	INK	5	10	[0, 0, 0]	n/a	FR1	1	R1125T
1055.683	1.6	1229128	WORD	n/a	wordpools/wordpool_EN.txt	BOMB	6	10	[0, 0, 0]	n/a	FR1	1	R1125T
1058.184	1.6	1231629	WORD	n/a	wordpools/wordpool_EN.txt	KITE	7	10	[0, 0, 0]	n/a	FR1	1	R1125T
1060.734	1.6	1234179	WORD	n/a	wordpools/wordpool_EN.txt	SOAP	8	10	[0, 0, 0]	n/a	FR1	1	R1125T
1063.252	1.6	1236697	WORD	n/a	wordpools/wordpool_EN.txt	SPARK	9	10	[0, 0, 0]	n/a	FR1	1	R1125T
1065.751	1.6	1239196	WORD	n/a	wordpools/wordpool_EN.txt	WHEEL	10	10	[0, 0, 0]	n/a	FR1	1	R1125T
1068.203	1.6	1241648	WORD	n/a	wordpools/wordpool_EN.txt	POND	11	10	[0, 0, 0]	n/a	FR1	1	R1125T
1070.819	1.6	1244264	WORD	n/a	wordpools/wordpool_EN.txt	NET	12	10	[0, 0, 0]	n/a	FR1	1	R1125T
1072.42	0.001	1245865	DISTRACT_START	n/a	n/a	n/a	-999	10	[0, 0, 0]	n/a	FR1	1	R1125T
1072.421	0.016	1245866	START	n/a	n/a	n/a	-999	10	[-999, -999, -999]	n/a	FR1	1	R1125T
1072.437	8.151	1245882	PROB	8.119	n/a	n/a	-999	10	[3, 6, 8]	17.0	FR1	1	R1125T
1080.588	6.251	1254032	PROB	6.222	n/a	n/a	-999	10	[9, 7, 3]	19.0	FR1	1	R1125T
1086.839	6.923	1260283	PROB	6.923	n/a	n/a	-999	10	[6, 3, 9]	18.0	FR1	1	R1125T
1093.762	0.011	1267206	STOP	n/a	n/a	n/a	-999	10	[-999, -999, -999]	n/a	FR1	1	R1125T
1093.773	1.168	1267217	DISTRACT_END	n/a	n/a	n/a	-999	10	[0, 0, 0]	n/a	FR1	1	R1125T
1094.941	1.223	1268384	REC_START	n/a	n/a	n/a	-999	10	[0, 0, 0]	n/a	FR1	1	R1125T
1096.164	5.587	1269607	REC_WORD	1.223	n/a	BOAT	-999	10	[0, 0, 0]	n/a	FR1	1	R1125T
1101.751	2.164	1275194	REC_WORD	6.81	n/a	DESK	-999	10	[0, 0, 0]	n/a	FR1	1	R1125T
1103.915	21.036	1277358	REC_WORD	8.974	n/a	SKY	-999	10	[0, 0, 0]	n/a	FR1	1	R1125T
1124.951	3.346	1298393	REC_END	n/a	n/a	n/a	-999	10	[0, 0, 0]	n/a	FR1	1	R1125T
1128.297	0.0	1301739	TRIAL	n/a	n/a	n/a	-999	11	[0, 0, 0]	n/a	FR1	1	R1125T
1128.297	10.0	1301739	COUNTDOWN_START	n/a	n/a	n/a	-999	11	[0, 0, 0]	n/a	FR1	1	R1125T
1138.725	0.006	1312166	COUNTDOWN_END	n/a	n/a	n/a	-999	11	[0, 0, 0]	n/a	FR1	1	R1125T
1138.731	1.6	1312172	ORIENT	n/a	n/a	n/a	-999	11	[0, 0, 0]	n/a	FR1	1	R1125T
1141.266	1.6	1314707	WORD	n/a	wordpools/wordpool_EN.txt	BRANCH	1	11	[0, 0, 0]	n/a	FR1	1	R1125T
1143.815	1.6	1317256	WORD	n/a	wordpools/wordpool_EN.txt	LAMB	2	11	[0, 0, 0]	n/a	FR1	1	R1125T
1146.217	1.6	1319658	WORD	n/a	wordpools/wordpool_EN.txt	AXE	3	11	[0, 0, 0]	n/a	FR1	1	R1125T
1148.65	1.6	1322091	WORD	n/a	wordpools/wordpool_EN.txt	WORLD	4	11	[0, 0, 0]	n/a	FR1	1	R1125T
1151.201	1.6	1324642	WORD	n/a	wordpools/wordpool_EN.txt	SPEAR	5	11	[0, 0, 0]	n/a	FR1	1	R1125T
1153.585	1.6	1327026	WORD	n/a	wordpools/wordpool_EN.txt	PEARL	6	11	[0, 0, 0]	n/a	FR1	1	R1125T
1156.086	1.6	1329526	WORD	n/a	wordpools/wordpool_EN.txt	BLOOM	7	11	[0, 0, 0]	n/a	FR1	1	R1125T
1158.469	1.6	1331909	WORD	n/a	wordpools/wordpool_EN.txt	THREAD	8	11	[0, 0, 0]	n/a	FR1	1	R1125T
1161.07	1.6	1334510	WORD	n/a	wordpools/wordpool_EN.txt	MOTH	9	11	[0, 0, 0]	n/a	FR1	1	R1125T
1163.57	1.6	1337010	WORD	n/a	wordpools/wordpool_EN.txt	PLANT	10	11	[0, 0, 0]	n/a	FR1	1	R1125T
1166.071	1.6	1339511	WORD	n/a	wordpools/wordpool_EN.txt	FOOD	11	11	[0, 0, 0]	n/a	FR1	1	R1125T
1168.687	1.6	1342127	WORD	n/a	wordpools/wordpool_EN.txt	BEE	12	11	[0, 0, 0]	n/a	FR1	1	R1125T
1170.288	0.001	1343728	DISTRACT_START	n/a	n/a	n/a	-999	11	[0, 0, 0]	n/a	FR1	1	R1125T
1170.289	0.016	1343729	START	n/a	n/a	n/a	-999	11	[-999, -999, -999]	n/a	FR1	1	R1125T
1170.305	7.935	1343745	PROB	7.898	n/a	n/a	-999	11	[5, 4, 9]	18.0	FR1	1	R1125T
1178.24	7.6	1351679	PROB	7.571	n/a	n/a	-999	11	[7, 4, 1]	12.0	FR1	1	R1125T
1185.84	10.228	1359279	PROB	10.228	n/a	n/a	-999	11	[8, 7, 6]	21.0	FR1	1	R1125T
1196.068	0.008	1369507	STOP	n/a	n/a	n/a	-999	11	[-999, -999, -999]	n/a	FR1	1	R1125T
1196.076	1.034	1369515	DISTRACT_END	n/a	n/a	n/a	-999	11	[0, 0, 0]	n/a	FR1	1	R1125T
1197.11	1.381	1370548	REC_START	n/a	n/a	n/a	-999	11	[0, 0, 0]	n/a	FR1	1	R1125T
1198.491	4.601	1371929	REC_WORD	1.381	n/a	BLOOM	-999	11	[0, 0, 0]	n/a	FR1	1	R1125T
1203.092	24.03	1376530	REC_WORD	5.982	n/a	BEE	-999	11	[0, 0, 0]	n/a	FR1	1	R1125T
1227.122	1.809	1400559	REC_END	n/a	n/a	n/a	-999	11	[0, 0, 0]	n/a	FR1	1	R1125T
1228.931	10.0	1402368	COUNTDOWN_START	n/a	n/a	n/a	-999	12	[0, 0, 0]	n/a	FR1	1	R1125T
1228.932	10.427	1402369	TRIAL	n/a	n/a	n/a	-999	12	[0, 0, 0]	n/a	FR1	1	R1125T
1239.359	0.008	1412795	COUNTDOWN_END	n/a	n/a	n/a	-999	12	[0, 0, 0]	n/a	FR1	1	R1125T
1239.367	1.6	1412803	ORIENT	n/a	n/a	n/a	-999	12	[0, 0, 0]	n/a	FR1	1	R1125T
1241.867	1.6	1415303	WORD	n/a	wordpools/wordpool_EN.txt	TANK	1	12	[0, 0, 0]	n/a	FR1	1	R1125T
1244.402	1.6	1417838	WORD	n/a	wordpools/wordpool_EN.txt	MAZE	2	12	[0, 0, 0]	n/a	FR1	1	R1125T
1246.784	1.6	1420220	WORD	n/a	wordpools/wordpool_EN.txt	CAR	3	12	[0, 0, 0]	n/a	FR1	1	R1125T
1249.152	1.6	1422588	WORD	n/a	wordpools/wordpool_EN.txt	VAN	4	12	[0, 0, 0]	n/a	FR1	1	R1125T
1251.769	1.6	1425205	WORD	n/a	wordpools/wordpool_EN.txt	SAIL	5	12	[0, 0, 0]	n/a	FR1	1	R1125T
1254.37	1.6	1427806	WORD	n/a	wordpools/wordpool_EN.txt	BOARD	6	12	[0, 0, 0]	n/a	FR1	1	R1125T
1256.986	1.6	1430421	WORD	n/a	wordpools/wordpool_EN.txt	SOUP	7	12	[0, 0, 0]	n/a	FR1	1	R1125T
1259.471	1.6	1432906	WORD	n/a	wordpools/wordpool_EN.txt	TOY	8	12	[0, 0, 0]	n/a	FR1	1	R1125T
1262.071	1.6	1435506	WORD	n/a	wordpools/wordpool_EN.txt	BRICK	9	12	[0, 0, 0]	n/a	FR1	1	R1125T
1264.605	1.6	1438040	WORD	n/a	wordpools/wordpool_EN.txt	JAIL	10	12	[0, 0, 0]	n/a	FR1	1	R1125T
1267.038	1.6	1440473	WORD	n/a	wordpools/wordpool_EN.txt	STORM	11	12	[0, 0, 0]	n/a	FR1	1	R1125T
1269.539	1.6	1442974	WORD	n/a	wordpools/wordpool_EN.txt	BANK	12	12	[0, 0, 0]	n/a	FR1	1	R1125T
1271.156	0.001	1444591	DISTRACT_START	n/a	n/a	n/a	-999	12	[0, 0, 0]	n/a	FR1	1	R1125T
1271.157	0.016	1444592	START	n/a	n/a	n/a	-999	12	[-999, -999, -999]	n/a	FR1	1	R1125T
1271.173	6.168	1444608	PROB	6.135	n/a	n/a	-999	12	[6, 6, 1]	13.0	FR1	1	R1125T
1277.341	9.118	1450775	PROB	9.095	n/a	n/a	-999	12	[8, 9, 7]	24.0	FR1	1	R1125T
1286.459	4.183	1459893	PROB	4.152	n/a	n/a	-999	12	[2, 2, 8]	12.0	FR1	1	R1125T
1290.642	8.136	1464076	PROB	8.136	n/a	n/a	-999	12	[9, 6, 5]	20.0	FR1	1	R1125T
1298.778	0.016	1472211	STOP	n/a	n/a	n/a	-999	12	[-999, -999, -999]	n/a	FR1	1	R1125T
1298.794	1.052	1472227	DISTRACT_END	n/a	n/a	n/a	-999	12	[0, 0, 0]	n/a	FR1	1	R1125T
1299.846	1.162	1473279	REC_START	n/a	n/a	n/a	-999	12	[0, 0, 0]	n/a	FR1	1	R1125T
1301.008	2.204	1474441	REC_WORD	1.162	n/a	TOY	-999	12	[0, 0, 0]	n/a	FR1	1	R1125T
1303.212	7.868	1476645	REC_WORD	3.366	n/a	CAR	-999	12	[0, 0, 0]	n/a	FR1	1	R1125T
1311.08	18.776	1484513	REC_WORD	11.234	n/a	VAN	-999	12	[0, 0, 0]	n/a	FR1	1	R1125T
1329.856	2.462	1503288	REC_END	n/a	n/a	n/a	-999	12	[0, 0, 0]	n/a	FR1	1	R1125T
1332.318	0.0	1505750	TRIAL	n/a	n/a	n/a	-999	13	[0, 0, 0]	n/a	FR1	1	R1125T
1332.318	10.0	1505750	COUNTDOWN_START	n/a	n/a	n/a	-999	13	[0, 0, 0]	n/a	FR1	1	R1125T
1342.746	0.006	1516177	COUNTDOWN_END	n/a	n/a	n/a	-999	13	[0, 0, 0]	n/a	FR1	1	R1125T
1342.752	1.6	1516183	ORIENT	n/a	n/a	n/a	-999	13	[0, 0, 0]	n/a	FR1	1	R1125T
1345.187	1.6	1518618	WORD	n/a	wordpools/wordpool_EN.txt	BENCH	1	13	[0, 0, 0]	n/a	FR1	1	R1125T
1347.736	1.6	1521167	WORD	n/a	wordpools/wordpool_EN.txt	STRAW	2	13	[0, 0, 0]	n/a	FR1	1	R1125T
1350.204	1.6	1523635	WORD	n/a	wordpools/wordpool_EN.txt	YARD	3	13	[0, 0, 0]	n/a	FR1	1	R1125T
1352.737	1.6	1526168	WORD	n/a	wordpools/wordpool_EN.txt	FOOT	4	13	[0, 0, 0]	n/a	FR1	1	R1125T
1355.338	1.6	1528769	WORD	n/a	wordpools/wordpool_EN.txt	SHIRT	5	13	[0, 0, 0]	n/a	FR1	1	R1125T
1357.954	1.6	1531385	WORD	n/a	wordpools/wordpool_EN.txt	BOWL	6	13	[0, 0, 0]	n/a	FR1	1	R1125T
1360.406	1.6	1533836	WORD	n/a	wordpools/wordpool_EN.txt	FROG	7	13	[0, 0, 0]	n/a	FR1	1	R1125T
1363.022	1.6	1536452	WORD	n/a	wordpools/wordpool_EN.txt	ROSE	8	13	[0, 0, 0]	n/a	FR1	1	R1125T
1365.623	1.6	1539053	WORD	n/a	wordpools/wordpool_EN.txt	DOOR	9	13	[0, 0, 0]	n/a	FR1	1	R1125T
1368.141	1.6	1541571	WORD	n/a	wordpools/wordpool_EN.txt	BRUSH	10	13	[0, 0, 0]	n/a	FR1	1	R1125T
1370.657	1.6	1544087	WORD	n/a	wordpools/wordpool_EN.txt	CHAIR	11	13	[0, 0, 0]	n/a	FR1	1	R1125T
1373.175	1.6	1546605	WORD	n/a	wordpools/wordpool_EN.txt	TIE	12	13	[0, 0, 0]	n/a	FR1	1	R1125T
1374.791	0.001	1548221	DISTRACT_START	n/a	n/a	n/a	-999	13	[0, 0, 0]	n/a	FR1	1	R1125T
1374.792	0.016	1548222	START	n/a	n/a	n/a	-999	13	[-999, -999, -999]	n/a	FR1	1	R1125T
1374.808	5.418	1548238	PROB	5.387	n/a	n/a	-999	13	[5, 3, 1]	9.0	FR1	1	R1125T
1380.226	7.834	1553655	PROB	7.808	n/a	n/a	-999	13	[3, 8, 4]	15.0	FR1	1	R1125T
1388.06	6.831	1561489	PROB	6.831	n/a	n/a	-999	13	[6, 4, 5]	15.0	FR1	1	R1125T
1394.891	0.003	1568320	STOP	n/a	n/a	n/a	-999	13	[-999, -999, -999]	n/a	FR1	1	R1125T
1394.894	1.051	1568323	DISTRACT_END	n/a	n/a	n/a	-999	13	[0, 0, 0]	n/a	FR1	1	R1125T
1395.945	1.092	1569374	REC_START	n/a	n/a	n/a	-999	13	[0, 0, 0]	n/a	FR1	1	R1125T
1397.037	2.024	1570466	REC_WORD	1.092	n/a	ROSE	-999	13	[0, 0, 0]	n/a	FR1	1	R1125T
1399.061	4.034	1572489	REC_WORD	3.116	n/a	TIE	-999	13	[0, 0, 0]	n/a	FR1	1	R1125T
1403.095	22.864	1576523	REC_WORD	7.15	n/a	FOOT	-999	13	[0, 0, 0]	n/a	FR1	1	R1125T
1425.959	357.94	1599386	REC_END	n/a	n/a	n/a	-999	13	[0, 0, 0]	n/a	FR1	1	R1125T
1783.899	0.0	1957308	TRIAL	n/a	n/a	n/a	-999	14	[0, 0, 0]	n/a	FR1	1	R1125T
1783.899	10.0	1957308	COUNTDOWN_START	n/a	n/a	n/a	-999	14	[0, 0, 0]	n/a	FR1	1	R1125T
