onset	duration	sample	trial_type	response_time	stim_file	item_name	serialpos	list	test	answer	experiment	session	subject
0.0	31.051	680	INSTRUCT_START	n/a	n/a	n/a	-999	-999	[0, 0, 0]	n/a	FR1	0	R1354E
31.051	73.214	32400	INSTRUCT_END	n/a	n/a	n/a	-999	-999	[0, 0, 0]	n/a	FR1	0	R1354E
104.265	10.0	105613	COUNTDOWN_START	n/a	n/a	n/a	-999	-999	[0, 0, 0]	n/a	FR1	0	R1354E
114.694	1.239	116008	COUNTDOWN_END	n/a	n/a	n/a	-999	-999	[0, 0, 0]	n/a	FR1	0	R1354E
115.933	1.086	117237	ENCODING_START	n/a	n/a	n/a	-999	-1	[0, 0, 0]	n/a	FR1	0	R1354E
117.019	1.6	118341	WORD	n/a	n/a	CAMEL	1	-1	[0, 0, 0]	n/a	FR1	0	R1354E
118.65	0.964	119962	WORD_OFF	n/a	n/a	CAMEL	1	-1	[0, 0, 0]	n/a	FR1	0	R1354E
119.614	1.6	120940	WORD	n/a	n/a	CHEST	2	-1	[0, 0, 0]	n/a	FR1	0	R1354E
121.251	1.018	122560	WORD_OFF	n/a	n/a	CHEST	2	-1	[0, 0, 0]	n/a	FR1	0	R1354E
122.269	1.6	123594	WORD	n/a	n/a	WAGON	3	-1	[0, 0, 0]	n/a	FR1	0	R1354E
123.901	0.772	125215	WORD_OFF	n/a	n/a	WAGON	3	-1	[0, 0, 0]	n/a	FR1	0	R1354E
124.673	1.6	125997	WORD	n/a	n/a	TONGUE	4	-1	[0, 0, 0]	n/a	FR1	0	R1354E
126.302	1.065	127604	WORD_OFF	n/a	n/a	TONGUE	4	-1	[0, 0, 0]	n/a	FR1	0	R1354E
127.367	1.6	128694	WORD	n/a	n/a	COTTON	5	-1	[0, 0, 0]	n/a	FR1	0	R1354E
129.001	0.951	130315	WORD_OFF	n/a	n/a	COTTON	5	-1	[0, 0, 0]	n/a	FR1	0	R1354E
129.952	1.6	131279	WORD	n/a	n/a	RHINO	6	-1	[0, 0, 0]	n/a	FR1	0	R1354E
131.586	1.07	132899	WORD_OFF	n/a	n/a	RHINO	6	-1	[0, 0, 0]	n/a	FR1	0	R1354E
132.656	1.6	133975	WORD	n/a	n/a	WATCH	7	-1	[0, 0, 0]	n/a	FR1	0	R1354E
134.286	0.907	135596	WORD_OFF	n/a	n/a	WATCH	7	-1	[0, 0, 0]	n/a	FR1	0	R1354E
135.193	1.6	136504	WORD	n/a	n/a	FLOOD	8	-1	[0, 0, 0]	n/a	FR1	0	R1354E
136.82	0.962	138125	WORD_OFF	n/a	n/a	FLOOD	8	-1	[0, 0, 0]	n/a	FR1	0	R1354E
137.782	1.6	139089	WORD	n/a	n/a	RING	9	-1	[0, 0, 0]	n/a	FR1	0	R1354E
139.404	1.148	140710	WORD_OFF	n/a	n/a	RING	9	-1	[0, 0, 0]	n/a	FR1	0	R1354E
140.552	1.6	141883	WORD	n/a	n/a	BEAM	10	-1	[0, 0, 0]	n/a	FR1	0	R1354E
142.187	1.053	143490	WORD_OFF	n/a	n/a	BEAM	10	-1	[0, 0, 0]	n/a	FR1	0	R1354E
143.24	1.6	144566	WORD	n/a	n/a	IMAGE	11	-1	[0, 0, 0]	n/a	FR1	0	R1354E
144.871	0.975	146173	WORD_OFF	n/a	n/a	IMAGE	11	-1	[0, 0, 0]	n/a	FR1	0	R1354E
145.846	1.6	147165	WORD	n/a	n/a	BABY	12	-1	[0, 0, 0]	n/a	FR1	0	R1354E
147.473	0.0	148788	START	n/a	n/a	n/a	-999	-1	[-999, -999, -999]	n/a	FR1	0	R1354E
147.472	0.0	148799	WORD_OFF	n/a	n/a	BABY	12	-1	[0, 0, 0]	n/a	FR1	0	R1354E
147.472	0.001	148799	ENCODING_END	n/a	n/a	n/a	-999	-1	[0, 0, 0]	n/a	FR1	0	R1354E
147.473	0.015	148799	DISTRACT_START	n/a	n/a	n/a	-999	-1	[0, 0, 0]	n/a	FR1	0	R1354E
147.488	1.984	148803	PROB	1.956	n/a	n/a	-999	-1	[1, 4, 8]	13.0	FR1	0	R1354E
149.472	2.334	150787	PROB	2.309	n/a	n/a	-999	-1	[6, 8, 6]	20.0	FR1	0	R1354E
151.806	1.8	153121	PROB	1.775	n/a	n/a	-999	-1	[2, 8, 3]	13.0	FR1	0	R1354E
153.606	1.933	154921	PROB	1.903	n/a	n/a	-999	-1	[1, 1, 5]	7.0	FR1	0	R1354E
155.539	1.368	156854	PROB	1.33	n/a	n/a	-999	-1	[1, 1, 2]	4.0	FR1	0	R1354E
156.907	2.182	158222	PROB	2.16	n/a	n/a	-999	-1	[6, 9, 3]	15.0	FR1	0	R1354E
159.089	3.851	160404	PROB	3.826	n/a	n/a	-999	-1	[9, 6, 2]	17.0	FR1	0	R1354E
162.94	2.902	164255	PROB	2.873	n/a	n/a	-999	-1	[7, 9, 2]	17.0	FR1	0	R1354E
165.842	3.784	167156	PROB	3.776	n/a	n/a	-999	-1	[2, 4, 7]	1.0	FR1	0	R1354E
169.626	0.0	170931	DISTRACT_END	n/a	n/a	n/a	-999	-1	[0, 0, 0]	n/a	FR1	0	R1354E
169.618	2.324	170932	STOP	n/a	n/a	n/a	-999	-1	[-999, -999, -999]	n/a	FR1	0	R1354E
171.942	0.96	173264	REC_START	n/a	n/a	n/a	-999	-1	[0, 0, 0]	n/a	FR1	0	R1354E
172.902	1.461	174216	REC_WORD	0.96	n/a	RHINO	6	-1	[0, 0, 0]	n/a	FR1	0	R1354E
174.363	1.544	175677	REC_WORD	2.421	n/a	CAMEL	1	-1	[0, 0, 0]	n/a	FR1	0	R1354E
175.907	4.153	177221	REC_WORD	3.965	n/a	RING	9	-1	[0, 0, 0]	n/a	FR1	0	R1354E
180.06	6.063	181374	REC_WORD	8.118	n/a	TONGUE	4	-1	[0, 0, 0]	n/a	FR1	0	R1354E
186.123	15.834	187437	REC_WORD	14.181	n/a	WATCH	7	-1	[0, 0, 0]	n/a	FR1	0	R1354E
201.957	9.427	203289	REC_END	n/a	n/a	n/a	-999	-1	[0, 0, 0]	n/a	FR1	0	R1354E
211.384	10.0	212720	COUNTDOWN_START	n/a	n/a	n/a	-999	1	[0, 0, 0]	n/a	FR1	0	R1354E
221.813	1.188	223129	COUNTDOWN_END	n/a	n/a	n/a	-999	1	[0, 0, 0]	n/a	FR1	0	R1354E
223.001	1.023	224303	ENCODING_START	n/a	n/a	n/a	-999	1	[0, 0, 0]	n/a	FR1	0	R1354E
224.024	1.6	225337	WORD	n/a	wordpools/wordpool_EN.txt	JEEP	1	1	[0, 0, 0]	n/a	FR1	0	R1354E
225.652	1.064	226958	WORD_OFF	n/a	n/a	JEEP	1	1	[0, 0, 0]	n/a	FR1	0	R1354E
226.716	1.6	228034	WORD	n/a	wordpools/wordpool_EN.txt	TOAD	2	1	[0, 0, 0]	n/a	FR1	0	R1354E
228.353	0.753	229654	WORD_OFF	n/a	n/a	TOAD	2	1	[0, 0, 0]	n/a	FR1	0	R1354E
229.106	1.6	230423	WORD	n/a	wordpools/wordpool_EN.txt	RAIN	3	1	[0, 0, 0]	n/a	FR1	0	R1354E
230.736	0.847	232044	WORD_OFF	n/a	n/a	RAIN	3	1	[0, 0, 0]	n/a	FR1	0	R1354E
231.583	1.6	232910	WORD	n/a	wordpools/wordpool_EN.txt	PLATE	4	1	[0, 0, 0]	n/a	FR1	0	R1354E
233.22	0.777	234530	WORD_OFF	n/a	n/a	PLATE	4	1	[0, 0, 0]	n/a	FR1	0	R1354E
233.997	1.6	235313	WORD	n/a	wordpools/wordpool_EN.txt	HOOF	5	1	[0, 0, 0]	n/a	FR1	0	R1354E
235.604	0.836	236906	WORD_OFF	n/a	n/a	HOOF	5	1	[0, 0, 0]	n/a	FR1	0	R1354E
236.44	1.6	237758	WORD	n/a	wordpools/wordpool_EN.txt	BATH	6	1	[0, 0, 0]	n/a	FR1	0	R1354E
238.07	1.053	239379	WORD_OFF	n/a	n/a	BATH	6	1	[0, 0, 0]	n/a	FR1	0	R1354E
239.123	1.6	240441	WORD	n/a	wordpools/wordpool_EN.txt	SHIRT	7	1	[0, 0, 0]	n/a	FR1	0	R1354E
240.755	0.911	242061	WORD_OFF	n/a	n/a	SHIRT	7	1	[0, 0, 0]	n/a	FR1	0	R1354E
241.666	1.6	242969	WORD	n/a	wordpools/wordpool_EN.txt	KITE	8	1	[0, 0, 0]	n/a	FR1	0	R1354E
243.289	0.808	244590	WORD_OFF	n/a	n/a	KITE	8	1	[0, 0, 0]	n/a	FR1	0	R1354E
244.097	1.6	245414	WORD	n/a	wordpools/wordpool_EN.txt	MOTH	9	1	[0, 0, 0]	n/a	FR1	0	R1354E
245.706	0.815	247007	WORD_OFF	n/a	n/a	MOTH	9	1	[0, 0, 0]	n/a	FR1	0	R1354E
246.521	1.6	247846	WORD	n/a	wordpools/wordpool_EN.txt	ROCK	10	1	[0, 0, 0]	n/a	FR1	0	R1354E
248.156	1.123	249466	WORD_OFF	n/a	n/a	ROCK	10	1	[0, 0, 0]	n/a	FR1	0	R1354E
249.279	1.6	250598	WORD	n/a	wordpools/wordpool_EN.txt	SEA	11	1	[0, 0, 0]	n/a	FR1	0	R1354E
250.907	0.923	252205	WORD_OFF	n/a	n/a	SEA	11	1	[0, 0, 0]	n/a	FR1	0	R1354E
251.83	1.6	253141	WORD	n/a	wordpools/wordpool_EN.txt	STEAK	12	1	[0, 0, 0]	n/a	FR1	0	R1354E
253.458	0.0	254769	START	n/a	n/a	n/a	-999	1	[-999, -999, -999]	n/a	FR1	0	R1354E
253.457	0.0	254776	WORD_OFF	n/a	n/a	STEAK	12	1	[0, 0, 0]	n/a	FR1	0	R1354E
253.457	0.001	254776	ENCODING_END	n/a	n/a	n/a	-999	1	[0, 0, 0]	n/a	FR1	0	R1354E
253.458	0.016	254776	DISTRACT_START	n/a	n/a	n/a	-999	1	[0, 0, 0]	n/a	FR1	0	R1354E
253.474	1.766	254785	PROB	1.739	n/a	n/a	-999	1	[4, 5, 2]	11.0	FR1	0	R1354E
255.24	1.783	256551	PROB	1.757	n/a	n/a	-999	1	[3, 7, 9]	19.0	FR1	0	R1354E
257.023	0.95	258334	PROB	0.917	n/a	n/a	-999	1	[5, 5, 1]	11.0	FR1	0	R1354E
257.973	1.718	259284	PROB	1.688	n/a	n/a	-999	1	[6, 8, 4]	18.0	FR1	0	R1354E
259.691	1.05	261002	PROB	1.017	n/a	n/a	-999	1	[1, 6, 4]	11.0	FR1	0	R1354E
260.741	1.834	262052	PROB	1.808	n/a	n/a	-999	1	[1, 9, 7]	17.0	FR1	0	R1354E
262.575	2.117	263886	PROB	2.086	n/a	n/a	-999	1	[9, 2, 3]	15.0	FR1	0	R1354E
264.692	1.534	266003	PROB	1.498	n/a	n/a	-999	1	[7, 7, 1]	15.0	FR1	0	R1354E
266.226	2.934	267537	PROB	2.9	n/a	n/a	-999	1	[5, 2, 8]	15.0	FR1	0	R1354E
269.16	1.1	270471	PROB	1.069	n/a	n/a	-999	1	[1, 7, 7]	15.0	FR1	0	R1354E
270.26	2.0	271571	PROB	1.969	n/a	n/a	-999	1	[4, 2, 4]	10.0	FR1	0	R1354E
272.26	2.736	273571	PROB	2.736	n/a	n/a	-999	1	[6, 2, 7]	15.0	FR1	0	R1354E
274.996	0.014	276307	STOP	n/a	n/a	n/a	-999	1	[-999, -999, -999]	n/a	FR1	0	R1354E
275.01	2.318	276320	DISTRACT_END	n/a	n/a	n/a	-999	1	[0, 0, 0]	n/a	FR1	0	R1354E
277.328	0.0	278639	REC_WORD	0.0	n/a	SHIRT	7	1	[0, 0, 0]	n/a	FR1	0	R1354E
277.328	1.026	278640	REC_START	n/a	n/a	n/a	-999	1	[0, 0, 0]	n/a	FR1	0	R1354E
278.354	1.332	279664	REC_WORD	1.026	n/a	KITE	8	1	[0, 0, 0]	n/a	FR1	0	R1354E
279.686	1.375	280996	REC_WORD	2.358	n/a	MOTH	9	1	[0, 0, 0]	n/a	FR1	0	R1354E
281.061	7.072	282371	REC_WORD	3.733	n/a	ROCK	10	1	[0, 0, 0]	n/a	FR1	0	R1354E
288.133	19.21	289443	REC_WORD	10.805	n/a	JEEP	1	1	[0, 0, 0]	n/a	FR1	0	R1354E
307.343	3.607	308665	REC_END	n/a	n/a	n/a	-999	1	[0, 0, 0]	n/a	FR1	0	R1354E
310.95	10.0	312284	COUNTDOWN_START	n/a	n/a	n/a	-999	2	[0, 0, 0]	n/a	FR1	0	R1354E
321.379	1.057	322693	COUNTDOWN_END	n/a	n/a	n/a	-999	2	[0, 0, 0]	n/a	FR1	0	R1354E
322.436	1.137	323741	ENCODING_START	n/a	n/a	n/a	-999	2	[0, 0, 0]	n/a	FR1	0	R1354E
323.573	1.6	324886	WORD	n/a	wordpools/wordpool_EN.txt	POOL	1	2	[0, 0, 0]	n/a	FR1	0	R1354E
325.203	0.835	326507	WORD_OFF	n/a	n/a	POOL	1	2	[0, 0, 0]	n/a	FR1	0	R1354E
326.038	1.6	327359	WORD	n/a	wordpools/wordpool_EN.txt	TAIL	2	2	[0, 0, 0]	n/a	FR1	0	R1354E
327.67	0.893	328966	WORD_OFF	n/a	n/a	TAIL	2	2	[0, 0, 0]	n/a	FR1	0	R1354E
328.563	1.6	329874	WORD	n/a	wordpools/wordpool_EN.txt	THUMB	3	2	[0, 0, 0]	n/a	FR1	0	R1354E
330.187	1.12	331481	WORD_OFF	n/a	n/a	THUMB	3	2	[0, 0, 0]	n/a	FR1	0	R1354E
331.307	1.6	332627	WORD	n/a	wordpools/wordpool_EN.txt	DOG	4	2	[0, 0, 0]	n/a	FR1	0	R1354E
332.937	1.029	334247	WORD_OFF	n/a	n/a	DOG	4	2	[0, 0, 0]	n/a	FR1	0	R1354E
333.966	1.6	335267	WORD	n/a	wordpools/wordpool_EN.txt	FACE	5	2	[0, 0, 0]	n/a	FR1	0	R1354E
335.588	0.82	336888	WORD_OFF	n/a	n/a	FACE	5	2	[0, 0, 0]	n/a	FR1	0	R1354E
336.408	1.6	337726	WORD	n/a	wordpools/wordpool_EN.txt	TIE	6	2	[0, 0, 0]	n/a	FR1	0	R1354E
338.037	1.019	339333	WORD_OFF	n/a	n/a	TIE	6	2	[0, 0, 0]	n/a	FR1	0	R1354E
339.056	1.6	340367	WORD	n/a	wordpools/wordpool_EN.txt	BOAT	7	2	[0, 0, 0]	n/a	FR1	0	R1354E
340.689	0.876	341988	WORD_OFF	n/a	n/a	BOAT	7	2	[0, 0, 0]	n/a	FR1	0	R1354E
341.565	1.6	342868	WORD	n/a	wordpools/wordpool_EN.txt	CLAY	8	2	[0, 0, 0]	n/a	FR1	0	R1354E
343.189	0.983	344489	WORD_OFF	n/a	n/a	CLAY	8	2	[0, 0, 0]	n/a	FR1	0	R1354E
344.172	1.6	345495	WORD	n/a	wordpools/wordpool_EN.txt	BENCH	9	2	[0, 0, 0]	n/a	FR1	0	R1354E
345.806	0.864	347101	WORD_OFF	n/a	n/a	BENCH	9	2	[0, 0, 0]	n/a	FR1	0	R1354E
346.67	1.6	347968	WORD	n/a	wordpools/wordpool_EN.txt	MILK	10	2	[0, 0, 0]	n/a	FR1	0	R1354E
348.29	0.75	349588	WORD_OFF	n/a	n/a	MILK	10	2	[0, 0, 0]	n/a	FR1	0	R1354E
349.04	1.6	350357	WORD	n/a	wordpools/wordpool_EN.txt	FOAM	11	2	[0, 0, 0]	n/a	FR1	0	R1354E
350.674	0.827	351978	WORD_OFF	n/a	n/a	FOAM	11	2	[0, 0, 0]	n/a	FR1	0	R1354E
351.501	1.6	352802	WORD	n/a	wordpools/wordpool_EN.txt	TOE	12	2	[0, 0, 0]	n/a	FR1	0	R1354E
353.125	0.0	354433	START	n/a	n/a	n/a	-999	2	[-999, -999, -999]	n/a	FR1	0	R1354E
353.124	0.001	354437	WORD_OFF	n/a	n/a	TOE	12	2	[0, 0, 0]	n/a	FR1	0	R1354E
353.125	0.016	354437	ENCODING_END	n/a	n/a	n/a	-999	2	[0, 0, 0]	n/a	FR1	0	R1354E
353.141	0.0	354449	PROB	2.325	n/a	n/a	-999	2	[6, 7, 4]	17.0	FR1	0	R1354E
353.125	2.366	354451	DISTRACT_START	n/a	n/a	n/a	-999	2	[0, 0, 0]	n/a	FR1	0	R1354E
355.491	2.134	356799	PROB	2.102	n/a	n/a	-999	2	[8, 6, 5]	19.0	FR1	0	R1354E
357.625	1.634	358933	PROB	1.608	n/a	n/a	-999	2	[5, 7, 8]	20.0	FR1	0	R1354E
359.259	1.766	360567	PROB	1.734	n/a	n/a	-999	2	[7, 2, 1]	10.0	FR1	0	R1354E
361.025	2.768	362333	PROB	2.737	n/a	n/a	-999	2	[3, 2, 8]	13.0	FR1	0	R1354E
363.793	4.149	365100	PROB	4.119	n/a	n/a	-999	2	[5, 1, 9]	15.0	FR1	0	R1354E
367.942	1.167	369249	PROB	1.13	n/a	n/a	-999	2	[4, 8, 2]	12.0	FR1	0	R1354E
369.109	2.602	370416	PROB	2.564	n/a	n/a	-999	2	[2, 5, 1]	8.0	FR1	0	R1354E
371.711	1.586	373018	PROB	1.586	n/a	n/a	-999	2	[3, 1, 3]	7.0	FR1	0	R1354E
373.297	0.014	374604	STOP	n/a	n/a	n/a	-999	2	[-999, -999, -999]	n/a	FR1	0	R1354E
373.311	2.184	374612	DISTRACT_END	n/a	n/a	n/a	-999	2	[0, 0, 0]	n/a	FR1	0	R1354E
375.495	0.0	376802	REC_WORD	0.0	n/a	BOAT	7	2	[0, 0, 0]	n/a	FR1	0	R1354E
375.495	0.736	376805	REC_START	n/a	n/a	n/a	-999	2	[0, 0, 0]	n/a	FR1	0	R1354E
376.231	1.601	377538	REC_WORD	0.736	n/a	THUMB	3	2	[0, 0, 0]	n/a	FR1	0	R1354E
377.832	1.77	379139	REC_WORD	2.337	n/a	TOE	12	2	[0, 0, 0]	n/a	FR1	0	R1354E
379.602	20.738	380909	REC_WORD	4.107	n/a	TIE	6	2	[0, 0, 0]	n/a	FR1	0	R1354E
400.34	5.168	401646	REC_WORD	24.845	n/a	POOL	1	2	[0, 0, 0]	n/a	FR1	0	R1354E
405.508	9.378	406831	REC_END	n/a	n/a	n/a	-999	2	[0, 0, 0]	n/a	FR1	0	R1354E
414.886	10.0	416220	COUNTDOWN_START	n/a	n/a	n/a	-999	3	[0, 0, 0]	n/a	FR1	0	R1354E
425.314	1.107	426615	COUNTDOWN_END	n/a	n/a	n/a	-999	3	[0, 0, 0]	n/a	FR1	0	R1354E
426.421	0.903	427719	ENCODING_START	n/a	n/a	n/a	-999	3	[0, 0, 0]	n/a	FR1	0	R1354E
427.324	1.6	428627	WORD	n/a	wordpools/wordpool_EN.txt	PEARL	1	3	[0, 0, 0]	n/a	FR1	0	R1354E
428.953	0.879	430248	WORD_OFF	n/a	n/a	PEARL	1	3	[0, 0, 0]	n/a	FR1	0	R1354E
429.832	1.6	431128	WORD	n/a	wordpools/wordpool_EN.txt	EEL	2	3	[0, 0, 0]	n/a	FR1	0	R1354E
431.455	0.898	432749	WORD_OFF	n/a	n/a	EEL	2	3	[0, 0, 0]	n/a	FR1	0	R1354E
432.353	1.6	433671	WORD	n/a	wordpools/wordpool_EN.txt	CLOCK	3	3	[0, 0, 0]	n/a	FR1	0	R1354E
433.987	1.046	435292	WORD_OFF	n/a	n/a	CLOCK	3	3	[0, 0, 0]	n/a	FR1	0	R1354E
435.033	1.6	436339	WORD	n/a	wordpools/wordpool_EN.txt	ROOF	4	3	[0, 0, 0]	n/a	FR1	0	R1354E
436.656	0.869	437946	WORD_OFF	n/a	n/a	ROOF	4	3	[0, 0, 0]	n/a	FR1	0	R1354E
437.525	1.6	438840	WORD	n/a	wordpools/wordpool_EN.txt	SQUARE	5	3	[0, 0, 0]	n/a	FR1	0	R1354E
439.156	0.906	440447	WORD_OFF	n/a	n/a	SQUARE	5	3	[0, 0, 0]	n/a	FR1	0	R1354E
440.062	1.6	441369	WORD	n/a	wordpools/wordpool_EN.txt	ROOM	6	3	[0, 0, 0]	n/a	FR1	0	R1354E
441.69	0.934	442990	WORD_OFF	n/a	n/a	ROOM	6	3	[0, 0, 0]	n/a	FR1	0	R1354E
442.624	1.6	443940	WORD	n/a	wordpools/wordpool_EN.txt	SPARK	7	3	[0, 0, 0]	n/a	FR1	0	R1354E
444.257	0.848	445547	WORD_OFF	n/a	n/a	SPARK	7	3	[0, 0, 0]	n/a	FR1	0	R1354E
445.105	1.6	446427	WORD	n/a	wordpools/wordpool_EN.txt	ROOT	8	3	[0, 0, 0]	n/a	FR1	0	R1354E
446.741	0.766	448034	WORD_OFF	n/a	n/a	ROOT	8	3	[0, 0, 0]	n/a	FR1	0	R1354E
447.507	1.6	448816	WORD	n/a	wordpools/wordpool_EN.txt	HAND	9	3	[0, 0, 0]	n/a	FR1	0	R1354E
449.141	0.923	450437	WORD_OFF	n/a	n/a	HAND	9	3	[0, 0, 0]	n/a	FR1	0	R1354E
450.064	1.6	451373	WORD	n/a	wordpools/wordpool_EN.txt	CRANE	10	3	[0, 0, 0]	n/a	FR1	0	R1354E
451.675	0.812	452966	WORD_OFF	n/a	n/a	CRANE	10	3	[0, 0, 0]	n/a	FR1	0	R1354E
452.487	1.6	453790	WORD	n/a	wordpools/wordpool_EN.txt	ICE	11	3	[0, 0, 0]	n/a	FR1	0	R1354E
454.108	0.823	455411	WORD_OFF	n/a	n/a	ICE	11	3	[0, 0, 0]	n/a	FR1	0	R1354E
454.931	1.6	456235	WORD	n/a	wordpools/wordpool_EN.txt	TEA	12	3	[0, 0, 0]	n/a	FR1	0	R1354E
456.56	0.0	457864	START	n/a	n/a	n/a	-999	3	[-999, -999, -999]	n/a	FR1	0	R1354E
456.559	0.0	457870	WORD_OFF	n/a	n/a	TEA	12	3	[0, 0, 0]	n/a	FR1	0	R1354E
456.559	0.001	457870	ENCODING_END	n/a	n/a	n/a	-999	3	[0, 0, 0]	n/a	FR1	0	R1354E
456.56	0.016	457870	DISTRACT_START	n/a	n/a	n/a	-999	3	[0, 0, 0]	n/a	FR1	0	R1354E
456.576	2.532	457880	PROB	2.495	n/a	n/a	-999	3	[1, 8, 8]	17.0	FR1	0	R1354E
459.108	1.867	460412	PROB	1.844	n/a	n/a	-999	3	[7, 4, 8]	19.0	FR1	0	R1354E
460.975	2.984	462279	PROB	2.953	n/a	n/a	-999	3	[4, 7, 3]	14.0	FR1	0	R1354E
463.959	2.017	465263	PROB	1.984	n/a	n/a	-999	3	[9, 8, 5]	22.0	FR1	0	R1354E
465.976	2.368	467280	PROB	2.344	n/a	n/a	-999	3	[4, 3, 7]	14.0	FR1	0	R1354E
468.344	2.534	469648	PROB	2.512	n/a	n/a	-999	3	[1, 2, 8]	12.0	FR1	0	R1354E
470.878	1.567	472182	PROB	1.53	n/a	n/a	-999	3	[1, 8, 7]	16.0	FR1	0	R1354E
472.445	1.583	473749	PROB	1.547	n/a	n/a	-999	3	[3, 5, 4]	12.0	FR1	0	R1354E
474.028	2.151	475332	PROB	2.116	n/a	n/a	-999	3	[7, 7, 8]	22.0	FR1	0	R1354E
476.179	1.598	477483	PROB	1.598	n/a	n/a	-999	3	[1, 8, 5]	14.0	FR1	0	R1354E
477.777	0.019	479080	STOP	n/a	n/a	n/a	-999	3	[-999, -999, -999]	n/a	FR1	0	R1354E
477.796	2.351	479093	DISTRACT_END	n/a	n/a	n/a	-999	3	[0, 0, 0]	n/a	FR1	0	R1354E
480.147	0.0	481450	REC_WORD	0.0	n/a	CLOCK	3	3	[0, 0, 0]	n/a	FR1	0	R1354E
480.147	0.853	481454	REC_START	n/a	n/a	n/a	-999	3	[0, 0, 0]	n/a	FR1	0	R1354E
481.0	0.957	482303	REC_WORD	0.853	n/a	ROOF	4	3	[0, 0, 0]	n/a	FR1	0	R1354E
481.957	2.95	483260	REC_WORD	1.81	n/a	ROOM	6	3	[0, 0, 0]	n/a	FR1	0	R1354E
484.907	3.651	486210	REC_WORD	4.76	n/a	SQUARE	5	3	[0, 0, 0]	n/a	FR1	0	R1354E
488.558	2.456	489861	REC_WORD	8.411	n/a	TIN	-999	3	[0, 0, 0]	n/a	FR1	0	R1354E
491.014	3.613	492317	REC_WORD	10.867	n/a	HAND	9	3	[0, 0, 0]	n/a	FR1	0	R1354E
494.627	6.348	495930	REC_WORD	14.48	n/a	CLOCK	3	3	[0, 0, 0]	n/a	FR1	0	R1354E
500.975	0.756	502278	REC_WORD	20.828	n/a	ROOM	6	3	[0, 0, 0]	n/a	FR1	0	R1354E
501.731	8.428	503034	REC_WORD	21.584	n/a	ROOF	4	3	[0, 0, 0]	n/a	FR1	0	R1354E
510.159	6.111	511480	REC_END	n/a	n/a	n/a	-999	3	[0, 0, 0]	n/a	FR1	0	R1354E
516.27	10.0	517600	COUNTDOWN_START	n/a	n/a	n/a	-999	4	[0, 0, 0]	n/a	FR1	0	R1354E
526.698	1.191	527995	COUNTDOWN_END	n/a	n/a	n/a	-999	4	[0, 0, 0]	n/a	FR1	0	R1354E
527.889	0.862	529182	ENCODING_START	n/a	n/a	n/a	-999	4	[0, 0, 0]	n/a	FR1	0	R1354E
528.751	1.6	530048	WORD	n/a	wordpools/wordpool_EN.txt	TRASH	1	4	[0, 0, 0]	n/a	FR1	0	R1354E
530.372	0.76	531669	WORD_OFF	n/a	n/a	TRASH	1	4	[0, 0, 0]	n/a	FR1	0	R1354E
531.132	1.6	532438	WORD	n/a	wordpools/wordpool_EN.txt	BANK	2	4	[0, 0, 0]	n/a	FR1	0	R1354E
532.756	0.846	534044	WORD_OFF	n/a	n/a	BANK	2	4	[0, 0, 0]	n/a	FR1	0	R1354E
533.602	1.6	534911	WORD	n/a	wordpools/wordpool_EN.txt	SPONGE	3	4	[0, 0, 0]	n/a	FR1	0	R1354E
535.239	1.121	536531	WORD_OFF	n/a	n/a	SPONGE	3	4	[0, 0, 0]	n/a	FR1	0	R1354E
536.36	1.6	537663	WORD	n/a	wordpools/wordpool_EN.txt	BRICK	4	4	[0, 0, 0]	n/a	FR1	0	R1354E
537.989	0.783	539284	WORD_OFF	n/a	n/a	BRICK	4	4	[0, 0, 0]	n/a	FR1	0	R1354E
538.772	1.6	540080	WORD	n/a	wordpools/wordpool_EN.txt	CAVE	5	4	[0, 0, 0]	n/a	FR1	0	R1354E
540.407	1.093	541701	WORD_OFF	n/a	n/a	CAVE	5	4	[0, 0, 0]	n/a	FR1	0	R1354E
541.5	1.6	542805	WORD	n/a	wordpools/wordpool_EN.txt	DRUM	6	4	[0, 0, 0]	n/a	FR1	0	R1354E
543.124	0.8	544411	WORD_OFF	n/a	n/a	DRUM	6	4	[0, 0, 0]	n/a	FR1	0	R1354E
543.924	1.6	545236	WORD	n/a	wordpools/wordpool_EN.txt	ELF	7	4	[0, 0, 0]	n/a	FR1	0	R1354E
545.558	0.803	546856	WORD_OFF	n/a	n/a	ELF	7	4	[0, 0, 0]	n/a	FR1	0	R1354E
546.361	1.6	547667	WORD	n/a	wordpools/wordpool_EN.txt	STOVE	8	4	[0, 0, 0]	n/a	FR1	0	R1354E
547.991	1.088	549288	WORD_OFF	n/a	n/a	STOVE	8	4	[0, 0, 0]	n/a	FR1	0	R1354E
549.079	1.6	550391	WORD	n/a	wordpools/wordpool_EN.txt	MOLE	9	4	[0, 0, 0]	n/a	FR1	0	R1354E
550.708	0.953	551998	WORD_OFF	n/a	n/a	MOLE	9	4	[0, 0, 0]	n/a	FR1	0	R1354E
551.661	1.6	552962	WORD	n/a	wordpools/wordpool_EN.txt	CUP	10	4	[0, 0, 0]	n/a	FR1	0	R1354E
553.293	0.997	554583	WORD_OFF	n/a	n/a	CUP	10	4	[0, 0, 0]	n/a	FR1	0	R1354E
554.29	1.6	555603	WORD	n/a	wordpools/wordpool_EN.txt	MAZE	11	4	[0, 0, 0]	n/a	FR1	0	R1354E
555.925	1.13	557224	WORD_OFF	n/a	n/a	MAZE	11	4	[0, 0, 0]	n/a	FR1	0	R1354E
557.055	1.6	558355	WORD	n/a	wordpools/wordpool_EN.txt	TRAIN	12	4	[0, 0, 0]	n/a	FR1	0	R1354E
558.661	0.0	559962	START	n/a	n/a	n/a	-999	4	[-999, -999, -999]	n/a	FR1	0	R1354E
558.66	0.001	559976	WORD_OFF	n/a	n/a	TRAIN	12	4	[0, 0, 0]	n/a	FR1	0	R1354E
558.661	0.0	559976	ENCODING_END	n/a	n/a	n/a	-999	4	[0, 0, 0]	n/a	FR1	0	R1354E
558.661	0.016	559976	DISTRACT_START	n/a	n/a	n/a	-999	4	[0, 0, 0]	n/a	FR1	0	R1354E
558.677	2.667	559978	PROB	2.641	n/a	n/a	-999	4	[1, 1, 7]	9.0	FR1	0	R1354E
561.344	2.083	562645	PROB	2.046	n/a	n/a	-999	4	[2, 6, 8]	16.0	FR1	0	R1354E
563.427	2.067	564727	PROB	2.035	n/a	n/a	-999	4	[2, 4, 1]	7.0	FR1	0	R1354E
565.494	2.868	566794	PROB	2.84	n/a	n/a	-999	4	[4, 3, 9]	16.0	FR1	0	R1354E
568.362	1.783	569662	PROB	1.747	n/a	n/a	-999	4	[7, 5, 8]	20.0	FR1	0	R1354E
570.145	2.001	571445	PROB	1.964	n/a	n/a	-999	4	[9, 8, 5]	22.0	FR1	0	R1354E
572.146	2.317	573446	PROB	2.284	n/a	n/a	-999	4	[9, 2, 4]	15.0	FR1	0	R1354E
574.463	1.933	575763	PROB	1.895	n/a	n/a	-999	4	[3, 5, 2]	10.0	FR1	0	R1354E
576.396	2.184	577696	PROB	2.146	n/a	n/a	-999	4	[2, 8, 8]	18.0	FR1	0	R1354E
578.58	2.01	579880	PROB	2.01	n/a	n/a	-999	4	[9, 9, 5]	23.0	FR1	0	R1354E
580.59	0.007	581890	STOP	n/a	n/a	n/a	-999	4	[-999, -999, -999]	n/a	FR1	0	R1354E
580.597	2.084	581898	DISTRACT_END	n/a	n/a	n/a	-999	4	[0, 0, 0]	n/a	FR1	0	R1354E
582.681	2.23	583980	REC_START	n/a	n/a	n/a	-999	4	[0, 0, 0]	n/a	FR1	0	R1354E
584.911	2.726	586211	REC_WORD	2.23	n/a	MOLE	9	4	[0, 0, 0]	n/a	FR1	0	R1354E
587.637	1.25	588937	REC_WORD	4.956	n/a	MAZE	11	4	[0, 0, 0]	n/a	FR1	0	R1354E
588.887	23.807	590187	REC_WORD	6.206	n/a	TRAIN	12	4	[0, 0, 0]	n/a	FR1	0	R1354E
612.694	44.4	614005	REC_END	n/a	n/a	n/a	-999	4	[0, 0, 0]	n/a	FR1	0	R1354E
657.094	10.0	658421	COUNTDOWN_START	n/a	n/a	n/a	-999	5	[0, 0, 0]	n/a	FR1	0	R1354E
667.522	1.241	668816	COUNTDOWN_END	n/a	n/a	n/a	-999	5	[0, 0, 0]	n/a	FR1	0	R1354E
668.763	1.072	670060	ENCODING_START	n/a	n/a	n/a	-999	5	[0, 0, 0]	n/a	FR1	0	R1354E
669.835	1.6	671136	WORD	n/a	wordpools/wordpool_EN.txt	MOUSE	1	5	[0, 0, 0]	n/a	FR1	0	R1354E
671.463	0.906	672757	WORD_OFF	n/a	n/a	MOUSE	1	5	[0, 0, 0]	n/a	FR1	0	R1354E
672.369	1.6	673665	WORD	n/a	wordpools/wordpool_EN.txt	RUG	2	5	[0, 0, 0]	n/a	FR1	0	R1354E
673.996	0.792	675285	WORD_OFF	n/a	n/a	RUG	2	5	[0, 0, 0]	n/a	FR1	0	R1354E
674.788	1.6	676082	WORD	n/a	wordpools/wordpool_EN.txt	BADGE	3	5	[0, 0, 0]	n/a	FR1	0	R1354E
676.414	0.828	677703	WORD_OFF	n/a	n/a	BADGE	3	5	[0, 0, 0]	n/a	FR1	0	R1354E
677.242	1.6	678541	WORD	n/a	wordpools/wordpool_EN.txt	ARK	4	5	[0, 0, 0]	n/a	FR1	0	R1354E
678.864	0.803	680148	WORD_OFF	n/a	n/a	ARK	4	5	[0, 0, 0]	n/a	FR1	0	R1354E
679.667	1.6	680972	WORD	n/a	wordpools/wordpool_EN.txt	SOCK	5	5	[0, 0, 0]	n/a	FR1	0	R1354E
681.298	0.865	682593	WORD_OFF	n/a	n/a	SOCK	5	5	[0, 0, 0]	n/a	FR1	0	R1354E
682.163	1.6	683473	WORD	n/a	wordpools/wordpool_EN.txt	BALL	6	5	[0, 0, 0]	n/a	FR1	0	R1354E
683.799	0.929	685094	WORD_OFF	n/a	n/a	BALL	6	5	[0, 0, 0]	n/a	FR1	0	R1354E
684.728	1.6	686016	WORD	n/a	wordpools/wordpool_EN.txt	WORLD	7	5	[0, 0, 0]	n/a	FR1	0	R1354E
686.349	0.933	687637	WORD_OFF	n/a	n/a	WORLD	7	5	[0, 0, 0]	n/a	FR1	0	R1354E
687.282	1.6	688587	WORD	n/a	wordpools/wordpool_EN.txt	ROPE	8	5	[0, 0, 0]	n/a	FR1	0	R1354E
688.915	0.913	690207	WORD_OFF	n/a	n/a	ROPE	8	5	[0, 0, 0]	n/a	FR1	0	R1354E
689.828	1.6	691116	WORD	n/a	wordpools/wordpool_EN.txt	ROAD	9	5	[0, 0, 0]	n/a	FR1	0	R1354E
691.45	1.095	692736	WORD_OFF	n/a	n/a	ROAD	9	5	[0, 0, 0]	n/a	FR1	0	R1354E
692.545	1.6	693840	WORD	n/a	wordpools/wordpool_EN.txt	VEST	10	5	[0, 0, 0]	n/a	FR1	0	R1354E
694.167	1.048	695461	WORD_OFF	n/a	n/a	VEST	10	5	[0, 0, 0]	n/a	FR1	0	R1354E
695.215	1.6	696523	WORD	n/a	wordpools/wordpool_EN.txt	PLANT	11	5	[0, 0, 0]	n/a	FR1	0	R1354E
696.851	1.08	698143	WORD_OFF	n/a	n/a	PLANT	11	5	[0, 0, 0]	n/a	FR1	0	R1354E
697.931	1.6	699233	WORD	n/a	wordpools/wordpool_EN.txt	FLAME	12	5	[0, 0, 0]	n/a	FR1	0	R1354E
699.569	0.0	700865	START	n/a	n/a	n/a	-999	5	[-999, -999, -999]	n/a	FR1	0	R1354E
699.568	0.001	700868	WORD_OFF	n/a	n/a	FLAME	12	5	[0, 0, 0]	n/a	FR1	0	R1354E
699.569	0.016	700868	ENCODING_END	n/a	n/a	n/a	-999	5	[0, 0, 0]	n/a	FR1	0	R1354E
699.585	0.0	700881	PROB	3.031	n/a	n/a	-999	5	[1, 5, 3]	9.0	FR1	0	R1354E
699.569	3.083	700882	DISTRACT_START	n/a	n/a	n/a	-999	5	[0, 0, 0]	n/a	FR1	0	R1354E
702.652	2.383	703948	PROB	2.355	n/a	n/a	-999	5	[3, 9, 8]	20.0	FR1	0	R1354E
705.035	1.851	706330	PROB	1.813	n/a	n/a	-999	5	[1, 5, 9]	15.0	FR1	0	R1354E
706.886	2.017	708181	PROB	1.986	n/a	n/a	-999	5	[8, 5, 7]	20.0	FR1	0	R1354E
708.903	1.433	710198	PROB	1.401	n/a	n/a	-999	5	[1, 6, 3]	10.0	FR1	0	R1354E
710.336	1.884	711631	PROB	1.848	n/a	n/a	-999	5	[8, 8, 2]	18.0	FR1	0	R1354E
712.22	1.917	713515	PROB	1.884	n/a	n/a	-999	5	[7, 3, 4]	14.0	FR1	0	R1354E
714.137	3.85	715432	PROB	3.823	n/a	n/a	-999	5	[6, 1, 9]	16.0	FR1	0	R1354E
717.987	3.813	719282	PROB	3.813	n/a	n/a	-999	5	[9, 8, 8]	25.0	FR1	0	R1354E
721.8	0.022	723095	STOP	n/a	n/a	n/a	-999	5	[-999, -999, -999]	n/a	FR1	0	R1354E
721.822	2.15	723111	DISTRACT_END	n/a	n/a	n/a	-999	5	[0, 0, 0]	n/a	FR1	0	R1354E
723.972	0.0	725267	REC_WORD_VV	0.0	n/a	<>	-999	5	[0, 0, 0]	n/a	FR1	0	R1354E
723.972	1.517	725277	REC_START	n/a	n/a	n/a	-999	5	[0, 0, 0]	n/a	FR1	0	R1354E
725.489	1.542	726784	REC_WORD	1.517	n/a	BALL	6	5	[0, 0, 0]	n/a	FR1	0	R1354E
727.031	2.809	728326	REC_WORD	3.059	n/a	ROPE	8	5	[0, 0, 0]	n/a	FR1	0	R1354E
729.84	1.0	731135	REC_WORD_VV	5.868	n/a	<>	-999	5	[0, 0, 0]	n/a	FR1	0	R1354E
730.84	8.194	732135	REC_WORD_VV	6.868	n/a	<>	-999	5	[0, 0, 0]	n/a	FR1	0	R1354E
739.034	3.65	740328	REC_WORD	15.062	n/a	ARK	4	5	[0, 0, 0]	n/a	FR1	0	R1354E
742.684	9.668	743978	REC_WORD	18.712	n/a	BADGE	3	5	[0, 0, 0]	n/a	FR1	0	R1354E
752.352	1.634	753646	REC_WORD	28.38	n/a	RUG	2	5	[0, 0, 0]	n/a	FR1	0	R1354E
753.986	16.977	755288	REC_END	n/a	n/a	n/a	-999	5	[0, 0, 0]	n/a	FR1	0	R1354E
770.963	10.0	772278	COUNTDOWN_START	n/a	n/a	n/a	-999	6	[0, 0, 0]	n/a	FR1	0	R1354E
781.392	1.191	782687	COUNTDOWN_END	n/a	n/a	n/a	-999	6	[0, 0, 0]	n/a	FR1	0	R1354E
782.583	1.092	783874	ENCODING_START	n/a	n/a	n/a	-999	6	[0, 0, 0]	n/a	FR1	0	R1354E
783.675	1.6	784964	WORD	n/a	wordpools/wordpool_EN.txt	SNOW	1	6	[0, 0, 0]	n/a	FR1	0	R1354E
785.3	0.943	786585	WORD_OFF	n/a	n/a	SNOW	1	6	[0, 0, 0]	n/a	FR1	0	R1354E
786.243	1.6	787535	WORD	n/a	wordpools/wordpool_EN.txt	SWAMP	2	6	[0, 0, 0]	n/a	FR1	0	R1354E
787.867	0.893	789156	WORD_OFF	n/a	n/a	SWAMP	2	6	[0, 0, 0]	n/a	FR1	0	R1354E
788.76	1.6	790050	WORD	n/a	wordpools/wordpool_EN.txt	VASE	3	6	[0, 0, 0]	n/a	FR1	0	R1354E
790.384	0.846	791671	WORD_OFF	n/a	n/a	VASE	3	6	[0, 0, 0]	n/a	FR1	0	R1354E
791.23	1.6	792523	WORD	n/a	wordpools/wordpool_EN.txt	SOUP	4	6	[0, 0, 0]	n/a	FR1	0	R1354E
792.851	1.032	794130	WORD_OFF	n/a	n/a	SOUP	4	6	[0, 0, 0]	n/a	FR1	0	R1354E
793.883	1.6	795192	WORD	n/a	wordpools/wordpool_EN.txt	BOARD	5	6	[0, 0, 0]	n/a	FR1	0	R1354E
795.518	0.989	796798	WORD_OFF	n/a	n/a	BOARD	5	6	[0, 0, 0]	n/a	FR1	0	R1354E
796.507	1.6	797804	WORD	n/a	wordpools/wordpool_EN.txt	WORM	6	6	[0, 0, 0]	n/a	FR1	0	R1354E
798.135	1.02	799425	WORD_OFF	n/a	n/a	WORM	6	6	[0, 0, 0]	n/a	FR1	0	R1354E
799.155	1.6	800459	WORD	n/a	wordpools/wordpool_EN.txt	MUG	7	6	[0, 0, 0]	n/a	FR1	0	R1354E
800.785	0.961	802066	WORD_OFF	n/a	n/a	MUG	7	6	[0, 0, 0]	n/a	FR1	0	R1354E
801.746	1.6	803030	WORD	n/a	wordpools/wordpool_EN.txt	HEN	8	6	[0, 0, 0]	n/a	FR1	0	R1354E
803.37	1.109	804650	WORD_OFF	n/a	n/a	HEN	8	6	[0, 0, 0]	n/a	FR1	0	R1354E
804.479	1.6	805768	WORD	n/a	wordpools/wordpool_EN.txt	MULE	9	6	[0, 0, 0]	n/a	FR1	0	R1354E
806.102	0.898	807389	WORD_OFF	n/a	n/a	MULE	9	6	[0, 0, 0]	n/a	FR1	0	R1354E
807.0	1.6	808311	WORD	n/a	wordpools/wordpool_EN.txt	THREAD	10	6	[0, 0, 0]	n/a	FR1	0	R1354E
808.62	0.976	809904	WORD_OFF	n/a	n/a	THREAD	10	6	[0, 0, 0]	n/a	FR1	0	R1354E
809.596	1.6	810882	WORD	n/a	wordpools/wordpool_EN.txt	RICE	11	6	[0, 0, 0]	n/a	FR1	0	R1354E
811.221	1.147	812503	WORD_OFF	n/a	n/a	RICE	11	6	[0, 0, 0]	n/a	FR1	0	R1354E
812.368	1.6	813676	WORD	n/a	wordpools/wordpool_EN.txt	STICK	12	6	[0, 0, 0]	n/a	FR1	0	R1354E
814.005	0.0	815297	START	n/a	n/a	n/a	-999	6	[-999, -999, -999]	n/a	FR1	0	R1354E
814.004	0.0	815311	WORD_OFF	n/a	n/a	STICK	12	6	[0, 0, 0]	n/a	FR1	0	R1354E
814.004	0.001	815311	ENCODING_END	n/a	n/a	n/a	-999	6	[0, 0, 0]	n/a	FR1	0	R1354E
814.005	0.015	815311	DISTRACT_START	n/a	n/a	n/a	-999	6	[0, 0, 0]	n/a	FR1	0	R1354E
814.02	2.302	815312	PROB	2.268	n/a	n/a	-999	6	[9, 5, 3]	17.0	FR1	0	R1354E
816.322	1.317	817614	PROB	1.278	n/a	n/a	-999	6	[3, 1, 7]	11.0	FR1	0	R1354E
817.639	1.465	818930	PROB	1.44	n/a	n/a	-999	6	[4, 1, 5]	10.0	FR1	0	R1354E
819.104	1.485	820395	PROB	1.456	n/a	n/a	-999	6	[2, 1, 7]	10.0	FR1	0	R1354E
820.589	1.499	821880	PROB	1.466	n/a	n/a	-999	6	[4, 7, 1]	12.0	FR1	0	R1354E
822.088	1.752	823379	PROB	1.72	n/a	n/a	-999	6	[4, 4, 6]	14.0	FR1	0	R1354E
823.84	1.65	825131	PROB	1.624	n/a	n/a	-999	6	[4, 5, 4]	13.0	FR1	0	R1354E
825.49	1.733	826781	PROB	1.71	n/a	n/a	-999	6	[3, 1, 1]	5.0	FR1	0	R1354E
827.223	1.833	828514	PROB	1.808	n/a	n/a	-999	6	[6, 5, 7]	20.0	FR1	0	R1354E
829.056	1.318	830347	PROB	1.296	n/a	n/a	-999	6	[9, 9, 4]	2.0	FR1	0	R1354E
830.374	3.134	831665	PROB	3.106	n/a	n/a	-999	6	[3, 9, 7]	19.0	FR1	0	R1354E
833.508	1.53	834799	PROB	1.53	n/a	n/a	-999	6	[2, 4, 7]	13.0	FR1	0	R1354E
835.038	0.02	836329	STOP	n/a	n/a	n/a	-999	6	[-999, -999, -999]	n/a	FR1	0	R1354E
835.058	2.385	836339	DISTRACT_END	n/a	n/a	n/a	-999	6	[0, 0, 0]	n/a	FR1	0	R1354E
837.443	2.592	838742	REC_START	n/a	n/a	n/a	-999	6	[0, 0, 0]	n/a	FR1	0	R1354E
840.035	3.011	841326	REC_WORD	2.592	n/a	MUG	7	6	[0, 0, 0]	n/a	FR1	0	R1354E
843.046	24.408	844337	REC_WORD	5.603	n/a	MULE	9	6	[0, 0, 0]	n/a	FR1	0	R1354E
867.454	12.846	868753	REC_END	n/a	n/a	n/a	-999	6	[0, 0, 0]	n/a	FR1	0	R1354E
880.3	10.0	881621	COUNTDOWN_START	n/a	n/a	n/a	-999	7	[0, 0, 0]	n/a	FR1	0	R1354E
890.729	1.057	892016	COUNTDOWN_END	n/a	n/a	n/a	-999	7	[0, 0, 0]	n/a	FR1	0	R1354E
891.786	0.845	893064	ENCODING_START	n/a	n/a	n/a	-999	7	[0, 0, 0]	n/a	FR1	0	R1354E
892.631	1.6	893916	WORD	n/a	wordpools/wordpool_EN.txt	STOOL	1	7	[0, 0, 0]	n/a	FR1	0	R1354E
894.252	0.896	895537	WORD_OFF	n/a	n/a	STOOL	1	7	[0, 0, 0]	n/a	FR1	0	R1354E
895.148	1.6	896431	WORD	n/a	wordpools/wordpool_EN.txt	STORM	2	7	[0, 0, 0]	n/a	FR1	0	R1354E
896.769	0.817	898052	WORD_OFF	n/a	n/a	STORM	2	7	[0, 0, 0]	n/a	FR1	0	R1354E
897.586	1.6	898876	WORD	n/a	wordpools/wordpool_EN.txt	GOAT	3	7	[0, 0, 0]	n/a	FR1	0	R1354E
899.22	0.765	900497	WORD_OFF	n/a	n/a	GOAT	3	7	[0, 0, 0]	n/a	FR1	0	R1354E
899.985	1.6	901280	WORD	n/a	wordpools/wordpool_EN.txt	HORN	4	7	[0, 0, 0]	n/a	FR1	0	R1354E
901.62	0.963	902900	WORD_OFF	n/a	n/a	HORN	4	7	[0, 0, 0]	n/a	FR1	0	R1354E
902.583	1.6	903864	WORD	n/a	wordpools/wordpool_EN.txt	BAG	5	7	[0, 0, 0]	n/a	FR1	0	R1354E
904.204	0.953	905485	WORD_OFF	n/a	n/a	BAG	5	7	[0, 0, 0]	n/a	FR1	0	R1354E
905.157	1.6	906449	WORD	n/a	wordpools/wordpool_EN.txt	COW	6	7	[0, 0, 0]	n/a	FR1	0	R1354E
906.788	1.01	908070	WORD_OFF	n/a	n/a	COW	6	7	[0, 0, 0]	n/a	FR1	0	R1354E
907.798	1.6	909090	WORD	n/a	wordpools/wordpool_EN.txt	HOUSE	7	7	[0, 0, 0]	n/a	FR1	0	R1354E
909.421	0.886	910697	WORD_OFF	n/a	n/a	HOUSE	7	7	[0, 0, 0]	n/a	FR1	0	R1354E
910.307	1.6	911605	WORD	n/a	wordpools/wordpool_EN.txt	FOOD	8	7	[0, 0, 0]	n/a	FR1	0	R1354E
911.937	0.836	913225	WORD_OFF	n/a	n/a	FOOD	8	7	[0, 0, 0]	n/a	FR1	0	R1354E
912.773	1.6	914064	WORD	n/a	wordpools/wordpool_EN.txt	FORT	9	7	[0, 0, 0]	n/a	FR1	0	R1354E
914.405	0.95	915685	WORD_OFF	n/a	n/a	FORT	9	7	[0, 0, 0]	n/a	FR1	0	R1354E
915.355	1.6	916649	WORD	n/a	wordpools/wordpool_EN.txt	WEB	10	7	[0, 0, 0]	n/a	FR1	0	R1354E
916.988	1.144	918269	WORD_OFF	n/a	n/a	WEB	10	7	[0, 0, 0]	n/a	FR1	0	R1354E
918.132	1.6	919415	WORD	n/a	wordpools/wordpool_EN.txt	NEST	11	7	[0, 0, 0]	n/a	FR1	0	R1354E
919.756	0.768	921036	WORD_OFF	n/a	n/a	NEST	11	7	[0, 0, 0]	n/a	FR1	0	R1354E
920.524	1.6	921818	WORD	n/a	wordpools/wordpool_EN.txt	AXE	12	7	[0, 0, 0]	n/a	FR1	0	R1354E
922.158	0.0	923446	START	n/a	n/a	n/a	-999	7	[-999, -999, -999]	n/a	FR1	0	R1354E
922.157	0.0	923453	WORD_OFF	n/a	n/a	AXE	12	7	[0, 0, 0]	n/a	FR1	0	R1354E
922.157	0.001	923453	ENCODING_END	n/a	n/a	n/a	-999	7	[0, 0, 0]	n/a	FR1	0	R1354E
922.158	0.015	923453	DISTRACT_START	n/a	n/a	n/a	-999	7	[0, 0, 0]	n/a	FR1	0	R1354E
922.173	2.351	923461	PROB	2.319	n/a	n/a	-999	7	[2, 3, 6]	11.0	FR1	0	R1354E
924.524	3.466	925812	PROB	3.439	n/a	n/a	-999	7	[6, 7, 3]	16.0	FR1	0	R1354E
927.99	1.95	929278	PROB	1.925	n/a	n/a	-999	7	[1, 9, 8]	18.0	FR1	0	R1354E
929.94	2.502	931227	PROB	2.472	n/a	n/a	-999	7	[1, 5, 3]	9.0	FR1	0	R1354E
932.442	3.434	933729	PROB	3.411	n/a	n/a	-999	7	[9, 1, 6]	16.0	FR1	0	R1354E
935.876	1.9	937163	PROB	1.873	n/a	n/a	-999	7	[5, 5, 7]	17.0	FR1	0	R1354E
937.776	1.183	939063	PROB	1.155	n/a	n/a	-999	7	[2, 7, 2]	11.0	FR1	0	R1354E
938.959	3.726	940246	PROB	3.726	n/a	n/a	-999	7	[8, 2, 8]	18.0	FR1	0	R1354E
942.685	0.009	943972	STOP	n/a	n/a	n/a	-999	7	[-999, -999, -999]	n/a	FR1	0	R1354E
942.694	2.117	943977	DISTRACT_END	n/a	n/a	n/a	-999	7	[0, 0, 0]	n/a	FR1	0	R1354E
944.811	0.0	946098	REC_WORD	0.0	n/a	STOOL	1	7	[0, 0, 0]	n/a	FR1	0	R1354E
944.811	0.744	946101	REC_START	n/a	n/a	n/a	-999	7	[0, 0, 0]	n/a	FR1	0	R1354E
945.555	1.0	946842	REC_WORD	0.744	n/a	STORM	2	7	[0, 0, 0]	n/a	FR1	0	R1354E
946.555	2.507	947842	REC_WORD_VV	1.744	n/a	<>	-999	7	[0, 0, 0]	n/a	FR1	0	R1354E
949.062	1.04	950349	REC_WORD	4.251	n/a	HORN	4	7	[0, 0, 0]	n/a	FR1	0	R1354E
950.102	11.588	951389	REC_WORD	5.291	n/a	HOME	-999	7	[0, 0, 0]	n/a	FR1	0	R1354E
961.69	3.987	962976	REC_WORD	16.879	n/a	ARM	-999	7	[0, 0, 0]	n/a	FR1	0	R1354E
965.677	9.149	966963	REC_WORD	20.866	n/a	ANT	-999	7	[0, 0, 0]	n/a	FR1	0	R1354E
974.826	20.361	976127	REC_END	n/a	n/a	n/a	-999	7	[0, 0, 0]	n/a	FR1	0	R1354E
995.187	10.0	996498	COUNTDOWN_START	n/a	n/a	n/a	-999	8	[0, 0, 0]	n/a	FR1	0	R1354E
1005.615	1.141	1006893	COUNTDOWN_END	n/a	n/a	n/a	-999	8	[0, 0, 0]	n/a	FR1	0	R1354E
1006.756	0.802	1008038	ENCODING_START	n/a	n/a	n/a	-999	8	[0, 0, 0]	n/a	FR1	0	R1354E
1007.558	1.6	1008849	WORD	n/a	wordpools/wordpool_EN.txt	DOCK	1	8	[0, 0, 0]	n/a	FR1	0	R1354E
1009.189	1.056	1010469	WORD_OFF	n/a	n/a	DOCK	1	8	[0, 0, 0]	n/a	FR1	0	R1354E
1010.245	1.6	1011531	WORD	n/a	wordpools/wordpool_EN.txt	SKUNK	2	8	[0, 0, 0]	n/a	FR1	0	R1354E
1011.873	0.813	1013152	WORD_OFF	n/a	n/a	SKUNK	2	8	[0, 0, 0]	n/a	FR1	0	R1354E
1012.686	1.6	1013976	WORD	n/a	wordpools/wordpool_EN.txt	MOOSE	3	8	[0, 0, 0]	n/a	FR1	0	R1354E
1014.323	1.001	1015597	WORD_OFF	n/a	n/a	MOOSE	3	8	[0, 0, 0]	n/a	FR1	0	R1354E
1015.324	1.6	1016617	WORD	n/a	wordpools/wordpool_EN.txt	FILM	4	8	[0, 0, 0]	n/a	FR1	0	R1354E
1016.956	1.145	1018238	WORD_OFF	n/a	n/a	FILM	4	8	[0, 0, 0]	n/a	FR1	0	R1354E
1018.101	1.6	1019383	WORD	n/a	wordpools/wordpool_EN.txt	EAR	5	8	[0, 0, 0]	n/a	FR1	0	R1354E
1019.724	0.967	1021004	WORD_OFF	n/a	n/a	EAR	5	8	[0, 0, 0]	n/a	FR1	0	R1354E
1020.691	1.6	1021982	WORD	n/a	wordpools/wordpool_EN.txt	SWORD	6	8	[0, 0, 0]	n/a	FR1	0	R1354E
1022.324	1.056	1023603	WORD_OFF	n/a	n/a	SWORD	6	8	[0, 0, 0]	n/a	FR1	0	R1354E
1023.38	1.6	1024665	WORD	n/a	wordpools/wordpool_EN.txt	PRINCE	7	8	[0, 0, 0]	n/a	FR1	0	R1354E
1025.007	1.06	1026285	WORD_OFF	n/a	n/a	PRINCE	7	8	[0, 0, 0]	n/a	FR1	0	R1354E
1026.067	1.6	1027347	WORD	n/a	wordpools/wordpool_EN.txt	DIME	8	8	[0, 0, 0]	n/a	FR1	0	R1354E
1027.692	1.138	1028968	WORD_OFF	n/a	n/a	DIME	8	8	[0, 0, 0]	n/a	FR1	0	R1354E
1028.83	1.6	1030114	WORD	n/a	wordpools/wordpool_EN.txt	SNAIL	9	8	[0, 0, 0]	n/a	FR1	0	R1354E
1030.459	0.851	1031734	WORD_OFF	n/a	n/a	SNAIL	9	8	[0, 0, 0]	n/a	FR1	0	R1354E
1031.31	1.6	1032601	WORD	n/a	wordpools/wordpool_EN.txt	MAP	10	8	[0, 0, 0]	n/a	FR1	0	R1354E
1032.942	0.993	1034221	WORD_OFF	n/a	n/a	MAP	10	8	[0, 0, 0]	n/a	FR1	0	R1354E
1033.935	1.6	1035213	WORD	n/a	wordpools/wordpool_EN.txt	SKY	11	8	[0, 0, 0]	n/a	FR1	0	R1354E
1035.544	1.102	1036820	WORD_OFF	n/a	n/a	SKY	11	8	[0, 0, 0]	n/a	FR1	0	R1354E
1036.646	1.6	1037938	WORD	n/a	wordpools/wordpool_EN.txt	WOLF	12	8	[0, 0, 0]	n/a	FR1	0	R1354E
1038.278	0.0	1039562	START	n/a	n/a	n/a	-999	8	[-999, -999, -999]	n/a	FR1	0	R1354E
1038.277	0.001	1039573	WORD_OFF	n/a	n/a	WOLF	12	8	[0, 0, 0]	n/a	FR1	0	R1354E
1038.278	0.0	1039573	ENCODING_END	n/a	n/a	n/a	-999	8	[0, 0, 0]	n/a	FR1	0	R1354E
1038.278	0.016	1039573	DISTRACT_START	n/a	n/a	n/a	-999	8	[0, 0, 0]	n/a	FR1	0	R1354E
1038.294	1.933	1039578	PROB	1.902	n/a	n/a	-999	8	[8, 4, 8]	20.0	FR1	0	R1354E
1040.227	4.201	1041511	PROB	4.169	n/a	n/a	-999	8	[3, 8, 4]	15.0	FR1	0	R1354E
1044.428	1.05	1045711	PROB	1.024	n/a	n/a	-999	8	[5, 1, 5]	11.0	FR1	0	R1354E
1045.478	2.184	1046761	PROB	2.15	n/a	n/a	-999	8	[2, 4, 6]	12.0	FR1	0	R1354E
1047.662	3.45	1048945	PROB	3.421	n/a	n/a	-999	8	[5, 3, 8]	16.0	FR1	0	R1354E
1051.112	2.234	1052395	PROB	2.212	n/a	n/a	-999	8	[7, 2, 5]	14.0	FR1	0	R1354E
1053.346	2.717	1054629	PROB	2.681	n/a	n/a	-999	8	[4, 7, 9]	20.0	FR1	0	R1354E
1056.063	2.533	1057346	PROB	2.533	n/a	n/a	-999	8	[1, 7, 9]	17.0	FR1	0	R1354E
1058.596	0.018	1059879	STOP	n/a	n/a	n/a	-999	8	[-999, -999, -999]	n/a	FR1	0	R1354E
1058.614	2.4	1059888	DISTRACT_END	n/a	n/a	n/a	-999	8	[0, 0, 0]	n/a	FR1	0	R1354E
1061.014	0.136	1062305	REC_START	n/a	n/a	n/a	-999	8	[0, 0, 0]	n/a	FR1	0	R1354E
1061.15	0.928	1062433	REC_WORD	0.136	n/a	MAP	10	8	[0, 0, 0]	n/a	FR1	0	R1354E
1062.078	1.262	1063361	REC_WORD	1.064	n/a	SKY	11	8	[0, 0, 0]	n/a	FR1	0	R1354E
1063.34	1.593	1064623	REC_WORD	2.326	n/a	WOLF	12	8	[0, 0, 0]	n/a	FR1	0	R1354E
1064.933	26.092	1066216	REC_WORD	3.919	n/a	FIELD	-999	8	[0, 0, 0]	n/a	FR1	0	R1354E
1091.025	18.064	1092316	REC_END	n/a	n/a	n/a	-999	8	[0, 0, 0]	n/a	FR1	0	R1354E
1109.089	10.0	1110396	COUNTDOWN_START	n/a	n/a	n/a	-999	9	[0, 0, 0]	n/a	FR1	0	R1354E
1119.517	1.075	1120805	COUNTDOWN_END	n/a	n/a	n/a	-999	9	[0, 0, 0]	n/a	FR1	0	R1354E
1120.592	0.986	1121867	ENCODING_START	n/a	n/a	n/a	-999	9	[0, 0, 0]	n/a	FR1	0	R1354E
1121.578	1.6	1122859	WORD	n/a	wordpools/wordpool_EN.txt	DOLL	1	9	[0, 0, 0]	n/a	FR1	0	R1354E
1123.209	1.071	1124479	WORD_OFF	n/a	n/a	DOLL	1	9	[0, 0, 0]	n/a	FR1	0	R1354E
1124.28	1.6	1125569	WORD	n/a	wordpools/wordpool_EN.txt	PEN	2	9	[0, 0, 0]	n/a	FR1	0	R1354E
1125.909	1.148	1127176	WORD_OFF	n/a	n/a	PEN	2	9	[0, 0, 0]	n/a	FR1	0	R1354E
1127.057	1.6	1128350	WORD	n/a	wordpools/wordpool_EN.txt	FUDGE	3	9	[0, 0, 0]	n/a	FR1	0	R1354E
1128.676	1.021	1129942	WORD_OFF	n/a	n/a	FUDGE	3	9	[0, 0, 0]	n/a	FR1	0	R1354E
1129.697	1.6	1130976	WORD	n/a	wordpools/wordpool_EN.txt	ANT	4	9	[0, 0, 0]	n/a	FR1	0	R1354E
1131.327	0.826	1132597	WORD_OFF	n/a	n/a	ANT	4	9	[0, 0, 0]	n/a	FR1	0	R1354E
1132.153	1.6	1133435	WORD	n/a	wordpools/wordpool_EN.txt	SINK	5	9	[0, 0, 0]	n/a	FR1	0	R1354E
1133.777	0.893	1135056	WORD_OFF	n/a	n/a	SINK	5	9	[0, 0, 0]	n/a	FR1	0	R1354E
1134.67	1.6	1135950	WORD	n/a	wordpools/wordpool_EN.txt	SALT	6	9	[0, 0, 0]	n/a	FR1	0	R1354E
1136.294	1.045	1137571	WORD_OFF	n/a	n/a	SALT	6	9	[0, 0, 0]	n/a	FR1	0	R1354E
1137.339	1.6	1138619	WORD	n/a	wordpools/wordpool_EN.txt	HEART	7	9	[0, 0, 0]	n/a	FR1	0	R1354E
1138.96	1.01	1140240	WORD_OFF	n/a	n/a	HEART	7	9	[0, 0, 0]	n/a	FR1	0	R1354E
1139.97	1.6	1141246	WORD	n/a	wordpools/wordpool_EN.txt	BLUSH	8	9	[0, 0, 0]	n/a	FR1	0	R1354E
1141.578	0.973	1142852	WORD_OFF	n/a	n/a	BLUSH	8	9	[0, 0, 0]	n/a	FR1	0	R1354E
1142.551	1.6	1143830	WORD	n/a	wordpools/wordpool_EN.txt	PANTS	9	9	[0, 0, 0]	n/a	FR1	0	R1354E
1144.179	0.775	1145451	WORD_OFF	n/a	n/a	PANTS	9	9	[0, 0, 0]	n/a	FR1	0	R1354E
1144.954	1.6	1146233	WORD	n/a	wordpools/wordpool_EN.txt	SMOKE	10	9	[0, 0, 0]	n/a	FR1	0	R1354E
1146.562	0.917	1147840	WORD_OFF	n/a	n/a	SMOKE	10	9	[0, 0, 0]	n/a	FR1	0	R1354E
1147.479	1.6	1148762	WORD	n/a	wordpools/wordpool_EN.txt	HAT	11	9	[0, 0, 0]	n/a	FR1	0	R1354E
1149.112	1.07	1150383	WORD_OFF	n/a	n/a	HAT	11	9	[0, 0, 0]	n/a	FR1	0	R1354E
1150.182	1.6	1151473	WORD	n/a	wordpools/wordpool_EN.txt	BOX	12	9	[0, 0, 0]	n/a	FR1	0	R1354E
1151.815	0.0	1153095	START	n/a	n/a	n/a	-999	9	[-999, -999, -999]	n/a	FR1	0	R1354E
1151.814	0.0	1153108	WORD_OFF	n/a	n/a	BOX	12	9	[0, 0, 0]	n/a	FR1	0	R1354E
1151.814	0.001	1153108	ENCODING_END	n/a	n/a	n/a	-999	9	[0, 0, 0]	n/a	FR1	0	R1354E
1151.815	0.015	1153108	DISTRACT_START	n/a	n/a	n/a	-999	9	[0, 0, 0]	n/a	FR1	0	R1354E
1151.83	1.917	1153110	PROB	1.879	n/a	n/a	-999	9	[3, 6, 4]	13.0	FR1	0	R1354E
1153.747	2.067	1155027	PROB	2.042	n/a	n/a	-999	9	[1, 8, 6]	15.0	FR1	0	R1354E
1155.814	1.901	1157094	PROB	1.878	n/a	n/a	-999	9	[4, 5, 4]	13.0	FR1	0	R1354E
1157.715	2.232	1158994	PROB	2.201	n/a	n/a	-999	9	[5, 3, 1]	9.0	FR1	0	R1354E
1159.947	1.802	1161226	PROB	1.769	n/a	n/a	-999	9	[6, 1, 8]	15.0	FR1	0	R1354E
1161.749	2.282	1163028	PROB	2.247	n/a	n/a	-999	9	[9, 3, 1]	13.0	FR1	0	R1354E
1164.031	1.802	1165310	PROB	1.773	n/a	n/a	-999	9	[4, 2, 6]	12.0	FR1	0	R1354E
1165.833	1.483	1167112	PROB	1.46	n/a	n/a	-999	9	[1, 4, 8]	13.0	FR1	0	R1354E
1167.316	1.334	1168595	PROB	1.296	n/a	n/a	-999	9	[6, 3, 2]	11.0	FR1	0	R1354E
1168.65	1.2	1169929	PROB	1.163	n/a	n/a	-999	9	[4, 1, 6]	11.0	FR1	0	R1354E
1169.85	1.35	1171129	PROB	1.315	n/a	n/a	-999	9	[1, 6, 5]	12.0	FR1	0	R1354E
1171.2	1.525	1172479	PROB	1.525	n/a	n/a	-999	9	[1, 9, 2]	12.0	FR1	0	R1354E
1172.725	0.009	1174004	STOP	n/a	n/a	n/a	-999	9	[-999, -999, -999]	n/a	FR1	0	R1354E
1172.734	2.167	1174009	DISTRACT_END	n/a	n/a	n/a	-999	9	[0, 0, 0]	n/a	FR1	0	R1354E
1174.901	0.606	1176175	REC_START	n/a	n/a	n/a	-999	9	[0, 0, 0]	n/a	FR1	0	R1354E
1175.507	1.0	1176786	REC_WORD	0.606	n/a	FUDGE	3	9	[0, 0, 0]	n/a	FR1	0	R1354E
1176.507	0.524	1177786	REC_WORD_VV	1.606	n/a	<>	-999	9	[0, 0, 0]	n/a	FR1	0	R1354E
1177.031	1.713	1178310	REC_WORD	2.13	n/a	SMOKE	10	9	[0, 0, 0]	n/a	FR1	0	R1354E
1178.744	26.17	1180023	REC_WORD	3.843	n/a	HAT	11	9	[0, 0, 0]	n/a	FR1	0	R1354E
1204.914	35.815	1206201	REC_END	n/a	n/a	n/a	-999	9	[0, 0, 0]	n/a	FR1	0	R1354E
1240.729	10.0	1242038	COUNTDOWN_START	n/a	n/a	n/a	-999	10	[0, 0, 0]	n/a	FR1	0	R1354E
1251.158	1.141	1252433	COUNTDOWN_END	n/a	n/a	n/a	-999	10	[0, 0, 0]	n/a	FR1	0	R1354E
1252.299	0.889	1253565	ENCODING_START	n/a	n/a	n/a	-999	10	[0, 0, 0]	n/a	FR1	0	R1354E
1253.188	1.6	1254473	WORD	n/a	wordpools/wordpool_EN.txt	SAIL	1	10	[0, 0, 0]	n/a	FR1	0	R1354E
1254.815	0.979	1256080	WORD_OFF	n/a	n/a	SAIL	1	10	[0, 0, 0]	n/a	FR1	0	R1354E
1255.794	1.6	1257072	WORD	n/a	wordpools/wordpool_EN.txt	SUN	2	10	[0, 0, 0]	n/a	FR1	0	R1354E
1257.415	0.926	1258679	WORD_OFF	n/a	n/a	SUN	2	10	[0, 0, 0]	n/a	FR1	0	R1354E
1258.341	1.6	1259615	WORD	n/a	wordpools/wordpool_EN.txt	BOOT	3	10	[0, 0, 0]	n/a	FR1	0	R1354E
1259.965	0.929	1261236	WORD_OFF	n/a	n/a	BOOT	3	10	[0, 0, 0]	n/a	FR1	0	R1354E
1260.894	1.6	1262172	WORD	n/a	wordpools/wordpool_EN.txt	RAT	4	10	[0, 0, 0]	n/a	FR1	0	R1354E
1262.516	1.129	1263778	WORD_OFF	n/a	n/a	RAT	4	10	[0, 0, 0]	n/a	FR1	0	R1354E
1263.645	1.6	1264924	WORD	n/a	wordpools/wordpool_EN.txt	FLOOR	5	10	[0, 0, 0]	n/a	FR1	0	R1354E
1265.267	0.853	1266531	WORD_OFF	n/a	n/a	FLOOR	5	10	[0, 0, 0]	n/a	FR1	0	R1354E
1266.12	1.6	1267397	WORD	n/a	wordpools/wordpool_EN.txt	RAKE	6	10	[0, 0, 0]	n/a	FR1	0	R1354E
1267.751	0.823	1269018	WORD_OFF	n/a	n/a	RAKE	6	10	[0, 0, 0]	n/a	FR1	0	R1354E
1268.574	1.6	1269856	WORD	n/a	wordpools/wordpool_EN.txt	CONE	7	10	[0, 0, 0]	n/a	FR1	0	R1354E
1270.201	0.971	1271477	WORD_OFF	n/a	n/a	CONE	7	10	[0, 0, 0]	n/a	FR1	0	R1354E
1271.172	1.6	1272455	WORD	n/a	wordpools/wordpool_EN.txt	BARN	8	10	[0, 0, 0]	n/a	FR1	0	R1354E
1272.802	0.852	1274076	WORD_OFF	n/a	n/a	BARN	8	10	[0, 0, 0]	n/a	FR1	0	R1354E
1273.654	1.6	1274942	WORD	n/a	wordpools/wordpool_EN.txt	WAND	9	10	[0, 0, 0]	n/a	FR1	0	R1354E
1275.285	0.757	1276549	WORD_OFF	n/a	n/a	WAND	9	10	[0, 0, 0]	n/a	FR1	0	R1354E
1276.042	1.6	1277317	WORD	n/a	wordpools/wordpool_EN.txt	APE	10	10	[0, 0, 0]	n/a	FR1	0	R1354E
1277.652	1.063	1278924	WORD_OFF	n/a	n/a	APE	10	10	[0, 0, 0]	n/a	FR1	0	R1354E
1278.715	1.6	1279986	WORD	n/a	wordpools/wordpool_EN.txt	LOCK	11	10	[0, 0, 0]	n/a	FR1	0	R1354E
1280.336	0.784	1281606	WORD_OFF	n/a	n/a	LOCK	11	10	[0, 0, 0]	n/a	FR1	0	R1354E
1281.12	1.6	1282403	WORD	n/a	wordpools/wordpool_EN.txt	TEETH	12	10	[0, 0, 0]	n/a	FR1	0	R1354E
1282.754	0.0	1284029	START	n/a	n/a	n/a	-999	10	[-999, -999, -999]	n/a	FR1	0	R1354E
1282.753	0.001	1284038	WORD_OFF	n/a	n/a	TEETH	12	10	[0, 0, 0]	n/a	FR1	0	R1354E
1282.754	0.0	1284038	ENCODING_END	n/a	n/a	n/a	-999	10	[0, 0, 0]	n/a	FR1	0	R1354E
1282.754	0.016	1284038	DISTRACT_START	n/a	n/a	n/a	-999	10	[0, 0, 0]	n/a	FR1	0	R1354E
1282.77	2.517	1284045	PROB	2.492	n/a	n/a	-999	10	[9, 1, 8]	19.0	FR1	0	R1354E
1285.287	2.184	1286562	PROB	2.159	n/a	n/a	-999	10	[2, 8, 8]	18.0	FR1	0	R1354E
1287.471	2.449	1288746	PROB	2.415	n/a	n/a	-999	10	[8, 9, 9]	27.0	FR1	0	R1354E
1289.92	2.718	1291195	PROB	2.686	n/a	n/a	-999	10	[9, 1, 5]	15.0	FR1	0	R1354E
1292.638	2.134	1293913	PROB	2.103	n/a	n/a	-999	10	[6, 1, 7]	14.0	FR1	0	R1354E
1294.772	2.4	1296047	PROB	2.37	n/a	n/a	-999	10	[8, 9, 5]	22.0	FR1	0	R1354E
1297.172	2.517	1298447	PROB	2.482	n/a	n/a	-999	10	[5, 3, 3]	13.0	FR1	0	R1354E
1299.689	3.061	1300963	PROB	3.061	n/a	n/a	-999	10	[5, 7, 4]	15.0	FR1	0	R1354E
1302.75	0.006	1304024	STOP	n/a	n/a	n/a	-999	10	[-999, -999, -999]	n/a	FR1	0	R1354E
1302.756	2.301	1304031	DISTRACT_END	n/a	n/a	n/a	-999	10	[0, 0, 0]	n/a	FR1	0	R1354E
1305.057	1.124	1306337	REC_START	n/a	n/a	n/a	-999	10	[0, 0, 0]	n/a	FR1	0	R1354E
1306.181	1.201	1307455	REC_WORD	1.124	n/a	SAIL	1	10	[0, 0, 0]	n/a	FR1	0	R1354E
1307.382	1.898	1308656	REC_WORD	2.325	n/a	SUN	2	10	[0, 0, 0]	n/a	FR1	0	R1354E
1309.28	4.052	1310554	REC_WORD	4.223	n/a	ROOM	-999	10	[0, 0, 0]	n/a	FR1	0	R1354E
1313.332	1.294	1314606	REC_WORD	8.275	n/a	RAT	4	10	[0, 0, 0]	n/a	FR1	0	R1354E
1314.626	20.444	1315900	REC_WORD	9.569	n/a	FLOOR	5	10	[0, 0, 0]	n/a	FR1	0	R1354E
1335.07	16.962	1336362	REC_END	n/a	n/a	n/a	-999	10	[0, 0, 0]	n/a	FR1	0	R1354E
1352.032	10.0	1353338	COUNTDOWN_START	n/a	n/a	n/a	-999	11	[0, 0, 0]	n/a	FR1	0	R1354E
1362.46	1.025	1363733	COUNTDOWN_END	n/a	n/a	n/a	-999	11	[0, 0, 0]	n/a	FR1	0	R1354E
1363.485	1.013	1364753	ENCODING_START	n/a	n/a	n/a	-999	11	[0, 0, 0]	n/a	FR1	0	R1354E
1364.498	1.6	1365787	WORD	n/a	wordpools/wordpool_EN.txt	CORN	1	11	[0, 0, 0]	n/a	FR1	0	R1354E
1366.134	0.915	1367393	WORD_OFF	n/a	n/a	CORN	1	11	[0, 0, 0]	n/a	FR1	0	R1354E
1367.049	1.6	1368330	WORD	n/a	wordpools/wordpool_EN.txt	BEAR	2	11	[0, 0, 0]	n/a	FR1	0	R1354E
1368.685	1.146	1369950	WORD_OFF	n/a	n/a	BEAR	2	11	[0, 0, 0]	n/a	FR1	0	R1354E
1369.831	1.6	1371096	WORD	n/a	wordpools/wordpool_EN.txt	DEER	3	11	[0, 0, 0]	n/a	FR1	0	R1354E
1371.452	1.023	1372717	WORD_OFF	n/a	n/a	DEER	3	11	[0, 0, 0]	n/a	FR1	0	R1354E
1372.475	1.6	1373751	WORD	n/a	wordpools/wordpool_EN.txt	MOUTH	4	11	[0, 0, 0]	n/a	FR1	0	R1354E
1374.102	1.05	1375371	WORD_OFF	n/a	n/a	MOUTH	4	11	[0, 0, 0]	n/a	FR1	0	R1354E
1375.152	1.6	1376433	WORD	n/a	wordpools/wordpool_EN.txt	WHALE	5	11	[0, 0, 0]	n/a	FR1	0	R1354E
1376.786	0.915	1378054	WORD_OFF	n/a	n/a	WHALE	5	11	[0, 0, 0]	n/a	FR1	0	R1354E
1377.701	1.6	1378990	WORD	n/a	wordpools/wordpool_EN.txt	BOMB	6	11	[0, 0, 0]	n/a	FR1	0	R1354E
1379.337	0.801	1380597	WORD_OFF	n/a	n/a	BOMB	6	11	[0, 0, 0]	n/a	FR1	0	R1354E
1380.138	1.6	1381421	WORD	n/a	wordpools/wordpool_EN.txt	LAMP	7	11	[0, 0, 0]	n/a	FR1	0	R1354E
1381.771	1.014	1383042	WORD_OFF	n/a	n/a	LAMP	7	11	[0, 0, 0]	n/a	FR1	0	R1354E
1382.785	1.6	1384062	WORD	n/a	wordpools/wordpool_EN.txt	MAT	8	11	[0, 0, 0]	n/a	FR1	0	R1354E
1384.421	0.889	1385682	WORD_OFF	n/a	n/a	MAT	8	11	[0, 0, 0]	n/a	FR1	0	R1354E
1385.31	1.6	1386591	WORD	n/a	wordpools/wordpool_EN.txt	BIRD	9	11	[0, 0, 0]	n/a	FR1	0	R1354E
1386.937	0.904	1388197	WORD_OFF	n/a	n/a	BIRD	9	11	[0, 0, 0]	n/a	FR1	0	R1354E
1387.841	1.6	1389120	WORD	n/a	wordpools/wordpool_EN.txt	LEAF	10	11	[0, 0, 0]	n/a	FR1	0	R1354E
1389.472	1.029	1390740	WORD_OFF	n/a	n/a	LEAF	10	11	[0, 0, 0]	n/a	FR1	0	R1354E
1390.501	1.6	1391774	WORD	n/a	wordpools/wordpool_EN.txt	PIT	11	11	[0, 0, 0]	n/a	FR1	0	R1354E
1392.122	1.133	1393381	WORD_OFF	n/a	n/a	PIT	11	11	[0, 0, 0]	n/a	FR1	0	R1354E
1393.255	1.6	1394541	WORD	n/a	wordpools/wordpool_EN.txt	SNAKE	12	11	[0, 0, 0]	n/a	FR1	0	R1354E
1394.89	0.0	1396161	START	n/a	n/a	n/a	-999	11	[-999, -999, -999]	n/a	FR1	0	R1354E
1394.889	0.001	1396175	WORD_OFF	n/a	n/a	SNAKE	12	11	[0, 0, 0]	n/a	FR1	0	R1354E
1394.89	0.0	1396175	ENCODING_END	n/a	n/a	n/a	-999	11	[0, 0, 0]	n/a	FR1	0	R1354E
1394.89	0.016	1396175	DISTRACT_START	n/a	n/a	n/a	-999	11	[0, 0, 0]	n/a	FR1	0	R1354E
1394.906	1.617	1396177	PROB	1.586	n/a	n/a	-999	11	[7, 7, 7]	21.0	FR1	0	R1354E
1396.523	2.8	1397794	PROB	2.777	n/a	n/a	-999	11	[7, 5, 6]	20.0	FR1	0	R1354E
1399.323	2.767	1400594	PROB	2.728	n/a	n/a	-999	11	[5, 1, 3]	9.0	FR1	0	R1354E
1402.09	2.218	1403361	PROB	2.194	n/a	n/a	-999	11	[3, 9, 2]	15.0	FR1	0	R1354E
1404.308	4.05	1405579	PROB	4.024	n/a	n/a	-999	11	[6, 8, 4]	18.0	FR1	0	R1354E
1408.358	1.967	1409629	PROB	1.935	n/a	n/a	-999	11	[3, 9, 8]	20.0	FR1	0	R1354E
1410.325	1.766	1411596	PROB	1.742	n/a	n/a	-999	11	[2, 7, 2]	11.0	FR1	0	R1354E
1412.091	1.335	1413361	PROB	1.305	n/a	n/a	-999	11	[1, 2, 1]	4.0	FR1	0	R1354E
1413.426	1.89	1414696	PROB	1.89	n/a	n/a	-999	11	[1, 2, 7]	10.0	FR1	0	R1354E
1415.316	0.01	1416586	STOP	n/a	n/a	n/a	-999	11	[-999, -999, -999]	n/a	FR1	0	R1354E
1415.326	2.301	1416588	DISTRACT_END	n/a	n/a	n/a	-999	11	[0, 0, 0]	n/a	FR1	0	R1354E
1417.627	0.0	1418894	REC_START	n/a	n/a	n/a	-999	11	[0, 0, 0]	n/a	FR1	0	R1354E
1417.627	3.194	1418897	REC_WORD	0.0	n/a	LEAF	10	11	[0, 0, 0]	n/a	FR1	0	R1354E
1420.821	3.217	1422091	REC_WORD	3.194	n/a	CORN	1	11	[0, 0, 0]	n/a	FR1	0	R1354E
1424.038	5.071	1425308	REC_WORD	6.411	n/a	BEAR	2	11	[0, 0, 0]	n/a	FR1	0	R1354E
1429.109	12.444	1430379	REC_WORD	11.482	n/a	LEAF	10	11	[0, 0, 0]	n/a	FR1	0	R1354E
1441.553	1.415	1442822	REC_WORD	23.926	n/a	BEAR	2	11	[0, 0, 0]	n/a	FR1	0	R1354E
1442.968	4.672	1444237	REC_WORD	25.341	n/a	SNAKE	12	11	[0, 0, 0]	n/a	FR1	0	R1354E
1447.64	10.144	1448919	REC_END	n/a	n/a	n/a	-999	11	[0, 0, 0]	n/a	FR1	0	R1354E
1457.784	10.0	1459076	COUNTDOWN_START	n/a	n/a	n/a	-999	12	[0, 0, 0]	n/a	FR1	0	R1354E
1468.213	1.223	1469485	COUNTDOWN_END	n/a	n/a	n/a	-999	12	[0, 0, 0]	n/a	FR1	0	R1354E
1469.436	1.02	1470701	ENCODING_START	n/a	n/a	n/a	-999	12	[0, 0, 0]	n/a	FR1	0	R1354E
1470.456	1.6	1471735	WORD	n/a	wordpools/wordpool_EN.txt	STRING	1	12	[0, 0, 0]	n/a	FR1	0	R1354E
1472.085	0.934	1473342	WORD_OFF	n/a	n/a	STRING	1	12	[0, 0, 0]	n/a	FR1	0	R1354E
1473.019	1.6	1474292	WORD	n/a	wordpools/wordpool_EN.txt	STAR	2	12	[0, 0, 0]	n/a	FR1	0	R1354E
1474.653	1.075	1475913	WORD_OFF	n/a	n/a	STAR	2	12	[0, 0, 0]	n/a	FR1	0	R1354E
1475.728	1.6	1477002	WORD	n/a	wordpools/wordpool_EN.txt	BOY	3	12	[0, 0, 0]	n/a	FR1	0	R1354E
1477.354	0.999	1478609	WORD_OFF	n/a	n/a	BOY	3	12	[0, 0, 0]	n/a	FR1	0	R1354E
1478.353	1.6	1479629	WORD	n/a	wordpools/wordpool_EN.txt	SCHOOL	4	12	[0, 0, 0]	n/a	FR1	0	R1354E
1479.987	1.102	1481250	WORD_OFF	n/a	n/a	SCHOOL	4	12	[0, 0, 0]	n/a	FR1	0	R1354E
1481.089	1.6	1482368	WORD	n/a	wordpools/wordpool_EN.txt	BAT	5	12	[0, 0, 0]	n/a	FR1	0	R1354E
1482.705	0.826	1483960	WORD_OFF	n/a	n/a	BAT	5	12	[0, 0, 0]	n/a	FR1	0	R1354E
1483.531	1.6	1484799	WORD	n/a	wordpools/wordpool_EN.txt	PIPE	6	12	[0, 0, 0]	n/a	FR1	0	R1354E
1485.155	1.058	1486419	WORD_OFF	n/a	n/a	PIPE	6	12	[0, 0, 0]	n/a	FR1	0	R1354E
1486.213	1.6	1487481	WORD	n/a	wordpools/wordpool_EN.txt	RIB	7	12	[0, 0, 0]	n/a	FR1	0	R1354E
1487.839	1.008	1489102	WORD_OFF	n/a	n/a	RIB	7	12	[0, 0, 0]	n/a	FR1	0	R1354E
1488.847	1.6	1490122	WORD	n/a	wordpools/wordpool_EN.txt	CASH	8	12	[0, 0, 0]	n/a	FR1	0	R1354E
1490.473	1.084	1491729	WORD_OFF	n/a	n/a	CASH	8	12	[0, 0, 0]	n/a	FR1	0	R1354E
1491.557	1.6	1492832	WORD	n/a	wordpools/wordpool_EN.txt	ARM	9	12	[0, 0, 0]	n/a	FR1	0	R1354E
1493.19	1.15	1494453	WORD_OFF	n/a	n/a	ARM	9	12	[0, 0, 0]	n/a	FR1	0	R1354E
1494.34	1.6	1495613	WORD	n/a	wordpools/wordpool_EN.txt	SEED	10	12	[0, 0, 0]	n/a	FR1	0	R1354E
1495.973	1.099	1497234	WORD_OFF	n/a	n/a	SEED	10	12	[0, 0, 0]	n/a	FR1	0	R1354E
1497.072	1.6	1498351	WORD	n/a	wordpools/wordpool_EN.txt	SHEEP	11	12	[0, 0, 0]	n/a	FR1	0	R1354E
1498.708	1.043	1499972	WORD_OFF	n/a	n/a	SHEEP	11	12	[0, 0, 0]	n/a	FR1	0	R1354E
1499.751	1.6	1501020	WORD	n/a	wordpools/wordpool_EN.txt	INK	12	12	[0, 0, 0]	n/a	FR1	0	R1354E
1501.376	0.0	1502643	START	n/a	n/a	n/a	-999	12	[-999, -999, -999]	n/a	FR1	0	R1354E
1501.375	0.0	1502655	WORD_OFF	n/a	n/a	INK	12	12	[0, 0, 0]	n/a	FR1	0	R1354E
1501.375	0.001	1502655	ENCODING_END	n/a	n/a	n/a	-999	12	[0, 0, 0]	n/a	FR1	0	R1354E
1501.376	0.015	1502655	DISTRACT_START	n/a	n/a	n/a	-999	12	[0, 0, 0]	n/a	FR1	0	R1354E
1501.391	5.185	1502658	PROB	5.155	n/a	n/a	-999	12	[1, 1, 7]	9.0	FR1	0	R1354E
1506.576	2.117	1507843	PROB	2.09	n/a	n/a	-999	12	[7, 9, 8]	24.0	FR1	0	R1354E
1508.693	2.232	1509960	PROB	2.197	n/a	n/a	-999	12	[6, 9, 4]	17.0	FR1	0	R1354E
1510.925	2.184	1512192	PROB	2.148	n/a	n/a	-999	12	[9, 5, 6]	20.0	FR1	0	R1354E
1513.109	2.618	1514376	PROB	2.589	n/a	n/a	-999	12	[7, 4, 6]	17.0	FR1	0	R1354E
1515.727	2.417	1516994	PROB	2.378	n/a	n/a	-999	12	[6, 7, 9]	23.0	FR1	0	R1354E
1518.144	1.751	1519411	PROB	1.723	n/a	n/a	-999	12	[1, 6, 4]	11.0	FR1	0	R1354E
1519.895	2.811	1521162	PROB	2.811	n/a	n/a	-999	12	[6, 9, 2]	17.0	FR1	0	R1354E
1522.706	0.022	1523973	STOP	n/a	n/a	n/a	-999	12	[-999, -999, -999]	n/a	FR1	0	R1354E
1522.728	2.3	1523990	DISTRACT_END	n/a	n/a	n/a	-999	12	[0, 0, 0]	n/a	FR1	0	R1354E
1525.028	0.242	1526295	REC_START	n/a	n/a	n/a	-999	12	[0, 0, 0]	n/a	FR1	0	R1354E
1525.27	1.214	1526536	REC_WORD	0.242	n/a	CASH	8	12	[0, 0, 0]	n/a	FR1	0	R1354E
1526.484	1.531	1527750	REC_WORD	1.456	n/a	STAR	2	12	[0, 0, 0]	n/a	FR1	0	R1354E
1528.015	5.103	1529281	REC_WORD	2.987	n/a	STRING	1	12	[0, 0, 0]	n/a	FR1	0	R1354E
1533.118	1.98	1534384	REC_WORD	8.09	n/a	BAT	5	12	[0, 0, 0]	n/a	FR1	0	R1354E
1535.098	1.366	1536364	REC_WORD	10.07	n/a	BOY	3	12	[0, 0, 0]	n/a	FR1	0	R1354E
1536.464	18.576	1537730	REC_WORD	11.436	n/a	SCHOOL	4	12	[0, 0, 0]	n/a	FR1	0	R1354E
1555.04	25.082	1556320	REC_END	n/a	n/a	n/a	-999	12	[0, 0, 0]	n/a	FR1	0	R1354E
1580.122	10.0	1581414	COUNTDOWN_START	n/a	n/a	n/a	-999	13	[0, 0, 0]	n/a	FR1	0	R1354E
1590.552	1.056	1591809	COUNTDOWN_END	n/a	n/a	n/a	-999	13	[0, 0, 0]	n/a	FR1	0	R1354E
1591.608	0.879	1592871	ENCODING_START	n/a	n/a	n/a	-999	13	[0, 0, 0]	n/a	FR1	0	R1354E
1592.487	1.6	1593751	WORD	n/a	wordpools/wordpool_EN.txt	TOOTH	1	13	[0, 0, 0]	n/a	FR1	0	R1354E
1594.107	0.79	1595358	WORD_OFF	n/a	n/a	TOOTH	1	13	[0, 0, 0]	n/a	FR1	0	R1354E
1594.897	1.6	1596168	WORD	n/a	wordpools/wordpool_EN.txt	HORSE	2	13	[0, 0, 0]	n/a	FR1	0	R1354E
1596.525	0.873	1597775	WORD_OFF	n/a	n/a	HORSE	2	13	[0, 0, 0]	n/a	FR1	0	R1354E
1597.398	1.6	1598669	WORD	n/a	wordpools/wordpool_EN.txt	TANK	3	13	[0, 0, 0]	n/a	FR1	0	R1354E
1599.024	0.966	1600276	WORD_OFF	n/a	n/a	TANK	3	13	[0, 0, 0]	n/a	FR1	0	R1354E
1599.99	1.6	1601268	WORD	n/a	wordpools/wordpool_EN.txt	JUDGE	4	13	[0, 0, 0]	n/a	FR1	0	R1354E
1601.609	1.148	1602860	WORD_OFF	n/a	n/a	JUDGE	4	13	[0, 0, 0]	n/a	FR1	0	R1354E
1602.757	1.6	1604034	WORD	n/a	wordpools/wordpool_EN.txt	VAN	5	13	[0, 0, 0]	n/a	FR1	0	R1354E
1604.393	1.029	1605655	WORD_OFF	n/a	n/a	VAN	5	13	[0, 0, 0]	n/a	FR1	0	R1354E
1605.422	1.6	1606689	WORD	n/a	wordpools/wordpool_EN.txt	SHIP	6	13	[0, 0, 0]	n/a	FR1	0	R1354E
1607.042	0.773	1608296	WORD_OFF	n/a	n/a	SHIP	6	13	[0, 0, 0]	n/a	FR1	0	R1354E
1607.815	1.6	1609078	WORD	n/a	wordpools/wordpool_EN.txt	TOAST	7	13	[0, 0, 0]	n/a	FR1	0	R1354E
1609.444	0.979	1610699	WORD_OFF	n/a	n/a	TOAST	7	13	[0, 0, 0]	n/a	FR1	0	R1354E
1610.423	1.6	1611677	WORD	n/a	wordpools/wordpool_EN.txt	SKI	8	13	[0, 0, 0]	n/a	FR1	0	R1354E
1612.043	0.985	1613297	WORD_OFF	n/a	n/a	SKI	8	13	[0, 0, 0]	n/a	FR1	0	R1354E
1613.028	1.6	1614303	WORD	n/a	wordpools/wordpool_EN.txt	PEAR	9	13	[0, 0, 0]	n/a	FR1	0	R1354E
1614.644	0.991	1615896	WORD_OFF	n/a	n/a	PEAR	9	13	[0, 0, 0]	n/a	FR1	0	R1354E
1615.635	1.6	1616902	WORD	n/a	wordpools/wordpool_EN.txt	NAIL	10	13	[0, 0, 0]	n/a	FR1	0	R1354E
1617.262	1.065	1618523	WORD_OFF	n/a	n/a	NAIL	10	13	[0, 0, 0]	n/a	FR1	0	R1354E
1618.327	1.6	1619599	WORD	n/a	wordpools/wordpool_EN.txt	CAR	11	13	[0, 0, 0]	n/a	FR1	0	R1354E
1619.961	0.923	1621219	WORD_OFF	n/a	n/a	CAR	11	13	[0, 0, 0]	n/a	FR1	0	R1354E
1620.884	1.6	1622156	WORD	n/a	wordpools/wordpool_EN.txt	CLIFF	12	13	[0, 0, 0]	n/a	FR1	0	R1354E
1622.514	0.0	1623777	START	n/a	n/a	n/a	-999	13	[-999, -999, -999]	n/a	FR1	0	R1354E
1622.513	0.0	1623790	WORD_OFF	n/a	n/a	CLIFF	12	13	[0, 0, 0]	n/a	FR1	0	R1354E
1622.513	0.001	1623790	ENCODING_END	n/a	n/a	n/a	-999	13	[0, 0, 0]	n/a	FR1	0	R1354E
1622.514	0.015	1623790	DISTRACT_START	n/a	n/a	n/a	-999	13	[0, 0, 0]	n/a	FR1	0	R1354E
1622.529	3.55	1623792	PROB	3.513	n/a	n/a	-999	13	[6, 5, 8]	19.0	FR1	0	R1354E
1626.079	2.017	1627342	PROB	1.979	n/a	n/a	-999	13	[7, 6, 4]	17.0	FR1	0	R1354E
1628.096	1.833	1629359	PROB	1.81	n/a	n/a	-999	13	[5, 4, 2]	11.0	FR1	0	R1354E
1629.929	1.984	1631192	PROB	1.946	n/a	n/a	-999	13	[2, 7, 4]	13.0	FR1	0	R1354E
1631.913	1.335	1633176	PROB	1.305	n/a	n/a	-999	13	[2, 1, 2]	5.0	FR1	0	R1354E
1633.248	3.017	1634511	PROB	2.979	n/a	n/a	-999	13	[8, 7, 6]	21.0	FR1	0	R1354E
1636.265	2.35	1637528	PROB	2.314	n/a	n/a	-999	13	[3, 3, 6]	12.0	FR1	0	R1354E
1638.615	1.551	1639877	PROB	1.516	n/a	n/a	-999	13	[3, 1, 3]	7.0	FR1	0	R1354E
1640.166	1.6	1641428	PROB	1.572	n/a	n/a	-999	13	[9, 5, 8]	22.0	FR1	0	R1354E
1641.766	1.773	1643028	PROB	1.773	n/a	n/a	-999	13	[7, 9, 5]	21.0	FR1	0	R1354E
1643.539	0.011	1644801	STOP	n/a	n/a	n/a	-999	13	[-999, -999, -999]	n/a	FR1	0	R1354E
1643.55	2.084	1644804	DISTRACT_END	n/a	n/a	n/a	-999	13	[0, 0, 0]	n/a	FR1	0	R1354E
1645.634	0.0	1646896	REC_WORD	0.0	n/a	SHIP	6	13	[0, 0, 0]	n/a	FR1	0	R1354E
1645.634	0.712	1646900	REC_START	n/a	n/a	n/a	-999	13	[0, 0, 0]	n/a	FR1	0	R1354E
1646.346	2.286	1647608	REC_WORD	0.712	n/a	TOAST	7	13	[0, 0, 0]	n/a	FR1	0	R1354E
1648.632	1.097	1649894	REC_WORD	2.998	n/a	CAR	11	13	[0, 0, 0]	n/a	FR1	0	R1354E
1649.729	9.044	1650991	REC_WORD	4.095	n/a	NAIL	10	13	[0, 0, 0]	n/a	FR1	0	R1354E
1658.773	16.873	1660035	REC_WORD	13.139	n/a	KEY	-999	13	[0, 0, 0]	n/a	FR1	0	R1354E
1675.646	21.697	1676925	REC_END	n/a	n/a	n/a	-999	13	[0, 0, 0]	n/a	FR1	0	R1354E
1697.343	10.0	1698623	COUNTDOWN_START	n/a	n/a	n/a	-999	14	[0, 0, 0]	n/a	FR1	0	R1354E
1707.771	1.19	1709032	COUNTDOWN_END	n/a	n/a	n/a	-999	14	[0, 0, 0]	n/a	FR1	0	R1354E
1708.961	0.987	1710220	ENCODING_START	n/a	n/a	n/a	-999	14	[0, 0, 0]	n/a	FR1	0	R1354E
1709.948	1.6	1711212	WORD	n/a	wordpools/wordpool_EN.txt	JUICE	1	14	[0, 0, 0]	n/a	FR1	0	R1354E
1711.578	1.04	1712833	WORD_OFF	n/a	n/a	JUICE	1	14	[0, 0, 0]	n/a	FR1	0	R1354E
1712.618	1.6	1713881	WORD	n/a	wordpools/wordpool_EN.txt	STORE	2	14	[0, 0, 0]	n/a	FR1	0	R1354E
1714.245	0.971	1715501	WORD_OFF	n/a	n/a	STORE	2	14	[0, 0, 0]	n/a	FR1	0	R1354E
1715.216	1.6	1716479	WORD	n/a	wordpools/wordpool_EN.txt	TRAY	3	14	[0, 0, 0]	n/a	FR1	0	R1354E
1716.846	0.911	1718100	WORD_OFF	n/a	n/a	TRAY	3	14	[0, 0, 0]	n/a	FR1	0	R1354E
1717.757	1.6	1719008	WORD	n/a	wordpools/wordpool_EN.txt	BRANCH	4	14	[0, 0, 0]	n/a	FR1	0	R1354E
1719.38	0.84	1720629	WORD_OFF	n/a	n/a	BRANCH	4	14	[0, 0, 0]	n/a	FR1	0	R1354E
1720.22	1.6	1721481	WORD	n/a	wordpools/wordpool_EN.txt	STEM	5	14	[0, 0, 0]	n/a	FR1	0	R1354E
1721.847	1.016	1723102	WORD_OFF	n/a	n/a	STEM	5	14	[0, 0, 0]	n/a	FR1	0	R1354E
1722.863	1.6	1724136	WORD	n/a	wordpools/wordpool_EN.txt	POLE	6	14	[0, 0, 0]	n/a	FR1	0	R1354E
1724.497	1.031	1725743	WORD_OFF	n/a	n/a	POLE	6	14	[0, 0, 0]	n/a	FR1	0	R1354E
1725.528	1.6	1726804	WORD	n/a	wordpools/wordpool_EN.txt	CART	7	14	[0, 0, 0]	n/a	FR1	0	R1354E
1727.164	0.9	1728411	WORD_OFF	n/a	n/a	CART	7	14	[0, 0, 0]	n/a	FR1	0	R1354E
1728.064	1.6	1729333	WORD	n/a	wordpools/wordpool_EN.txt	BEE	8	14	[0, 0, 0]	n/a	FR1	0	R1354E
1729.698	0.786	1730954	WORD_OFF	n/a	n/a	BEE	8	14	[0, 0, 0]	n/a	FR1	0	R1354E
1730.484	1.6	1731750	WORD	n/a	wordpools/wordpool_EN.txt	SHEET	9	14	[0, 0, 0]	n/a	FR1	0	R1354E
1732.114	0.797	1733371	WORD_OFF	n/a	n/a	SHEET	9	14	[0, 0, 0]	n/a	FR1	0	R1354E
1732.911	1.6	1734168	WORD	n/a	wordpools/wordpool_EN.txt	SIGN	10	14	[0, 0, 0]	n/a	FR1	0	R1354E
1734.516	1.088	1735760	WORD_OFF	n/a	n/a	SIGN	10	14	[0, 0, 0]	n/a	FR1	0	R1354E
1735.604	1.6	1736864	WORD	n/a	wordpools/wordpool_EN.txt	FUR	11	14	[0, 0, 0]	n/a	FR1	0	R1354E
1737.233	1.146	1738485	WORD_OFF	n/a	n/a	FUR	11	14	[0, 0, 0]	n/a	FR1	0	R1354E
1738.379	1.6	1739631	WORD	n/a	wordpools/wordpool_EN.txt	SOAP	12	14	[0, 0, 0]	n/a	FR1	0	R1354E
1740.0	0.0	1741259	START	n/a	n/a	n/a	-999	14	[-999, -999, -999]	n/a	FR1	0	R1354E
1739.999	0.0	1741265	WORD_OFF	n/a	n/a	SOAP	12	14	[0, 0, 0]	n/a	FR1	0	R1354E
1739.999	0.001	1741265	ENCODING_END	n/a	n/a	n/a	-999	14	[0, 0, 0]	n/a	FR1	0	R1354E
1740.0	0.015	1741265	DISTRACT_START	n/a	n/a	n/a	-999	14	[0, 0, 0]	n/a	FR1	0	R1354E
1740.015	2.518	1741274	PROB	2.494	n/a	n/a	-999	14	[2, 9, 7]	18.0	FR1	0	R1354E
1742.533	3.417	1743792	PROB	3.392	n/a	n/a	-999	14	[7, 9, 8]	24.0	FR1	0	R1354E
1745.95	2.785	1747209	PROB	2.759	n/a	n/a	-999	14	[6, 8, 3]	17.0	FR1	0	R1354E
1748.735	2.45	1749994	PROB	2.415	n/a	n/a	-999	14	[6, 8, 5]	19.0	FR1	0	R1354E
1751.185	1.35	1752444	PROB	1.316	n/a	n/a	-999	14	[9, 7, 3]	19.0	FR1	0	R1354E
1752.535	2.301	1753793	PROB	2.27	n/a	n/a	-999	14	[2, 1, 6]	9.0	FR1	0	R1354E
1754.836	1.817	1756094	PROB	1.778	n/a	n/a	-999	14	[9, 2, 8]	19.0	FR1	0	R1354E
1756.653	3.416	1757911	PROB	3.407	n/a	n/a	-999	14	[4, 7, 9]	20.0	FR1	0	R1354E
1760.069	0.0	1761315	DISTRACT_END	n/a	n/a	n/a	-999	14	[0, 0, 0]	n/a	FR1	0	R1354E
1760.06	2.244	1761318	STOP	n/a	n/a	n/a	-999	14	[-999, -999, -999]	n/a	FR1	0	R1354E
1762.304	0.946	1763564	REC_START	n/a	n/a	n/a	-999	14	[0, 0, 0]	n/a	FR1	0	R1354E
1763.25	1.0	1764508	REC_WORD	0.946	n/a	FUR	11	14	[0, 0, 0]	n/a	FR1	0	R1354E
1764.25	10.582	1765508	REC_WORD_VV	1.946	n/a	<>	-999	14	[0, 0, 0]	n/a	FR1	0	R1354E
1774.832	4.133	1776090	REC_WORD	12.528	n/a	FUR	11	14	[0, 0, 0]	n/a	FR1	0	R1354E
1778.965	13.353	1780223	REC_WORD_VV	16.661	n/a	<>	-999	14	[0, 0, 0]	n/a	FR1	0	R1354E
1792.318	17.361	1793590	REC_END	n/a	n/a	n/a	-999	14	[0, 0, 0]	n/a	FR1	0	R1354E
1809.679	10.0	1810957	COUNTDOWN_START	n/a	n/a	n/a	-999	15	[0, 0, 0]	n/a	FR1	0	R1354E
1820.108	1.174	1821366	COUNTDOWN_END	n/a	n/a	n/a	-999	15	[0, 0, 0]	n/a	FR1	0	R1354E
1821.282	0.934	1822539	ENCODING_START	n/a	n/a	n/a	-999	15	[0, 0, 0]	n/a	FR1	0	R1354E
1822.216	1.6	1823475	WORD	n/a	wordpools/wordpool_EN.txt	GLASS	1	15	[0, 0, 0]	n/a	FR1	0	R1354E
1823.848	0.95	1825096	WORD_OFF	n/a	n/a	GLASS	1	15	[0, 0, 0]	n/a	FR1	0	R1354E
1824.798	1.6	1826060	WORD	n/a	wordpools/wordpool_EN.txt	BROOM	2	15	[0, 0, 0]	n/a	FR1	0	R1354E
1826.432	1.012	1827681	WORD_OFF	n/a	n/a	BROOM	2	15	[0, 0, 0]	n/a	FR1	0	R1354E
1827.444	1.6	1828701	WORD	n/a	wordpools/wordpool_EN.txt	COIN	3	15	[0, 0, 0]	n/a	FR1	0	R1354E
1829.064	0.891	1830308	WORD_OFF	n/a	n/a	COIN	3	15	[0, 0, 0]	n/a	FR1	0	R1354E
1829.955	1.6	1831216	WORD	n/a	wordpools/wordpool_EN.txt	CLOUD	4	15	[0, 0, 0]	n/a	FR1	0	R1354E
1831.583	0.888	1832837	WORD_OFF	n/a	n/a	CLOUD	4	15	[0, 0, 0]	n/a	FR1	0	R1354E
1832.471	1.6	1833731	WORD	n/a	wordpools/wordpool_EN.txt	JAR	5	15	[0, 0, 0]	n/a	FR1	0	R1354E
1834.099	1.057	1835352	WORD_OFF	n/a	n/a	JAR	5	15	[0, 0, 0]	n/a	FR1	0	R1354E
1835.156	1.6	1836413	WORD	n/a	wordpools/wordpool_EN.txt	TENT	6	15	[0, 0, 0]	n/a	FR1	0	R1354E
1836.784	1.032	1838034	WORD_OFF	n/a	n/a	TENT	6	15	[0, 0, 0]	n/a	FR1	0	R1354E
1837.816	1.6	1839082	WORD	n/a	wordpools/wordpool_EN.txt	TOY	7	15	[0, 0, 0]	n/a	FR1	0	R1354E
1839.451	1.124	1840703	WORD_OFF	n/a	n/a	TOY	7	15	[0, 0, 0]	n/a	FR1	0	R1354E
1840.575	1.6	1841834	WORD	n/a	wordpools/wordpool_EN.txt	PALM	8	15	[0, 0, 0]	n/a	FR1	0	R1354E
1842.201	0.774	1843455	WORD_OFF	n/a	n/a	PALM	8	15	[0, 0, 0]	n/a	FR1	0	R1354E
1842.975	1.6	1844238	WORD	n/a	wordpools/wordpool_EN.txt	CHAIR	9	15	[0, 0, 0]	n/a	FR1	0	R1354E
1844.601	0.883	1845844	WORD_OFF	n/a	n/a	CHAIR	9	15	[0, 0, 0]	n/a	FR1	0	R1354E
1845.484	1.6	1846753	WORD	n/a	wordpools/wordpool_EN.txt	STONE	10	15	[0, 0, 0]	n/a	FR1	0	R1354E
1847.118	0.901	1848373	WORD_OFF	n/a	n/a	STONE	10	15	[0, 0, 0]	n/a	FR1	0	R1354E
1848.019	1.6	1849281	WORD	n/a	wordpools/wordpool_EN.txt	STREET	11	15	[0, 0, 0]	n/a	FR1	0	R1354E
1849.636	1.08	1850888	WORD_OFF	n/a	n/a	STREET	11	15	[0, 0, 0]	n/a	FR1	0	R1354E
1850.716	1.6	1851978	WORD	n/a	wordpools/wordpool_EN.txt	PLANE	12	15	[0, 0, 0]	n/a	FR1	0	R1354E
1852.354	0.0	1853609	START	n/a	n/a	n/a	-999	15	[-999, -999, -999]	n/a	FR1	0	R1354E
1852.353	0.0	1853613	WORD_OFF	n/a	n/a	PLANE	12	15	[0, 0, 0]	n/a	FR1	0	R1354E
1852.353	0.016	1853613	ENCODING_END	n/a	n/a	n/a	-999	15	[0, 0, 0]	n/a	FR1	0	R1354E
1852.369	0.0	1853624	PROB	4.174	n/a	n/a	-999	15	[4, 2, 1]	7.0	FR1	0	R1354E
1852.354	4.216	1853627	DISTRACT_START	n/a	n/a	n/a	-999	15	[0, 0, 0]	n/a	FR1	0	R1354E
1856.57	1.516	1857825	PROB	1.483	n/a	n/a	-999	15	[4, 6, 1]	11.0	FR1	0	R1354E
1858.086	2.218	1859341	PROB	2.192	n/a	n/a	-999	15	[2, 7, 1]	10.0	FR1	0	R1354E
1860.304	1.984	1861559	PROB	1.959	n/a	n/a	-999	15	[5, 5, 6]	16.0	FR1	0	R1354E
1862.288	1.617	1863543	PROB	1.591	n/a	n/a	-999	15	[8, 9, 4]	21.0	FR1	0	R1354E
1863.905	1.267	1865160	PROB	1.238	n/a	n/a	-999	15	[2, 6, 3]	11.0	FR1	0	R1354E
1865.172	1.367	1866426	PROB	1.339	n/a	n/a	-999	15	[2, 2, 6]	10.0	FR1	0	R1354E
1866.539	2.217	1867793	PROB	2.18	n/a	n/a	-999	15	[3, 6, 8]	17.0	FR1	0	R1354E
1868.756	2.133	1870010	PROB	2.106	n/a	n/a	-999	15	[6, 4, 6]	16.0	FR1	0	R1354E
1870.889	1.367	1872143	PROB	1.341	n/a	n/a	-999	15	[2, 2, 1]	5.0	FR1	0	R1354E
1872.256	2.407	1873510	PROB	2.407	n/a	n/a	-999	15	[7, 8, 5]	20.0	FR1	0	R1354E
1874.663	0.01	1875917	STOP	n/a	n/a	n/a	-999	15	[-999, -999, -999]	n/a	FR1	0	R1354E
1874.673	2.367	1875926	DISTRACT_END	n/a	n/a	n/a	-999	15	[0, 0, 0]	n/a	FR1	0	R1354E
1877.04	0.397	1878301	REC_START	n/a	n/a	n/a	-999	15	[0, 0, 0]	n/a	FR1	0	R1354E
1877.437	1.003	1878691	REC_WORD	0.397	n/a	COIN	3	15	[0, 0, 0]	n/a	FR1	0	R1354E
1878.44	7.979	1879694	REC_WORD	1.4	n/a	JAR	5	15	[0, 0, 0]	n/a	FR1	0	R1354E
1886.419	9.418	1887673	REC_WORD	9.379	n/a	TOY	7	15	[0, 0, 0]	n/a	FR1	0	R1354E
1895.837	1.0	1897090	REC_WORD	18.797	n/a	VASE	-999	15	[0, 0, 0]	n/a	FR1	0	R1354E
1896.837	1.813	1898090	REC_WORD_VV	19.797	n/a	<>	-999	15	[0, 0, 0]	n/a	FR1	0	R1354E
1898.65	8.401	1899903	REC_WORD	21.61	n/a	CLEAN	-999	15	[0, 0, 0]	n/a	FR1	0	R1354E
1907.051	20.881	1908312	REC_END	n/a	n/a	n/a	-999	15	[0, 0, 0]	n/a	FR1	0	R1354E
1927.932	10.0	1929214	COUNTDOWN_START	n/a	n/a	n/a	-999	16	[0, 0, 0]	n/a	FR1	0	R1354E
1938.36	1.042	1939609	COUNTDOWN_END	n/a	n/a	n/a	-999	16	[0, 0, 0]	n/a	FR1	0	R1354E
1939.402	1.092	1940643	ENCODING_START	n/a	n/a	n/a	-999	16	[0, 0, 0]	n/a	FR1	0	R1354E
1940.494	1.6	1941747	WORD	n/a	wordpools/wordpool_EN.txt	FLEA	1	16	[0, 0, 0]	n/a	FR1	0	R1354E
1942.117	0.815	1943368	WORD_OFF	n/a	n/a	FLEA	1	16	[0, 0, 0]	n/a	FR1	0	R1354E
1942.932	1.6	1944192	WORD	n/a	wordpools/wordpool_EN.txt	YARD	2	16	[0, 0, 0]	n/a	FR1	0	R1354E
1944.569	1.012	1945813	WORD_OFF	n/a	n/a	YARD	2	16	[0, 0, 0]	n/a	FR1	0	R1354E
1945.581	1.6	1946833	WORD	n/a	wordpools/wordpool_EN.txt	ZOO	3	16	[0, 0, 0]	n/a	FR1	0	R1354E
1947.203	0.992	1948453	WORD_OFF	n/a	n/a	ZOO	3	16	[0, 0, 0]	n/a	FR1	0	R1354E
1948.195	1.6	1949445	WORD	n/a	wordpools/wordpool_EN.txt	PURSE	4	16	[0, 0, 0]	n/a	FR1	0	R1354E
1949.82	1.031	1951066	WORD_OFF	n/a	n/a	PURSE	4	16	[0, 0, 0]	n/a	FR1	0	R1354E
1950.851	1.6	1952114	WORD	n/a	wordpools/wordpool_EN.txt	STAIR	5	16	[0, 0, 0]	n/a	FR1	0	R1354E
1952.487	0.971	1953735	WORD_OFF	n/a	n/a	STAIR	5	16	[0, 0, 0]	n/a	FR1	0	R1354E
1953.458	1.6	1954713	WORD	n/a	wordpools/wordpool_EN.txt	PHONE	6	16	[0, 0, 0]	n/a	FR1	0	R1354E
1955.086	1.12	1956333	WORD_OFF	n/a	n/a	PHONE	6	16	[0, 0, 0]	n/a	FR1	0	R1354E
1956.206	1.6	1957465	WORD	n/a	wordpools/wordpool_EN.txt	BAND	7	16	[0, 0, 0]	n/a	FR1	0	R1354E
1957.838	1.019	1959086	WORD_OFF	n/a	n/a	BAND	7	16	[0, 0, 0]	n/a	FR1	0	R1354E
1958.857	1.6	1960120	WORD	n/a	wordpools/wordpool_EN.txt	DOOR	8	16	[0, 0, 0]	n/a	FR1	0	R1354E
1960.488	1.051	1961727	WORD_OFF	n/a	n/a	DOOR	8	16	[0, 0, 0]	n/a	FR1	0	R1354E
1961.539	1.6	1962802	WORD	n/a	wordpools/wordpool_EN.txt	BUSH	9	16	[0, 0, 0]	n/a	FR1	0	R1354E
1963.172	1.069	1964423	WORD_OFF	n/a	n/a	BUSH	9	16	[0, 0, 0]	n/a	FR1	0	R1354E
1964.241	1.6	1965499	WORD	n/a	wordpools/wordpool_EN.txt	CALF	10	16	[0, 0, 0]	n/a	FR1	0	R1354E
1965.873	0.959	1967120	WORD_OFF	n/a	n/a	CALF	10	16	[0, 0, 0]	n/a	FR1	0	R1354E
1966.832	1.6	1968084	WORD	n/a	wordpools/wordpool_EN.txt	BREAD	11	16	[0, 0, 0]	n/a	FR1	0	R1354E
1968.456	0.944	1969705	WORD_OFF	n/a	n/a	BREAD	11	16	[0, 0, 0]	n/a	FR1	0	R1354E
1969.4	1.6	1970655	WORD	n/a	wordpools/wordpool_EN.txt	GEESE	12	16	[0, 0, 0]	n/a	FR1	0	R1354E
1971.023	0.0	1972274	START	n/a	n/a	n/a	-999	16	[-999, -999, -999]	n/a	FR1	0	R1354E
1971.023	0.0	1972289	WORD_OFF	n/a	n/a	GEESE	12	16	[0, 0, 0]	n/a	FR1	0	R1354E
1971.023	0.0	1972289	ENCODING_END	n/a	n/a	n/a	-999	16	[0, 0, 0]	n/a	FR1	0	R1354E
1971.023	0.016	1972289	DISTRACT_START	n/a	n/a	n/a	-999	16	[0, 0, 0]	n/a	FR1	0	R1354E
1971.039	2.201	1972290	PROB	2.172	n/a	n/a	-999	16	[1, 7, 2]	10.0	FR1	0	R1354E
1973.24	1.733	1974491	PROB	1.706	n/a	n/a	-999	16	[3, 1, 9]	13.0	FR1	0	R1354E
1974.973	1.418	1976224	PROB	1.382	n/a	n/a	-999	16	[9, 7, 3]	19.0	FR1	0	R1354E
1976.391	1.15	1977642	PROB	1.124	n/a	n/a	-999	16	[9, 5, 5]	19.0	FR1	0	R1354E
1977.541	2.301	1978792	PROB	2.27	n/a	n/a	-999	16	[5, 3, 6]	14.0	FR1	0	R1354E
1979.842	2.85	1981092	PROB	2.824	n/a	n/a	-999	16	[1, 2, 6]	9.0	FR1	0	R1354E
1982.692	1.734	1983942	PROB	1.703	n/a	n/a	-999	16	[4, 1, 8]	13.0	FR1	0	R1354E
1984.426	3.1	1985676	PROB	3.073	n/a	n/a	-999	16	[2, 2, 3]	7.0	FR1	0	R1354E
1987.526	1.301	1988776	PROB	1.269	n/a	n/a	-999	16	[2, 4, 8]	12.0	FR1	0	R1354E
1988.827	2.483	1990077	PROB	2.472	n/a	n/a	-999	16	[9, 1, 4]	14.0	FR1	0	R1354E
1991.31	0.0	1992548	DISTRACT_END	n/a	n/a	n/a	-999	16	[0, 0, 0]	n/a	FR1	0	R1354E
1991.299	2.296	1992549	STOP	n/a	n/a	n/a	-999	16	[-999, -999, -999]	n/a	FR1	0	R1354E
1993.595	0.0	1994840	REC_START	n/a	n/a	n/a	-999	16	[0, 0, 0]	n/a	FR1	0	R1354E
1993.595	0.778	1994845	REC_WORD	0.0	n/a	FLEA	1	16	[0, 0, 0]	n/a	FR1	0	R1354E
1994.373	0.524	1995623	REC_WORD	0.778	n/a	YARD	2	16	[0, 0, 0]	n/a	FR1	0	R1354E
1994.897	8.73	1996147	REC_WORD	1.302	n/a	ZOO	3	16	[0, 0, 0]	n/a	FR1	0	R1354E
2003.627	19.982	2004877	REC_WORD	10.032	n/a	GEESE	12	16	[0, 0, 0]	n/a	FR1	0	R1354E
2023.609	4.642	2024865	REC_END	n/a	n/a	n/a	-999	16	[0, 0, 0]	n/a	FR1	0	R1354E
2028.251	10.0	2029532	COUNTDOWN_START	n/a	n/a	n/a	-999	17	[0, 0, 0]	n/a	FR1	0	R1354E
2038.679	1.141	2039927	COUNTDOWN_END	n/a	n/a	n/a	-999	17	[0, 0, 0]	n/a	FR1	0	R1354E
2039.82	0.964	2041059	ENCODING_START	n/a	n/a	n/a	-999	17	[0, 0, 0]	n/a	FR1	0	R1354E
2040.784	1.6	2042037	WORD	n/a	wordpools/wordpool_EN.txt	FAN	1	17	[0, 0, 0]	n/a	FR1	0	R1354E
2042.42	0.971	2043657	WORD_OFF	n/a	n/a	FAN	1	17	[0, 0, 0]	n/a	FR1	0	R1354E
2043.391	1.6	2044649	WORD	n/a	wordpools/wordpool_EN.txt	SHELL	2	17	[0, 0, 0]	n/a	FR1	0	R1354E
2045.019	0.846	2046256	WORD_OFF	n/a	n/a	SHELL	2	17	[0, 0, 0]	n/a	FR1	0	R1354E
2045.865	1.6	2047108	WORD	n/a	wordpools/wordpool_EN.txt	GOLD	3	17	[0, 0, 0]	n/a	FR1	0	R1354E
2047.487	0.944	2048729	WORD_OFF	n/a	n/a	GOLD	3	17	[0, 0, 0]	n/a	FR1	0	R1354E
2048.431	1.6	2049679	WORD	n/a	wordpools/wordpool_EN.txt	WALL	4	17	[0, 0, 0]	n/a	FR1	0	R1354E
2050.053	0.933	2051300	WORD_OFF	n/a	n/a	WALL	4	17	[0, 0, 0]	n/a	FR1	0	R1354E
2050.986	1.6	2052250	WORD	n/a	wordpools/wordpool_EN.txt	COUCH	5	17	[0, 0, 0]	n/a	FR1	0	R1354E
2052.604	0.957	2053843	WORD_OFF	n/a	n/a	COUCH	5	17	[0, 0, 0]	n/a	FR1	0	R1354E
2053.561	1.6	2054807	WORD	n/a	wordpools/wordpool_EN.txt	NOSE	6	17	[0, 0, 0]	n/a	FR1	0	R1354E
2055.188	1.015	2056428	WORD_OFF	n/a	n/a	NOSE	6	17	[0, 0, 0]	n/a	FR1	0	R1354E
2056.203	1.6	2057461	WORD	n/a	wordpools/wordpool_EN.txt	ROSE	7	17	[0, 0, 0]	n/a	FR1	0	R1354E
2057.839	1.076	2059082	WORD_OFF	n/a	n/a	ROSE	7	17	[0, 0, 0]	n/a	FR1	0	R1354E
2058.915	1.6	2060158	WORD	n/a	wordpools/wordpool_EN.txt	TREE	8	17	[0, 0, 0]	n/a	FR1	0	R1354E
2060.522	0.81	2061765	WORD_OFF	n/a	n/a	TREE	8	17	[0, 0, 0]	n/a	FR1	0	R1354E
2061.332	1.6	2062575	WORD	n/a	wordpools/wordpool_EN.txt	PARK	9	17	[0, 0, 0]	n/a	FR1	0	R1354E
2062.955	1.055	2064196	WORD_OFF	n/a	n/a	PARK	9	17	[0, 0, 0]	n/a	FR1	0	R1354E
2064.01	1.6	2065258	WORD	n/a	wordpools/wordpool_EN.txt	WEED	10	17	[0, 0, 0]	n/a	FR1	0	R1354E
2065.623	0.987	2066865	WORD_OFF	n/a	n/a	WEED	10	17	[0, 0, 0]	n/a	FR1	0	R1354E
2066.61	1.6	2067870	WORD	n/a	wordpools/wordpool_EN.txt	CROWN	11	17	[0, 0, 0]	n/a	FR1	0	R1354E
2068.241	0.845	2069477	WORD_OFF	n/a	n/a	CROWN	11	17	[0, 0, 0]	n/a	FR1	0	R1354E
2069.086	1.6	2070344	WORD	n/a	wordpools/wordpool_EN.txt	DUCK	12	17	[0, 0, 0]	n/a	FR1	0	R1354E
2070.708	0.0	2071955	START	n/a	n/a	n/a	-999	17	[-999, -999, -999]	n/a	FR1	0	R1354E
2070.707	0.001	2071964	WORD_OFF	n/a	n/a	DUCK	12	17	[0, 0, 0]	n/a	FR1	0	R1354E
2070.708	0.0	2071964	ENCODING_END	n/a	n/a	n/a	-999	17	[0, 0, 0]	n/a	FR1	0	R1354E
2070.708	0.016	2071964	DISTRACT_START	n/a	n/a	n/a	-999	17	[0, 0, 0]	n/a	FR1	0	R1354E
2070.724	2.484	2071971	PROB	2.452	n/a	n/a	-999	17	[2, 7, 5]	14.0	FR1	0	R1354E
2073.208	1.434	2074455	PROB	1.4	n/a	n/a	-999	17	[2, 4, 7]	13.0	FR1	0	R1354E
2074.642	1.617	2075889	PROB	1.581	n/a	n/a	-999	17	[3, 2, 7]	12.0	FR1	0	R1354E
2076.259	1.95	2077506	PROB	1.917	n/a	n/a	-999	17	[6, 7, 5]	18.0	FR1	0	R1354E
2078.209	1.583	2079456	PROB	1.558	n/a	n/a	-999	17	[7, 8, 7]	22.0	FR1	0	R1354E
2079.792	2.418	2081039	PROB	2.384	n/a	n/a	-999	17	[7, 1, 2]	10.0	FR1	0	R1354E
2082.21	1.617	2083457	PROB	1.582	n/a	n/a	-999	17	[3, 5, 4]	12.0	FR1	0	R1354E
2083.827	3.216	2085074	PROB	3.18	n/a	n/a	-999	17	[5, 4, 6]	15.0	FR1	0	R1354E
2087.043	1.801	2088290	PROB	1.764	n/a	n/a	-999	17	[1, 8, 1]	10.0	FR1	0	R1354E
2088.844	1.467	2090091	PROB	1.443	n/a	n/a	-999	17	[6, 8, 7]	21.0	FR1	0	R1354E
2090.311	1.504	2091558	PROB	1.504	n/a	n/a	-999	17	[5, 3, 4]	12.0	FR1	0	R1354E
2091.815	0.013	2093062	STOP	n/a	n/a	n/a	-999	17	[-999, -999, -999]	n/a	FR1	0	R1354E
2091.828	2.133	2093076	DISTRACT_END	n/a	n/a	n/a	-999	17	[0, 0, 0]	n/a	FR1	0	R1354E
2093.961	0.261	2095213	REC_START	n/a	n/a	n/a	-999	17	[0, 0, 0]	n/a	FR1	0	R1354E
2094.222	1.011	2095468	REC_WORD	0.261	n/a	PARK	9	17	[0, 0, 0]	n/a	FR1	0	R1354E
2095.233	3.202	2096479	REC_WORD	1.272	n/a	WEED	10	17	[0, 0, 0]	n/a	FR1	0	R1354E
2098.435	1.981	2099681	REC_WORD	4.474	n/a	GROUND	-999	17	[0, 0, 0]	n/a	FR1	0	R1354E
2100.416	23.558	2101662	REC_WORD	6.455	n/a	DUCK	12	17	[0, 0, 0]	n/a	FR1	0	R1354E
2123.974	9.961	2125239	REC_END	n/a	n/a	n/a	-999	17	[0, 0, 0]	n/a	FR1	0	R1354E
2133.935	10.0	2135215	COUNTDOWN_START	n/a	n/a	n/a	-999	18	[0, 0, 0]	n/a	FR1	0	R1354E
2144.363	1.225	2145610	COUNTDOWN_END	n/a	n/a	n/a	-999	18	[0, 0, 0]	n/a	FR1	0	R1354E
2145.588	0.798	2146825	ENCODING_START	n/a	n/a	n/a	-999	18	[0, 0, 0]	n/a	FR1	0	R1354E
2146.386	1.6	2147636	WORD	n/a	wordpools/wordpool_EN.txt	BEAN	1	18	[0, 0, 0]	n/a	FR1	0	R1354E
2148.02	0.854	2149256	WORD_OFF	n/a	n/a	BEAN	1	18	[0, 0, 0]	n/a	FR1	0	R1354E
2148.874	1.6	2150123	WORD	n/a	wordpools/wordpool_EN.txt	LAND	2	18	[0, 0, 0]	n/a	FR1	0	R1354E
2150.505	1.066	2151743	WORD_OFF	n/a	n/a	LAND	2	18	[0, 0, 0]	n/a	FR1	0	R1354E
2151.571	1.6	2152819	WORD	n/a	wordpools/wordpool_EN.txt	TRUCK	3	18	[0, 0, 0]	n/a	FR1	0	R1354E
2153.206	0.934	2154440	WORD_OFF	n/a	n/a	TRUCK	3	18	[0, 0, 0]	n/a	FR1	0	R1354E
2154.14	1.6	2155390	WORD	n/a	wordpools/wordpool_EN.txt	CAKE	4	18	[0, 0, 0]	n/a	FR1	0	R1354E
2155.773	0.892	2157011	WORD_OFF	n/a	n/a	CAKE	4	18	[0, 0, 0]	n/a	FR1	0	R1354E
2156.665	1.6	2157905	WORD	n/a	wordpools/wordpool_EN.txt	SPRING	5	18	[0, 0, 0]	n/a	FR1	0	R1354E
2158.29	0.873	2159526	WORD_OFF	n/a	n/a	SPRING	5	18	[0, 0, 0]	n/a	FR1	0	R1354E
2159.163	1.6	2160406	WORD	n/a	wordpools/wordpool_EN.txt	CLOWN	6	18	[0, 0, 0]	n/a	FR1	0	R1354E
2160.79	1.002	2162027	WORD_OFF	n/a	n/a	CLOWN	6	18	[0, 0, 0]	n/a	FR1	0	R1354E
2161.792	1.6	2163046	WORD	n/a	wordpools/wordpool_EN.txt	LEG	7	18	[0, 0, 0]	n/a	FR1	0	R1354E
2163.424	1.144	2164667	WORD_OFF	n/a	n/a	LEG	7	18	[0, 0, 0]	n/a	FR1	0	R1354E
2164.568	1.6	2165813	WORD	n/a	wordpools/wordpool_EN.txt	CAT	8	18	[0, 0, 0]	n/a	FR1	0	R1354E
2166.191	0.822	2167434	WORD_OFF	n/a	n/a	CAT	8	18	[0, 0, 0]	n/a	FR1	0	R1354E
2167.013	1.6	2168258	WORD	n/a	wordpools/wordpool_EN.txt	POND	9	18	[0, 0, 0]	n/a	FR1	0	R1354E
2168.625	1.078	2169865	WORD_OFF	n/a	n/a	POND	9	18	[0, 0, 0]	n/a	FR1	0	R1354E
2169.703	1.6	2170941	WORD	n/a	wordpools/wordpool_EN.txt	CHALK	10	18	[0, 0, 0]	n/a	FR1	0	R1354E
2171.325	0.787	2172561	WORD_OFF	n/a	n/a	CHALK	10	18	[0, 0, 0]	n/a	FR1	0	R1354E
2172.112	1.6	2173358	WORD	n/a	wordpools/wordpool_EN.txt	SUIT	11	18	[0, 0, 0]	n/a	FR1	0	R1354E
2173.742	0.994	2174978	WORD_OFF	n/a	n/a	SUIT	11	18	[0, 0, 0]	n/a	FR1	0	R1354E
2174.736	1.6	2175984	WORD	n/a	wordpools/wordpool_EN.txt	HILL	12	18	[0, 0, 0]	n/a	FR1	0	R1354E
2176.36	0.0	2177604	START	n/a	n/a	n/a	-999	18	[-999, -999, -999]	n/a	FR1	0	R1354E
2176.36	0.0	2177605	WORD_OFF	n/a	n/a	HILL	12	18	[0, 0, 0]	n/a	FR1	0	R1354E
2176.36	0.0	2177619	ENCODING_END	n/a	n/a	n/a	-999	18	[0, 0, 0]	n/a	FR1	0	R1354E
2176.36	0.016	2177619	DISTRACT_START	n/a	n/a	n/a	-999	18	[0, 0, 0]	n/a	FR1	0	R1354E
2176.376	2.467	2177620	PROB	2.434	n/a	n/a	-999	18	[5, 2, 1]	8.0	FR1	0	R1354E
2178.843	2.901	2180086	PROB	2.863	n/a	n/a	-999	18	[5, 9, 1]	15.0	FR1	0	R1354E
2181.744	1.417	2182987	PROB	1.385	n/a	n/a	-999	18	[9, 1, 5]	15.0	FR1	0	R1354E
2183.161	1.733	2184404	PROB	1.704	n/a	n/a	-999	18	[8, 9, 4]	21.0	FR1	0	R1354E
2184.894	2.517	2186137	PROB	2.491	n/a	n/a	-999	18	[8, 6, 3]	17.0	FR1	0	R1354E
2187.411	2.267	2188654	PROB	2.23	n/a	n/a	-999	18	[2, 5, 8]	15.0	FR1	0	R1354E
2189.678	2.467	2190921	PROB	2.442	n/a	n/a	-999	18	[4, 3, 1]	8.0	FR1	0	R1354E
2192.145	1.584	2193388	PROB	1.561	n/a	n/a	-999	18	[1, 8, 4]	13.0	FR1	0	R1354E
2193.729	1.283	2194972	PROB	1.248	n/a	n/a	-999	18	[3, 1, 7]	11.0	FR1	0	R1354E
2195.012	1.9	2196255	PROB	1.9	n/a	n/a	-999	18	[4, 8, 8]	20.0	FR1	0	R1354E
2196.912	0.017	2198155	STOP	n/a	n/a	n/a	-999	18	[-999, -999, -999]	n/a	FR1	0	R1354E
2196.929	2.219	2198172	DISTRACT_END	n/a	n/a	n/a	-999	18	[0, 0, 0]	n/a	FR1	0	R1354E
2199.148	3.287	2200393	REC_START	n/a	n/a	n/a	-999	18	[0, 0, 0]	n/a	FR1	0	R1354E
2202.435	26.724	2203678	REC_WORD	3.287	n/a	CLOWN	6	18	[0, 0, 0]	n/a	FR1	0	R1354E
2229.159	28.215	2230419	REC_END	n/a	n/a	n/a	-999	18	[0, 0, 0]	n/a	FR1	0	R1354E
2257.374	10.0	2258642	COUNTDOWN_START	n/a	n/a	n/a	-999	19	[0, 0, 0]	n/a	FR1	0	R1354E
2267.803	1.09	2269037	COUNTDOWN_END	n/a	n/a	n/a	-999	19	[0, 0, 0]	n/a	FR1	0	R1354E
2268.893	0.921	2270127	ENCODING_START	n/a	n/a	n/a	-999	19	[0, 0, 0]	n/a	FR1	0	R1354E
2269.814	1.6	2271063	WORD	n/a	wordpools/wordpool_EN.txt	BLOOM	1	19	[0, 0, 0]	n/a	FR1	0	R1354E
2271.443	0.898	2272683	WORD_OFF	n/a	n/a	BLOOM	1	19	[0, 0, 0]	n/a	FR1	0	R1354E
2272.341	1.6	2273592	WORD	n/a	wordpools/wordpool_EN.txt	PEACH	2	19	[0, 0, 0]	n/a	FR1	0	R1354E
2273.976	0.99	2275212	WORD_OFF	n/a	n/a	PEACH	2	19	[0, 0, 0]	n/a	FR1	0	R1354E
2274.966	1.6	2276204	WORD	n/a	wordpools/wordpool_EN.txt	SEAT	3	19	[0, 0, 0]	n/a	FR1	0	R1354E
2276.594	0.862	2277825	WORD_OFF	n/a	n/a	SEAT	3	19	[0, 0, 0]	n/a	FR1	0	R1354E
2277.456	1.6	2278691	WORD	n/a	wordpools/wordpool_EN.txt	VINE	4	19	[0, 0, 0]	n/a	FR1	0	R1354E
2279.076	0.858	2280312	WORD_OFF	n/a	n/a	VINE	4	19	[0, 0, 0]	n/a	FR1	0	R1354E
2279.934	1.6	2281178	WORD	n/a	wordpools/wordpool_EN.txt	GATE	5	19	[0, 0, 0]	n/a	FR1	0	R1354E
2281.561	0.961	2282799	WORD_OFF	n/a	n/a	GATE	5	19	[0, 0, 0]	n/a	FR1	0	R1354E
2282.522	1.6	2283763	WORD	n/a	wordpools/wordpool_EN.txt	CAGE	6	19	[0, 0, 0]	n/a	FR1	0	R1354E
2284.145	0.778	2285384	WORD_OFF	n/a	n/a	CAGE	6	19	[0, 0, 0]	n/a	FR1	0	R1354E
2284.923	1.6	2286166	WORD	n/a	wordpools/wordpool_EN.txt	MOON	7	19	[0, 0, 0]	n/a	FR1	0	R1354E
2286.529	1.063	2287759	WORD_OFF	n/a	n/a	MOON	7	19	[0, 0, 0]	n/a	FR1	0	R1354E
2287.592	1.6	2288823	WORD	n/a	wordpools/wordpool_EN.txt	HOSE	8	19	[0, 0, 0]	n/a	FR1	0	R1354E
2289.213	0.783	2290442	WORD_OFF	n/a	n/a	HOSE	8	19	[0, 0, 0]	n/a	FR1	0	R1354E
2289.996	1.6	2291252	WORD	n/a	wordpools/wordpool_EN.txt	MAIL	9	19	[0, 0, 0]	n/a	FR1	0	R1354E
2291.63	1.055	2292859	WORD_OFF	n/a	n/a	MAIL	9	19	[0, 0, 0]	n/a	FR1	0	R1354E
2292.685	1.6	2293934	WORD	n/a	wordpools/wordpool_EN.txt	LIP	10	19	[0, 0, 0]	n/a	FR1	0	R1354E
2294.313	0.808	2295541	WORD_OFF	n/a	n/a	LIP	10	19	[0, 0, 0]	n/a	FR1	0	R1354E
2295.121	1.6	2296366	WORD	n/a	wordpools/wordpool_EN.txt	BEAK	11	19	[0, 0, 0]	n/a	FR1	0	R1354E
2296.747	1.094	2297986	WORD_OFF	n/a	n/a	BEAK	11	19	[0, 0, 0]	n/a	FR1	0	R1354E
2297.841	1.6	2299076	WORD	n/a	wordpools/wordpool_EN.txt	CAPE	12	19	[0, 0, 0]	n/a	FR1	0	R1354E
2299.465	0.0	2300704	START	n/a	n/a	n/a	-999	19	[-999, -999, -999]	n/a	FR1	0	R1354E
2299.464	0.001	2300711	WORD_OFF	n/a	n/a	CAPE	12	19	[0, 0, 0]	n/a	FR1	0	R1354E
2299.465	0.0	2300711	ENCODING_END	n/a	n/a	n/a	-999	19	[0, 0, 0]	n/a	FR1	0	R1354E
2299.465	0.016	2300711	DISTRACT_START	n/a	n/a	n/a	-999	19	[0, 0, 0]	n/a	FR1	0	R1354E
2299.481	1.967	2300720	PROB	1.93	n/a	n/a	-999	19	[4, 7, 4]	15.0	FR1	0	R1354E
2301.448	1.884	2302687	PROB	1.858	n/a	n/a	-999	19	[7, 5, 6]	18.0	FR1	0	R1354E
2303.332	1.367	2304571	PROB	1.334	n/a	n/a	-999	19	[3, 4, 4]	11.0	FR1	0	R1354E
2304.699	2.133	2305938	PROB	2.111	n/a	n/a	-999	19	[9, 4, 1]	14.0	FR1	0	R1354E
2306.832	1.567	2308071	PROB	1.538	n/a	n/a	-999	19	[4, 2, 4]	10.0	FR1	0	R1354E
2308.399	1.917	2309638	PROB	1.883	n/a	n/a	-999	19	[3, 8, 4]	15.0	FR1	0	R1354E
2310.316	3.451	2311555	PROB	3.423	n/a	n/a	-999	19	[2, 9, 6]	17.0	FR1	0	R1354E
2313.767	1.5	2315006	PROB	1.476	n/a	n/a	-999	19	[1, 6, 7]	14.0	FR1	0	R1354E
2315.267	1.934	2316506	PROB	1.911	n/a	n/a	-999	19	[5, 1, 2]	8.0	FR1	0	R1354E
2317.201	1.567	2318440	PROB	1.537	n/a	n/a	-999	19	[7, 8, 7]	22.0	FR1	0	R1354E
2318.768	1.386	2320006	PROB	1.386	n/a	n/a	-999	19	[1, 8, 2]	11.0	FR1	0	R1354E
2320.154	0.014	2321392	STOP	n/a	n/a	n/a	-999	19	[-999, -999, -999]	n/a	FR1	0	R1354E
2320.168	2.184	2321403	DISTRACT_END	n/a	n/a	n/a	-999	19	[0, 0, 0]	n/a	FR1	0	R1354E
2322.352	0.0	2323590	REC_WORD	0.0	n/a	VINE	4	19	[0, 0, 0]	n/a	FR1	0	R1354E
2322.352	0.809	2323597	REC_START	n/a	n/a	n/a	-999	19	[0, 0, 0]	n/a	FR1	0	R1354E
2323.161	1.065	2324399	REC_WORD	0.809	n/a	CAPE	12	19	[0, 0, 0]	n/a	FR1	0	R1354E
2324.226	1.034	2325464	REC_WORD	1.874	n/a	GATE	5	19	[0, 0, 0]	n/a	FR1	0	R1354E
2325.26	27.103	2326498	REC_WORD	2.908	n/a	PEACH	2	19	[0, 0, 0]	n/a	FR1	0	R1354E
2352.363	14.663	2353608	REC_END	n/a	n/a	n/a	-999	19	[0, 0, 0]	n/a	FR1	0	R1354E
2367.026	10.0	2368293	COUNTDOWN_START	n/a	n/a	n/a	-999	20	[0, 0, 0]	n/a	FR1	0	R1354E
2377.455	1.141	2378688	COUNTDOWN_END	n/a	n/a	n/a	-999	20	[0, 0, 0]	n/a	FR1	0	R1354E
2378.596	1.117	2379833	ENCODING_START	n/a	n/a	n/a	-999	20	[0, 0, 0]	n/a	FR1	0	R1354E
2379.713	1.6	2380951	WORD	n/a	wordpools/wordpool_EN.txt	NET	1	20	[0, 0, 0]	n/a	FR1	0	R1354E
2381.345	0.947	2382572	WORD_OFF	n/a	n/a	NET	1	20	[0, 0, 0]	n/a	FR1	0	R1354E
2382.292	1.6	2383536	WORD	n/a	wordpools/wordpool_EN.txt	PASTE	2	20	[0, 0, 0]	n/a	FR1	0	R1354E
2383.928	0.912	2385157	WORD_OFF	n/a	n/a	PASTE	2	20	[0, 0, 0]	n/a	FR1	0	R1354E
2384.84	1.6	2386079	WORD	n/a	wordpools/wordpool_EN.txt	WING	3	20	[0, 0, 0]	n/a	FR1	0	R1354E
2386.463	1.117	2387685	WORD_OFF	n/a	n/a	WING	3	20	[0, 0, 0]	n/a	FR1	0	R1354E
2387.58	1.6	2388831	WORD	n/a	wordpools/wordpool_EN.txt	DESK	4	20	[0, 0, 0]	n/a	FR1	0	R1354E
2389.214	0.929	2390438	WORD_OFF	n/a	n/a	DESK	4	20	[0, 0, 0]	n/a	FR1	0	R1354E
2390.143	1.6	2391374	WORD	n/a	wordpools/wordpool_EN.txt	SHARK	5	20	[0, 0, 0]	n/a	FR1	0	R1354E
2391.764	0.89	2392995	WORD_OFF	n/a	n/a	SHARK	5	20	[0, 0, 0]	n/a	FR1	0	R1354E
2392.654	1.6	2393889	WORD	n/a	wordpools/wordpool_EN.txt	OAR	6	20	[0, 0, 0]	n/a	FR1	0	R1354E
2394.281	0.772	2395510	WORD_OFF	n/a	n/a	OAR	6	20	[0, 0, 0]	n/a	FR1	0	R1354E
2395.053	1.6	2396292	WORD	n/a	wordpools/wordpool_EN.txt	FLAG	7	20	[0, 0, 0]	n/a	FR1	0	R1354E
2396.665	1.114	2397899	WORD_OFF	n/a	n/a	FLAG	7	20	[0, 0, 0]	n/a	FR1	0	R1354E
2397.779	1.6	2399031	WORD	n/a	wordpools/wordpool_EN.txt	STRAW	8	20	[0, 0, 0]	n/a	FR1	0	R1354E
2399.415	1.117	2400651	WORD_OFF	n/a	n/a	STRAW	8	20	[0, 0, 0]	n/a	FR1	0	R1354E
2400.532	1.6	2401783	WORD	n/a	wordpools/wordpool_EN.txt	CORD	9	20	[0, 0, 0]	n/a	FR1	0	R1354E
2402.166	1.001	2403390	WORD_OFF	n/a	n/a	CORD	9	20	[0, 0, 0]	n/a	FR1	0	R1354E
2403.167	1.6	2404410	WORD	n/a	wordpools/wordpool_EN.txt	OWL	10	20	[0, 0, 0]	n/a	FR1	0	R1354E
2404.8	0.922	2406030	WORD_OFF	n/a	n/a	OWL	10	20	[0, 0, 0]	n/a	FR1	0	R1354E
2405.722	1.6	2406966	WORD	n/a	wordpools/wordpool_EN.txt	SPOON	11	20	[0, 0, 0]	n/a	FR1	0	R1354E
2407.35	0.913	2408573	WORD_OFF	n/a	n/a	SPOON	11	20	[0, 0, 0]	n/a	FR1	0	R1354E
2408.263	1.6	2409495	WORD	n/a	wordpools/wordpool_EN.txt	HAWK	12	20	[0, 0, 0]	n/a	FR1	0	R1354E
2409.885	0.0	2411120	START	n/a	n/a	n/a	-999	20	[-999, -999, -999]	n/a	FR1	0	R1354E
2409.884	0.0	2411130	WORD_OFF	n/a	n/a	HAWK	12	20	[0, 0, 0]	n/a	FR1	0	R1354E
2409.884	0.001	2411130	ENCODING_END	n/a	n/a	n/a	-999	20	[0, 0, 0]	n/a	FR1	0	R1354E
2409.885	0.015	2411130	DISTRACT_START	n/a	n/a	n/a	-999	20	[0, 0, 0]	n/a	FR1	0	R1354E
2409.9	2.584	2411135	PROB	2.556	n/a	n/a	-999	20	[8, 6, 2]	16.0	FR1	0	R1354E
2412.484	1.433	2413719	PROB	1.395	n/a	n/a	-999	20	[1, 2, 7]	10.0	FR1	0	R1354E
2413.917	2.651	2415152	PROB	2.626	n/a	n/a	-999	20	[6, 9, 8]	23.0	FR1	0	R1354E
2416.568	1.416	2417803	PROB	1.382	n/a	n/a	-999	20	[6, 4, 2]	12.0	FR1	0	R1354E
2417.984	1.435	2419219	PROB	1.399	n/a	n/a	-999	20	[5, 5, 3]	13.0	FR1	0	R1354E
2419.419	1.582	2420654	PROB	1.556	n/a	n/a	-999	20	[5, 6, 4]	15.0	FR1	0	R1354E
2421.001	1.318	2422236	PROB	1.287	n/a	n/a	-999	20	[2, 1, 2]	5.0	FR1	0	R1354E
2422.319	1.716	2423554	PROB	1.687	n/a	n/a	-999	20	[7, 2, 1]	10.0	FR1	0	R1354E
2424.035	1.635	2425270	PROB	1.612	n/a	n/a	-999	20	[6, 5, 4]	15.0	FR1	0	R1354E
2425.67	1.416	2426905	PROB	1.392	n/a	n/a	-999	20	[6, 7, 2]	15.0	FR1	0	R1354E
2427.086	2.551	2428321	PROB	2.513	n/a	n/a	-999	20	[4, 2, 7]	13.0	FR1	0	R1354E
2429.637	2.401	2430872	PROB	2.401	n/a	n/a	-999	20	[8, 9, 9]	26.0	FR1	0	R1354E
2432.038	0.015	2433272	STOP	n/a	n/a	n/a	-999	20	[-999, -999, -999]	n/a	FR1	0	R1354E
2432.053	2.269	2433289	DISTRACT_END	n/a	n/a	n/a	-999	20	[0, 0, 0]	n/a	FR1	0	R1354E
2434.322	0.0	2435553	REC_START	n/a	n/a	n/a	-999	20	[0, 0, 0]	n/a	FR1	0	R1354E
2434.322	1.109	2435556	REC_WORD	0.0	n/a	SPOON	11	20	[0, 0, 0]	n/a	FR1	0	R1354E
2435.431	0.793	2436665	REC_WORD	1.109	n/a	NET	1	20	[0, 0, 0]	n/a	FR1	0	R1354E
2436.224	6.782	2437458	REC_WORD	1.902	n/a	PASTE	2	20	[0, 0, 0]	n/a	FR1	0	R1354E
2443.006	4.2	2444240	REC_WORD	8.684	n/a	FLAG	7	20	[0, 0, 0]	n/a	FR1	0	R1354E
2447.206	4.267	2448440	REC_WORD	12.884	n/a	OAR	6	20	[0, 0, 0]	n/a	FR1	0	R1354E
2451.473	12.86	2452707	REC_WORD	17.151	n/a	DESK	4	20	[0, 0, 0]	n/a	FR1	0	R1354E
2464.333	13.03	2465578	REC_END	n/a	n/a	n/a	-999	20	[0, 0, 0]	n/a	FR1	0	R1354E
2477.363	10.0	2478628	COUNTDOWN_START	n/a	n/a	n/a	-999	21	[0, 0, 0]	n/a	FR1	0	R1354E
2487.791	1.206	2489023	COUNTDOWN_END	n/a	n/a	n/a	-999	21	[0, 0, 0]	n/a	FR1	0	R1354E
2488.997	1.043	2490225	ENCODING_START	n/a	n/a	n/a	-999	21	[0, 0, 0]	n/a	FR1	0	R1354E
2490.04	1.6	2491272	WORD	n/a	wordpools/wordpool_EN.txt	FOX	1	21	[0, 0, 0]	n/a	FR1	0	R1354E
2491.665	0.786	2492893	WORD_OFF	n/a	n/a	FOX	1	21	[0, 0, 0]	n/a	FR1	0	R1354E
2492.451	1.6	2493690	WORD	n/a	wordpools/wordpool_EN.txt	FRUIT	2	21	[0, 0, 0]	n/a	FR1	0	R1354E
2494.081	1.006	2495310	WORD_OFF	n/a	n/a	FRUIT	2	21	[0, 0, 0]	n/a	FR1	0	R1354E
2495.087	1.6	2496316	WORD	n/a	wordpools/wordpool_EN.txt	SHOE	3	21	[0, 0, 0]	n/a	FR1	0	R1354E
2496.716	0.845	2497937	WORD_OFF	n/a	n/a	SHOE	3	21	[0, 0, 0]	n/a	FR1	0	R1354E
2497.561	1.6	2498789	WORD	n/a	wordpools/wordpool_EN.txt	BRIDGE	4	21	[0, 0, 0]	n/a	FR1	0	R1354E
2499.183	0.904	2500410	WORD_OFF	n/a	n/a	BRIDGE	4	21	[0, 0, 0]	n/a	FR1	0	R1354E
2500.087	1.6	2501318	WORD	n/a	wordpools/wordpool_EN.txt	CUBE	5	21	[0, 0, 0]	n/a	FR1	0	R1354E
2501.7	1.065	2502925	WORD_OFF	n/a	n/a	CUBE	5	21	[0, 0, 0]	n/a	FR1	0	R1354E
2502.765	1.6	2504001	WORD	n/a	wordpools/wordpool_EN.txt	GUARD	6	21	[0, 0, 0]	n/a	FR1	0	R1354E
2504.4	1.049	2505622	WORD_OFF	n/a	n/a	GUARD	6	21	[0, 0, 0]	n/a	FR1	0	R1354E
2505.449	1.6	2506697	WORD	n/a	wordpools/wordpool_EN.txt	CHIN	7	21	[0, 0, 0]	n/a	FR1	0	R1354E
2507.083	1.123	2508304	WORD_OFF	n/a	n/a	CHIN	7	21	[0, 0, 0]	n/a	FR1	0	R1354E
2508.206	1.6	2509436	WORD	n/a	wordpools/wordpool_EN.txt	CHIEF	8	21	[0, 0, 0]	n/a	FR1	0	R1354E
2509.835	1.023	2511057	WORD_OFF	n/a	n/a	CHIEF	8	21	[0, 0, 0]	n/a	FR1	0	R1354E
2510.858	1.6	2512090	WORD	n/a	wordpools/wordpool_EN.txt	HOOK	9	21	[0, 0, 0]	n/a	FR1	0	R1354E
2512.485	0.982	2513711	WORD_OFF	n/a	n/a	HOOK	9	21	[0, 0, 0]	n/a	FR1	0	R1354E
2513.467	1.6	2514703	WORD	n/a	wordpools/wordpool_EN.txt	TOOL	10	21	[0, 0, 0]	n/a	FR1	0	R1354E
2515.101	0.857	2516324	WORD_OFF	n/a	n/a	TOOL	10	21	[0, 0, 0]	n/a	FR1	0	R1354E
2515.958	1.6	2517190	WORD	n/a	wordpools/wordpool_EN.txt	BRUSH	11	21	[0, 0, 0]	n/a	FR1	0	R1354E
2517.586	1.092	2518811	WORD_OFF	n/a	n/a	BRUSH	11	21	[0, 0, 0]	n/a	FR1	0	R1354E
2518.678	1.6	2519915	WORD	n/a	wordpools/wordpool_EN.txt	GLOVE	12	21	[0, 0, 0]	n/a	FR1	0	R1354E
2520.304	0.0	2521535	START	n/a	n/a	n/a	-999	21	[-999, -999, -999]	n/a	FR1	0	R1354E
2520.303	0.0	2521549	WORD_OFF	n/a	n/a	GLOVE	12	21	[0, 0, 0]	n/a	FR1	0	R1354E
2520.303	0.001	2521549	ENCODING_END	n/a	n/a	n/a	-999	21	[0, 0, 0]	n/a	FR1	0	R1354E
2520.304	0.016	2521549	DISTRACT_START	n/a	n/a	n/a	-999	21	[0, 0, 0]	n/a	FR1	0	R1354E
2520.32	2.95	2521551	PROB	2.926	n/a	n/a	-999	21	[5, 4, 7]	16.0	FR1	0	R1354E
2523.27	3.417	2524501	PROB	3.391	n/a	n/a	-999	21	[9, 1, 4]	14.0	FR1	0	R1354E
2526.687	1.184	2527918	PROB	1.15	n/a	n/a	-999	21	[1, 2, 8]	11.0	FR1	0	R1354E
2527.871	1.9	2529102	PROB	1.87	n/a	n/a	-999	21	[9, 9, 8]	26.0	FR1	0	R1354E
2529.771	2.017	2531002	PROB	1.986	n/a	n/a	-999	21	[2, 9, 1]	12.0	FR1	0	R1354E
2531.788	1.551	2533019	PROB	1.514	n/a	n/a	-999	21	[6, 2, 4]	1.0	FR1	0	R1354E
2533.339	1.749	2534570	PROB	1.713	n/a	n/a	-999	21	[9, 1, 4]	14.0	FR1	0	R1354E
2535.088	2.035	2536319	PROB	2.004	n/a	n/a	-999	21	[1, 5, 9]	15.0	FR1	0	R1354E
2537.123	1.849	2538354	PROB	1.817	n/a	n/a	-999	21	[3, 2, 2]	7.0	FR1	0	R1354E
2538.972	1.465	2540203	PROB	1.465	n/a	n/a	-999	21	[4, 2, 2]	10.0	FR1	0	R1354E
2540.437	0.02	2541668	STOP	n/a	n/a	n/a	-999	21	[-999, -999, -999]	n/a	FR1	0	R1354E
2540.457	2.217	2541683	DISTRACT_END	n/a	n/a	n/a	-999	21	[0, 0, 0]	n/a	FR1	0	R1354E
2542.674	29.994	2543904	REC_START	n/a	n/a	n/a	-999	21	[0, 0, 0]	n/a	FR1	0	R1354E
2572.668	0.019	2573898	REC_WORD_VV	29.994	n/a	<>	-999	21	[0, 0, 0]	n/a	FR1	0	R1354E
2572.687	12.811	2573930	REC_END	n/a	n/a	n/a	-999	21	[0, 0, 0]	n/a	FR1	0	R1354E
2585.498	10.0	2586756	COUNTDOWN_START	n/a	n/a	n/a	-999	22	[0, 0, 0]	n/a	FR1	0	R1354E
2595.927	1.106	2597151	COUNTDOWN_END	n/a	n/a	n/a	-999	22	[0, 0, 0]	n/a	FR1	0	R1354E
2597.033	0.95	2598255	ENCODING_START	n/a	n/a	n/a	-999	22	[0, 0, 0]	n/a	FR1	0	R1354E
2597.983	1.6	2599219	WORD	n/a	wordpools/wordpool_EN.txt	SLIME	1	22	[0, 0, 0]	n/a	FR1	0	R1354E
2599.6	0.868	2600825	WORD_OFF	n/a	n/a	SLIME	1	22	[0, 0, 0]	n/a	FR1	0	R1354E
2600.468	1.6	2601706	WORD	n/a	wordpools/wordpool_EN.txt	LAWN	2	22	[0, 0, 0]	n/a	FR1	0	R1354E
2602.1	1.14	2603326	WORD_OFF	n/a	n/a	LAWN	2	22	[0, 0, 0]	n/a	FR1	0	R1354E
2603.24	1.6	2604472	WORD	n/a	wordpools/wordpool_EN.txt	PIN	3	22	[0, 0, 0]	n/a	FR1	0	R1354E
2604.868	0.988	2606093	WORD_OFF	n/a	n/a	PIN	3	22	[0, 0, 0]	n/a	FR1	0	R1354E
2605.856	1.6	2607085	WORD	n/a	wordpools/wordpool_EN.txt	SPEAR	4	22	[0, 0, 0]	n/a	FR1	0	R1354E
2607.485	0.867	2608706	WORD_OFF	n/a	n/a	SPEAR	4	22	[0, 0, 0]	n/a	FR1	0	R1354E
2608.352	1.6	2609586	WORD	n/a	wordpools/wordpool_EN.txt	WHEEL	5	22	[0, 0, 0]	n/a	FR1	0	R1354E
2609.984	0.929	2611207	WORD_OFF	n/a	n/a	WHEEL	5	22	[0, 0, 0]	n/a	FR1	0	R1354E
2610.913	1.6	2612143	WORD	n/a	wordpools/wordpool_EN.txt	JET	6	22	[0, 0, 0]	n/a	FR1	0	R1354E
2612.536	0.952	2613763	WORD_OFF	n/a	n/a	JET	6	22	[0, 0, 0]	n/a	FR1	0	R1354E
2613.488	1.6	2614727	WORD	n/a	wordpools/wordpool_EN.txt	FROG	7	22	[0, 0, 0]	n/a	FR1	0	R1354E
2615.119	1.144	2616334	WORD_OFF	n/a	n/a	FROG	7	22	[0, 0, 0]	n/a	FR1	0	R1354E
2616.263	1.6	2617494	WORD	n/a	wordpools/wordpool_EN.txt	DITCH	8	22	[0, 0, 0]	n/a	FR1	0	R1354E
2617.887	0.901	2619115	WORD_OFF	n/a	n/a	DITCH	8	22	[0, 0, 0]	n/a	FR1	0	R1354E
2618.788	1.6	2620023	WORD	n/a	wordpools/wordpool_EN.txt	KEY	9	22	[0, 0, 0]	n/a	FR1	0	R1354E
2620.421	0.968	2621644	WORD_OFF	n/a	n/a	KEY	9	22	[0, 0, 0]	n/a	FR1	0	R1354E
2621.389	1.6	2622622	WORD	n/a	wordpools/wordpool_EN.txt	CANE	10	22	[0, 0, 0]	n/a	FR1	0	R1354E
2623.02	0.889	2624242	WORD_OFF	n/a	n/a	CANE	10	22	[0, 0, 0]	n/a	FR1	0	R1354E
2623.909	1.6	2625136	WORD	n/a	wordpools/wordpool_EN.txt	CHEEK	11	22	[0, 0, 0]	n/a	FR1	0	R1354E
2625.538	1.045	2626757	WORD_OFF	n/a	n/a	CHEEK	11	22	[0, 0, 0]	n/a	FR1	0	R1354E
2626.583	1.6	2627805	WORD	n/a	wordpools/wordpool_EN.txt	BOOK	12	22	[0, 0, 0]	n/a	FR1	0	R1354E
2628.206	0.0	2629434	START	n/a	n/a	n/a	-999	22	[-999, -999, -999]	n/a	FR1	0	R1354E
2628.205	0.001	2629440	WORD_OFF	n/a	n/a	BOOK	12	22	[0, 0, 0]	n/a	FR1	0	R1354E
2628.206	0.0	2629440	ENCODING_END	n/a	n/a	n/a	-999	22	[0, 0, 0]	n/a	FR1	0	R1354E
2628.206	0.016	2629440	DISTRACT_START	n/a	n/a	n/a	-999	22	[0, 0, 0]	n/a	FR1	0	R1354E
2628.222	1.633	2629450	PROB	1.596	n/a	n/a	-999	22	[5, 5, 2]	12.0	FR1	0	R1354E
2629.855	0.984	2631083	PROB	0.955	n/a	n/a	-999	22	[8, 3, 1]	12.0	FR1	0	R1354E
2630.839	1.334	2632066	PROB	1.308	n/a	n/a	-999	22	[1, 3, 7]	11.0	FR1	0	R1354E
2632.173	1.45	2633400	PROB	1.413	n/a	n/a	-999	22	[1, 9, 8]	19.0	FR1	0	R1354E
2633.623	3.55	2634850	PROB	3.523	n/a	n/a	-999	22	[2, 7, 5]	15.0	FR1	0	R1354E
2637.173	1.883	2638400	PROB	1.851	n/a	n/a	-999	22	[2, 7, 3]	12.0	FR1	0	R1354E
2639.056	1.718	2640283	PROB	1.69	n/a	n/a	-999	22	[3, 8, 3]	14.0	FR1	0	R1354E
2640.774	1.567	2642001	PROB	1.54	n/a	n/a	-999	22	[6, 4, 3]	13.0	FR1	0	R1354E
2642.341	2.317	2643568	PROB	2.293	n/a	n/a	-999	22	[4, 4, 6]	14.0	FR1	0	R1354E
2644.658	2.734	2645885	PROB	2.696	n/a	n/a	-999	22	[2, 3, 3]	8.0	FR1	0	R1354E
2647.392	3.155	2648619	PROB	3.155	n/a	n/a	-999	22	[9, 8, 3]	20.0	FR1	0	R1354E
2650.547	0.012	2651774	STOP	n/a	n/a	n/a	-999	22	[-999, -999, -999]	n/a	FR1	0	R1354E
2650.559	2.168	2651781	DISTRACT_END	n/a	n/a	n/a	-999	22	[0, 0, 0]	n/a	FR1	0	R1354E
2652.727	0.13	2653960	REC_START	n/a	n/a	n/a	-999	22	[0, 0, 0]	n/a	FR1	0	R1354E
2652.857	1.175	2654084	REC_WORD	0.13	n/a	SLIME	1	22	[0, 0, 0]	n/a	FR1	0	R1354E
2654.032	1.714	2655259	REC_WORD	1.305	n/a	SPEAR	4	22	[0, 0, 0]	n/a	FR1	0	R1354E
2655.746	2.337	2656973	REC_WORD	3.019	n/a	WHEEL	5	22	[0, 0, 0]	n/a	FR1	0	R1354E
2658.083	24.655	2659310	REC_WORD	5.356	n/a	JET	6	22	[0, 0, 0]	n/a	FR1	0	R1354E
2682.738	15.83	2683972	REC_END	n/a	n/a	n/a	-999	22	[0, 0, 0]	n/a	FR1	0	R1354E
2698.568	10.0	2699816	COUNTDOWN_START	n/a	n/a	n/a	-999	23	[0, 0, 0]	n/a	FR1	0	R1354E
2708.996	1.124	2710225	COUNTDOWN_END	n/a	n/a	n/a	-999	23	[0, 0, 0]	n/a	FR1	0	R1354E
2710.12	1.061	2711343	ENCODING_START	n/a	n/a	n/a	-999	23	[0, 0, 0]	n/a	FR1	0	R1354E
2711.181	1.6	2712404	WORD	n/a	wordpools/wordpool_EN.txt	SHRIMP	1	23	[0, 0, 0]	n/a	FR1	0	R1354E
2712.803	1.143	2714025	WORD_OFF	n/a	n/a	SHRIMP	1	23	[0, 0, 0]	n/a	FR1	0	R1354E
2713.946	1.6	2715171	WORD	n/a	wordpools/wordpool_EN.txt	PET	2	23	[0, 0, 0]	n/a	FR1	0	R1354E
2715.554	0.993	2716778	WORD_OFF	n/a	n/a	PET	2	23	[0, 0, 0]	n/a	FR1	0	R1354E
2716.547	1.6	2717770	WORD	n/a	wordpools/wordpool_EN.txt	GRAPE	3	23	[0, 0, 0]	n/a	FR1	0	R1354E
2718.171	0.897	2719390	WORD_OFF	n/a	n/a	GRAPE	3	23	[0, 0, 0]	n/a	FR1	0	R1354E
2719.068	1.6	2720298	WORD	n/a	wordpools/wordpool_EN.txt	FOOT	4	23	[0, 0, 0]	n/a	FR1	0	R1354E
2720.705	0.864	2721919	WORD_OFF	n/a	n/a	FOOT	4	23	[0, 0, 0]	n/a	FR1	0	R1354E
2721.569	1.6	2722799	WORD	n/a	wordpools/wordpool_EN.txt	EGG	5	23	[0, 0, 0]	n/a	FR1	0	R1354E
2723.205	1.012	2724420	WORD_OFF	n/a	n/a	EGG	5	23	[0, 0, 0]	n/a	FR1	0	R1354E
2724.217	1.6	2725440	WORD	n/a	wordpools/wordpool_EN.txt	SMILE	6	23	[0, 0, 0]	n/a	FR1	0	R1354E
2725.839	0.822	2727061	WORD_OFF	n/a	n/a	SMILE	6	23	[0, 0, 0]	n/a	FR1	0	R1354E
2726.661	1.6	2727885	WORD	n/a	wordpools/wordpool_EN.txt	DRESS	7	23	[0, 0, 0]	n/a	FR1	0	R1354E
2728.273	0.824	2729492	WORD_OFF	n/a	n/a	DRESS	7	23	[0, 0, 0]	n/a	FR1	0	R1354E
2729.097	1.6	2730316	WORD	n/a	wordpools/wordpool_EN.txt	FLUTE	8	23	[0, 0, 0]	n/a	FR1	0	R1354E
2730.723	0.954	2731937	WORD_OFF	n/a	n/a	FLUTE	8	23	[0, 0, 0]	n/a	FR1	0	R1354E
2731.677	1.6	2732901	WORD	n/a	wordpools/wordpool_EN.txt	FORK	9	23	[0, 0, 0]	n/a	FR1	0	R1354E
2733.307	0.99	2734522	WORD_OFF	n/a	n/a	FORK	9	23	[0, 0, 0]	n/a	FR1	0	R1354E
2734.297	1.6	2735528	WORD	n/a	wordpools/wordpool_EN.txt	PIE	10	23	[0, 0, 0]	n/a	FR1	0	R1354E
2735.923	1.05	2737135	WORD_OFF	n/a	n/a	PIE	10	23	[0, 0, 0]	n/a	FR1	0	R1354E
2736.973	1.6	2738210	WORD	n/a	wordpools/wordpool_EN.txt	FOG	11	23	[0, 0, 0]	n/a	FR1	0	R1354E
2738.591	0.863	2739803	WORD_OFF	n/a	n/a	FOG	11	23	[0, 0, 0]	n/a	FR1	0	R1354E
2739.454	1.6	2740669	WORD	n/a	wordpools/wordpool_EN.txt	FARM	12	23	[0, 0, 0]	n/a	FR1	0	R1354E
2741.075	0.0	2742299	START	n/a	n/a	n/a	-999	23	[-999, -999, -999]	n/a	FR1	0	R1354E
2741.074	0.0	2742304	WORD_OFF	n/a	n/a	FARM	12	23	[0, 0, 0]	n/a	FR1	0	R1354E
2741.074	0.017	2742304	ENCODING_END	n/a	n/a	n/a	-999	23	[0, 0, 0]	n/a	FR1	0	R1354E
2741.091	0.0	2742315	PROB	2.254	n/a	n/a	-999	23	[6, 5, 2]	13.0	FR1	0	R1354E
2741.075	2.3	2742318	DISTRACT_START	n/a	n/a	n/a	-999	23	[0, 0, 0]	n/a	FR1	0	R1354E
2743.375	1.666	2744599	PROB	1.642	n/a	n/a	-999	23	[3, 6, 1]	10.0	FR1	0	R1354E
2745.041	1.718	2746264	PROB	1.68	n/a	n/a	-999	23	[1, 7, 5]	13.0	FR1	0	R1354E
2746.759	1.917	2747982	PROB	1.891	n/a	n/a	-999	23	[7, 6, 7]	20.0	FR1	0	R1354E
2748.676	2.467	2749899	PROB	2.429	n/a	n/a	-999	23	[5, 3, 8]	16.0	FR1	0	R1354E
2751.143	2.518	2752366	PROB	2.483	n/a	n/a	-999	23	[6, 2, 8]	16.0	FR1	0	R1354E
2753.661	2.1	2754884	PROB	2.077	n/a	n/a	-999	23	[6, 4, 3]	13.0	FR1	0	R1354E
2755.761	2.434	2756984	PROB	2.409	n/a	n/a	-999	23	[5, 7, 3]	15.0	FR1	0	R1354E
2758.195	3.022	2759418	PROB	3.022	n/a	n/a	-999	23	[9, 4, 6]	19.0	FR1	0	R1354E
2761.217	0.012	2762440	STOP	n/a	n/a	n/a	-999	23	[-999, -999, -999]	n/a	FR1	0	R1354E
2761.229	2.234	2762451	DISTRACT_END	n/a	n/a	n/a	-999	23	[0, 0, 0]	n/a	FR1	0	R1354E
2763.463	0.172	2764687	REC_START	n/a	n/a	n/a	-999	23	[0, 0, 0]	n/a	FR1	0	R1354E
2763.635	1.025	2764858	REC_WORD	0.172	n/a	SHRIMP	1	23	[0, 0, 0]	n/a	FR1	0	R1354E
2764.66	0.93	2765883	REC_WORD	1.197	n/a	EGG	5	23	[0, 0, 0]	n/a	FR1	0	R1354E
2765.59	1.47	2766813	REC_WORD	2.127	n/a	GRAPE	3	23	[0, 0, 0]	n/a	FR1	0	R1354E
2767.06	1.588	2768283	REC_WORD	3.597	n/a	FOOT	4	23	[0, 0, 0]	n/a	FR1	0	R1354E
2768.648	23.913	2769871	REC_WORD	5.185	n/a	FORK	9	23	[0, 0, 0]	n/a	FR1	0	R1354E
2792.561	0.913	2793783	REC_WORD	29.098	n/a	FARM	12	23	[0, 0, 0]	n/a	FR1	0	R1354E
2793.474	6.862	2794712	REC_END	n/a	n/a	n/a	-999	23	[0, 0, 0]	n/a	FR1	0	R1354E
2800.336	10.0	2801587	COUNTDOWN_START	n/a	n/a	n/a	-999	24	[0, 0, 0]	n/a	FR1	0	R1354E
2810.764	1.074	2811982	COUNTDOWN_END	n/a	n/a	n/a	-999	24	[0, 0, 0]	n/a	FR1	0	R1354E
2811.838	0.915	2813057	ENCODING_START	n/a	n/a	n/a	-999	24	[0, 0, 0]	n/a	FR1	0	R1354E
2812.753	1.6	2813980	WORD	n/a	wordpools/wordpool_EN.txt	SLEEVE	1	24	[0, 0, 0]	n/a	FR1	0	R1354E
2814.388	0.941	2815600	WORD_OFF	n/a	n/a	SLEEVE	1	24	[0, 0, 0]	n/a	FR1	0	R1354E
2815.329	1.6	2816550	WORD	n/a	wordpools/wordpool_EN.txt	HOLE	2	24	[0, 0, 0]	n/a	FR1	0	R1354E
2816.954	1.072	2818171	WORD_OFF	n/a	n/a	HOLE	2	24	[0, 0, 0]	n/a	FR1	0	R1354E
2818.026	1.6	2819247	WORD	n/a	wordpools/wordpool_EN.txt	DART	3	24	[0, 0, 0]	n/a	FR1	0	R1354E
2819.656	0.949	2820868	WORD_OFF	n/a	n/a	DART	3	24	[0, 0, 0]	n/a	FR1	0	R1354E
2820.605	1.6	2821832	WORD	n/a	wordpools/wordpool_EN.txt	SHIELD	4	24	[0, 0, 0]	n/a	FR1	0	R1354E
2822.239	0.841	2823452	WORD_OFF	n/a	n/a	SHIELD	4	24	[0, 0, 0]	n/a	FR1	0	R1354E
2823.08	1.6	2824305	WORD	n/a	wordpools/wordpool_EN.txt	OAK	5	24	[0, 0, 0]	n/a	FR1	0	R1354E
2824.707	0.907	2825925	WORD_OFF	n/a	n/a	OAK	5	24	[0, 0, 0]	n/a	FR1	0	R1354E
2825.614	1.6	2826834	WORD	n/a	wordpools/wordpool_EN.txt	WAVE	6	24	[0, 0, 0]	n/a	FR1	0	R1354E
2827.24	0.958	2828454	WORD_OFF	n/a	n/a	WAVE	6	24	[0, 0, 0]	n/a	FR1	0	R1354E
2828.198	1.6	2829418	WORD	n/a	wordpools/wordpool_EN.txt	LAKE	7	24	[0, 0, 0]	n/a	FR1	0	R1354E
2829.824	0.98	2831039	WORD_OFF	n/a	n/a	LAKE	7	24	[0, 0, 0]	n/a	FR1	0	R1354E
2830.804	1.6	2832031	WORD	n/a	wordpools/wordpool_EN.txt	FENCE	8	24	[0, 0, 0]	n/a	FR1	0	R1354E
2832.441	1.111	2833652	WORD_OFF	n/a	n/a	FENCE	8	24	[0, 0, 0]	n/a	FR1	0	R1354E
2833.552	1.6	2834770	WORD	n/a	wordpools/wordpool_EN.txt	BOWL	9	24	[0, 0, 0]	n/a	FR1	0	R1354E
2835.175	0.822	2836390	WORD_OFF	n/a	n/a	BOWL	9	24	[0, 0, 0]	n/a	FR1	0	R1354E
2835.997	1.6	2837215	WORD	n/a	wordpools/wordpool_EN.txt	CROW	10	24	[0, 0, 0]	n/a	FR1	0	R1354E
2837.609	1.021	2838821	WORD_OFF	n/a	n/a	CROW	10	24	[0, 0, 0]	n/a	FR1	0	R1354E
2838.63	1.6	2839855	WORD	n/a	wordpools/wordpool_EN.txt	FISH	11	24	[0, 0, 0]	n/a	FR1	0	R1354E
2840.259	1.115	2841476	WORD_OFF	n/a	n/a	FISH	11	24	[0, 0, 0]	n/a	FR1	0	R1354E
2841.374	1.6	2842608	WORD	n/a	wordpools/wordpool_EN.txt	BED	12	24	[0, 0, 0]	n/a	FR1	0	R1354E
2843.009	0.0	2844229	START	n/a	n/a	n/a	-999	24	[-999, -999, -999]	n/a	FR1	0	R1354E
2843.008	0.001	2844242	WORD_OFF	n/a	n/a	BED	12	24	[0, 0, 0]	n/a	FR1	0	R1354E
2843.009	0.0	2844242	ENCODING_END	n/a	n/a	n/a	-999	24	[0, 0, 0]	n/a	FR1	0	R1354E
2843.009	0.016	2844242	DISTRACT_START	n/a	n/a	n/a	-999	24	[0, 0, 0]	n/a	FR1	0	R1354E
2843.025	5.852	2844245	PROB	5.827	n/a	n/a	-999	24	[5, 4, 5]	14.0	FR1	0	R1354E
2848.877	1.667	2850097	PROB	1.639	n/a	n/a	-999	24	[4, 7, 2]	13.0	FR1	0	R1354E
2850.544	1.951	2851764	PROB	1.915	n/a	n/a	-999	24	[4, 3, 1]	8.0	FR1	0	R1354E
2852.495	2.15	2853715	PROB	2.124	n/a	n/a	-999	24	[5, 8, 7]	20.0	FR1	0	R1354E
2854.645	1.7	2855865	PROB	1.663	n/a	n/a	-999	24	[2, 2, 8]	12.0	FR1	0	R1354E
2856.345	3.901	2857565	PROB	3.866	n/a	n/a	-999	24	[6, 9, 9]	24.0	FR1	0	R1354E
2860.246	2.434	2861465	PROB	2.406	n/a	n/a	-999	24	[2, 1, 6]	9.0	FR1	0	R1354E
2862.68	2.05	2863899	PROB	2.043	n/a	n/a	-999	24	[7, 4, 8]	10.0	FR1	0	R1354E
2864.73	0.0	2865941	DISTRACT_END	n/a	n/a	n/a	-999	24	[0, 0, 0]	n/a	FR1	0	R1354E
2864.723	2.175	2865942	STOP	n/a	n/a	n/a	-999	24	[-999, -999, -999]	n/a	FR1	0	R1354E
2866.898	0.384	2868120	REC_START	n/a	n/a	n/a	-999	24	[0, 0, 0]	n/a	FR1	0	R1354E
2867.282	3.824	2868501	REC_WORD	0.384	n/a	FISH	11	24	[0, 0, 0]	n/a	FR1	0	R1354E
2871.106	25.803	2872325	REC_WORD	4.208	n/a	BED	12	24	[0, 0, 0]	n/a	FR1	0	R1354E
2896.909	12.896	2898146	REC_END	n/a	n/a	n/a	-999	24	[0, 0, 0]	n/a	FR1	0	R1354E
2909.805	10.0	2911056	COUNTDOWN_START	n/a	n/a	n/a	-999	25	[0, 0, 0]	n/a	FR1	0	R1354E
2920.234	1.073	2921451	COUNTDOWN_END	n/a	n/a	n/a	-999	25	[0, 0, 0]	n/a	FR1	0	R1354E
2921.307	1.054	2922513	ENCODING_START	n/a	n/a	n/a	-999	25	[0, 0, 0]	n/a	FR1	0	R1354E
2922.361	1.6	2923588	WORD	n/a	wordpools/wordpool_EN.txt	SEAL	1	25	[0, 0, 0]	n/a	FR1	0	R1354E
2923.99	1.023	2925195	WORD_OFF	n/a	n/a	SEAL	1	25	[0, 0, 0]	n/a	FR1	0	R1354E
2925.013	1.6	2926229	WORD	n/a	wordpools/wordpool_EN.txt	PEA	2	25	[0, 0, 0]	n/a	FR1	0	R1354E
2926.624	0.833	2927836	WORD_OFF	n/a	n/a	PEA	2	25	[0, 0, 0]	n/a	FR1	0	R1354E
2927.457	1.6	2928688	WORD	n/a	wordpools/wordpool_EN.txt	CLOTH	3	25	[0, 0, 0]	n/a	FR1	0	R1354E
2929.09	1.113	2930295	WORD_OFF	n/a	n/a	CLOTH	3	25	[0, 0, 0]	n/a	FR1	0	R1354E
2930.203	1.6	2931413	WORD	n/a	wordpools/wordpool_EN.txt	JAIL	4	25	[0, 0, 0]	n/a	FR1	0	R1354E
2931.825	0.914	2933033	WORD_OFF	n/a	n/a	JAIL	4	25	[0, 0, 0]	n/a	FR1	0	R1354E
2932.739	1.6	2933970	WORD	n/a	wordpools/wordpool_EN.txt	SLUSH	5	25	[0, 0, 0]	n/a	FR1	0	R1354E
2934.376	0.805	2935590	WORD_OFF	n/a	n/a	SLUSH	5	25	[0, 0, 0]	n/a	FR1	0	R1354E
2935.181	1.6	2936401	WORD	n/a	wordpools/wordpool_EN.txt	STEAM	6	25	[0, 0, 0]	n/a	FR1	0	R1354E
