onset	duration	sample	trial_type	response_time	stim_file	item_name	serialpos	list	test	answer	experiment	session	subject
0.0	13.043	272225	SESS_START	n/a	n/a	n/a	-999	-999	[0, 0, 0]	n/a	FR1	2	R1311T
13.043	10.0	285268	COUNTDOWN_START	n/a	n/a	n/a	-999	-999	[0, 0, 0]	n/a	FR1	2	R1311T
23.471	3.708	295695	COUNTDOWN_END	n/a	n/a	n/a	-999	-999	[0, 0, 0]	n/a	FR1	2	R1311T
27.179	1.6	299403	PRACTICE_WORD	n/a	n/a	WAGON	1	-1	[0, 0, 0]	n/a	FR1	2	R1311T
29.595	1.6	301819	PRACTICE_WORD	n/a	n/a	COTTON	2	-1	[0, 0, 0]	n/a	FR1	2	R1311T
32.013	1.6	304237	PRACTICE_WORD	n/a	n/a	CAMEL	3	-1	[0, 0, 0]	n/a	FR1	2	R1311T
34.429	1.6	306652	PRACTICE_WORD	n/a	n/a	RING	4	-1	[0, 0, 0]	n/a	FR1	2	R1311T
36.964	1.6	309187	PRACTICE_WORD	n/a	n/a	FLOOD	5	-1	[0, 0, 0]	n/a	FR1	2	R1311T
39.58	1.6	311803	PRACTICE_WORD	n/a	n/a	RHINO	6	-1	[0, 0, 0]	n/a	FR1	2	R1311T
41.965	1.6	314188	PRACTICE_WORD	n/a	n/a	CHEST	7	-1	[0, 0, 0]	n/a	FR1	2	R1311T
44.398	1.6	316621	PRACTICE_WORD	n/a	n/a	WATCH	8	-1	[0, 0, 0]	n/a	FR1	2	R1311T
46.782	1.6	319005	PRACTICE_WORD	n/a	n/a	IRON	9	-1	[0, 0, 0]	n/a	FR1	2	R1311T
49.199	1.6	321422	PRACTICE_WORD	n/a	n/a	BEAM	10	-1	[0, 0, 0]	n/a	FR1	2	R1311T
51.782	1.6	324004	PRACTICE_WORD	n/a	n/a	TONGUE	11	-1	[0, 0, 0]	n/a	FR1	2	R1311T
54.2	1.6	326422	PRACTICE_WORD	n/a	n/a	ATTIC	12	-1	[0, 0, 0]	n/a	FR1	2	R1311T
55.817	0.0	328039	PRACTICE_DISTRACT_START	n/a	n/a	n/a	-999	-1	[0, 0, 0]	n/a	FR1	2	R1311T
55.817	0.016	328039	START	n/a	n/a	n/a	-999	-1	[-999, -999, -999]	n/a	FR1	2	R1311T
55.833	10.485	328055	PROB	10.447	n/a	n/a	-999	-1	[2, 7, 4]	13.0	FR1	2	R1311T
66.318	27.963	338540	PROB	27.963	n/a	n/a	-999	-1	[3, 4, 9]	16.0	FR1	2	R1311T
94.281	0.009	366501	STOP	n/a	n/a	n/a	-999	-1	[-999, -999, -999]	n/a	FR1	2	R1311T
94.29	0.552	366510	PRACTICE_DISTRACT_END	n/a	n/a	n/a	-999	-1	[0, 0, 0]	n/a	FR1	2	R1311T
94.842	30.515	367062	PRACTICE_REC_START	n/a	n/a	n/a	-999	-1	[0, 0, 0]	n/a	FR1	2	R1311T
125.357	9.891	397575	PRACTICE_REC_END	n/a	n/a	n/a	-999	-1	[0, 0, 0]	n/a	FR1	2	R1311T
135.248	0.0	407466	TRIAL	n/a	n/a	n/a	-999	1	[0, 0, 0]	n/a	FR1	2	R1311T
135.248	10.0	407466	COUNTDOWN_START	n/a	n/a	n/a	-999	1	[0, 0, 0]	n/a	FR1	2	R1311T
145.676	0.007	417893	COUNTDOWN_END	n/a	n/a	n/a	-999	1	[0, 0, 0]	n/a	FR1	2	R1311T
145.683	1.6	417900	ORIENT	n/a	n/a	n/a	-999	1	[0, 0, 0]	n/a	FR1	2	R1311T
148.25	1.6	420467	WORD	n/a	wordpools/wordpool_EN.txt	BRUSH	1	1	[0, 0, 0]	n/a	FR1	2	R1311T
150.717	1.6	422934	WORD	n/a	wordpools/wordpool_EN.txt	MUD	2	1	[0, 0, 0]	n/a	FR1	2	R1311T
153.185	1.6	425402	WORD	n/a	wordpools/wordpool_EN.txt	PHONE	3	1	[0, 0, 0]	n/a	FR1	2	R1311T
155.735	1.6	427951	WORD	n/a	wordpools/wordpool_EN.txt	CHALK	4	1	[0, 0, 0]	n/a	FR1	2	R1311T
158.153	1.6	430369	WORD	n/a	wordpools/wordpool_EN.txt	SMOKE	5	1	[0, 0, 0]	n/a	FR1	2	R1311T
160.602	1.6	432818	WORD	n/a	wordpools/wordpool_EN.txt	BATH	6	1	[0, 0, 0]	n/a	FR1	2	R1311T
163.137	1.6	435353	WORD	n/a	wordpools/wordpool_EN.txt	FOAM	7	1	[0, 0, 0]	n/a	FR1	2	R1311T
165.703	1.6	437919	WORD	n/a	wordpools/wordpool_EN.txt	FROG	8	1	[0, 0, 0]	n/a	FR1	2	R1311T
168.105	1.6	440321	WORD	n/a	wordpools/wordpool_EN.txt	STRING	9	1	[0, 0, 0]	n/a	FR1	2	R1311T
170.604	1.6	442820	WORD	n/a	wordpools/wordpool_EN.txt	BOARD	10	1	[0, 0, 0]	n/a	FR1	2	R1311T
173.122	1.6	445337	WORD	n/a	wordpools/wordpool_EN.txt	PIE	11	1	[0, 0, 0]	n/a	FR1	2	R1311T
175.555	1.6	447770	WORD	n/a	wordpools/wordpool_EN.txt	TOOTH	12	1	[0, 0, 0]	n/a	FR1	2	R1311T
177.156	0.001	449371	DISTRACT_START	n/a	n/a	n/a	-999	1	[0, 0, 0]	n/a	FR1	2	R1311T
177.157	0.016	449372	START	n/a	n/a	n/a	-999	1	[-999, -999, -999]	n/a	FR1	2	R1311T
177.173	12.335	449388	PROB	12.308	n/a	n/a	-999	1	[1, 9, 9]	19.0	FR1	2	R1311T
189.508	8.164	461722	PROB	8.164	n/a	n/a	-999	1	[3, 9, 3]	15.0	FR1	2	R1311T
197.672	0.004	469886	STOP	n/a	n/a	n/a	-999	1	[-999, -999, -999]	n/a	FR1	2	R1311T
197.676	1.218	469890	DISTRACT_END	n/a	n/a	n/a	-999	1	[0, 0, 0]	n/a	FR1	2	R1311T
198.894	4.943	471108	REC_START	n/a	n/a	n/a	-999	1	[0, 0, 0]	n/a	FR1	2	R1311T
203.837	0.22	476051	REC_WORD_VV	4.943	n/a	<>	-999	1	[0, 0, 0]	n/a	FR1	2	R1311T
204.057	2.773	476271	REC_WORD	5.163	n/a	STRING	9	1	[0, 0, 0]	n/a	FR1	2	R1311T
206.83	9.459	479043	REC_WORD	7.936	n/a	BRUSH	1	1	[0, 0, 0]	n/a	FR1	2	R1311T
216.289	12.621	488502	REC_WORD_VV	17.395	n/a	<>	-999	1	[0, 0, 0]	n/a	FR1	2	R1311T
228.91	2.322	501122	REC_END	n/a	n/a	n/a	-999	1	[0, 0, 0]	n/a	FR1	2	R1311T
231.232	0.0	503444	TRIAL	n/a	n/a	n/a	-999	2	[0, 0, 0]	n/a	FR1	2	R1311T
231.232	10.0	503444	COUNTDOWN_START	n/a	n/a	n/a	-999	2	[0, 0, 0]	n/a	FR1	2	R1311T
241.66	0.007	513871	COUNTDOWN_END	n/a	n/a	n/a	-999	2	[0, 0, 0]	n/a	FR1	2	R1311T
241.667	1.6	513878	ORIENT	n/a	n/a	n/a	-999	2	[0, 0, 0]	n/a	FR1	2	R1311T
244.068	1.6	516279	WORD	n/a	wordpools/wordpool_EN.txt	SEAT	1	2	[0, 0, 0]	n/a	FR1	2	R1311T
246.568	1.6	518779	WORD	n/a	wordpools/wordpool_EN.txt	ROOF	2	2	[0, 0, 0]	n/a	FR1	2	R1311T
249.019	1.6	521230	WORD	n/a	wordpools/wordpool_EN.txt	HAND	3	2	[0, 0, 0]	n/a	FR1	2	R1311T
251.502	1.6	523713	WORD	n/a	wordpools/wordpool_EN.txt	BADGE	4	2	[0, 0, 0]	n/a	FR1	2	R1311T
253.904	1.6	526115	WORD	n/a	wordpools/wordpool_EN.txt	DIME	5	2	[0, 0, 0]	n/a	FR1	2	R1311T
256.336	1.6	528547	WORD	n/a	wordpools/wordpool_EN.txt	MAT	6	2	[0, 0, 0]	n/a	FR1	2	R1311T
258.888	1.6	531098	WORD	n/a	wordpools/wordpool_EN.txt	STICK	7	2	[0, 0, 0]	n/a	FR1	2	R1311T
261.321	1.6	533531	WORD	n/a	wordpools/wordpool_EN.txt	KITE	8	2	[0, 0, 0]	n/a	FR1	2	R1311T
263.804	1.6	536014	WORD	n/a	wordpools/wordpool_EN.txt	SMILE	9	2	[0, 0, 0]	n/a	FR1	2	R1311T
266.238	1.6	538448	WORD	n/a	wordpools/wordpool_EN.txt	SCHOOL	10	2	[0, 0, 0]	n/a	FR1	2	R1311T
268.789	1.6	540999	WORD	n/a	wordpools/wordpool_EN.txt	CANE	11	2	[0, 0, 0]	n/a	FR1	2	R1311T
271.372	1.6	543582	WORD	n/a	wordpools/wordpool_EN.txt	COUCH	12	2	[0, 0, 0]	n/a	FR1	2	R1311T
272.974	0.0	545184	DISTRACT_START	n/a	n/a	n/a	-999	2	[0, 0, 0]	n/a	FR1	2	R1311T
272.974	0.016	545184	START	n/a	n/a	n/a	-999	2	[-999, -999, -999]	n/a	FR1	2	R1311T
272.99	5.334	545200	PROB	5.306	n/a	n/a	-999	2	[8, 1, 1]	10.0	FR1	2	R1311T
278.324	11.402	550533	PROB	11.365	n/a	n/a	-999	2	[8, 3, 5]	16.0	FR1	2	R1311T
289.726	15.324	561935	PROB	15.324	n/a	n/a	-999	2	[4, 2, 7]	13.0	FR1	2	R1311T
305.05	0.013	577258	STOP	n/a	n/a	n/a	-999	2	[-999, -999, -999]	n/a	FR1	2	R1311T
305.063	1.051	577271	DISTRACT_END	n/a	n/a	n/a	-999	2	[0, 0, 0]	n/a	FR1	2	R1311T
306.114	7.188	578322	REC_START	n/a	n/a	n/a	-999	2	[0, 0, 0]	n/a	FR1	2	R1311T
313.302	1.05	585509	REC_WORD	7.188	n/a	SEAT	1	2	[0, 0, 0]	n/a	FR1	2	R1311T
314.352	1.183	586559	REC_WORD	8.238	n/a	ROOF	2	2	[0, 0, 0]	n/a	FR1	2	R1311T
315.535	1.35	587742	REC_WORD	9.421	n/a	HAND	3	2	[0, 0, 0]	n/a	FR1	2	R1311T
316.885	19.24	589092	REC_WORD	10.771	n/a	BADGE	4	2	[0, 0, 0]	n/a	FR1	2	R1311T
336.125	1.861	608331	REC_END	n/a	n/a	n/a	-999	2	[0, 0, 0]	n/a	FR1	2	R1311T
337.986	0.0	610192	TRIAL	n/a	n/a	n/a	-999	3	[0, 0, 0]	n/a	FR1	2	R1311T
337.986	10.0	610192	COUNTDOWN_START	n/a	n/a	n/a	-999	3	[0, 0, 0]	n/a	FR1	2	R1311T
348.414	0.006	620619	COUNTDOWN_END	n/a	n/a	n/a	-999	3	[0, 0, 0]	n/a	FR1	2	R1311T
348.42	1.6	620625	ORIENT	n/a	n/a	n/a	-999	3	[0, 0, 0]	n/a	FR1	2	R1311T
350.837	1.6	623042	WORD	n/a	wordpools/wordpool_EN.txt	WOLF	1	3	[0, 0, 0]	n/a	FR1	2	R1311T
353.421	1.6	625626	WORD	n/a	wordpools/wordpool_EN.txt	SHEEP	2	3	[0, 0, 0]	n/a	FR1	2	R1311T
356.006	1.6	628211	WORD	n/a	wordpools/wordpool_EN.txt	RUG	3	3	[0, 0, 0]	n/a	FR1	2	R1311T
358.622	1.6	630827	WORD	n/a	wordpools/wordpool_EN.txt	SPARK	4	3	[0, 0, 0]	n/a	FR1	2	R1311T
361.04	1.6	633245	WORD	n/a	wordpools/wordpool_EN.txt	SUN	5	3	[0, 0, 0]	n/a	FR1	2	R1311T
363.422	1.6	635627	WORD	n/a	wordpools/wordpool_EN.txt	CONE	6	3	[0, 0, 0]	n/a	FR1	2	R1311T
365.99	1.6	638194	WORD	n/a	wordpools/wordpool_EN.txt	ICE	7	3	[0, 0, 0]	n/a	FR1	2	R1311T
368.54	1.6	640744	WORD	n/a	wordpools/wordpool_EN.txt	WHALE	8	3	[0, 0, 0]	n/a	FR1	2	R1311T
371.108	1.6	643312	WORD	n/a	wordpools/wordpool_EN.txt	NAIL	9	3	[0, 0, 0]	n/a	FR1	2	R1311T
373.624	1.6	645828	WORD	n/a	wordpools/wordpool_EN.txt	CLIFF	10	3	[0, 0, 0]	n/a	FR1	2	R1311T
376.126	1.6	648330	WORD	n/a	wordpools/wordpool_EN.txt	JEEP	11	3	[0, 0, 0]	n/a	FR1	2	R1311T
378.575	1.6	650779	WORD	n/a	wordpools/wordpool_EN.txt	CROW	12	3	[0, 0, 0]	n/a	FR1	2	R1311T
380.176	0.001	652380	DISTRACT_START	n/a	n/a	n/a	-999	3	[0, 0, 0]	n/a	FR1	2	R1311T
380.177	0.015	652381	START	n/a	n/a	n/a	-999	3	[-999, -999, -999]	n/a	FR1	2	R1311T
380.192	4.852	652396	PROB	4.826	n/a	n/a	-999	3	[8, 1, 1]	10.0	FR1	2	R1311T
385.044	5.935	657247	PROB	5.902	n/a	n/a	-999	3	[1, 7, 2]	10.0	FR1	2	R1311T
390.979	7.4	663182	PROB	7.358	n/a	n/a	-999	3	[7, 2, 3]	12.0	FR1	2	R1311T
398.379	18.062	670581	PROB	18.062	n/a	n/a	-999	3	[7, 3, 3]	13.0	FR1	2	R1311T
416.441	0.008	688642	STOP	n/a	n/a	n/a	-999	3	[-999, -999, -999]	n/a	FR1	2	R1311T
416.449	1.201	688650	DISTRACT_END	n/a	n/a	n/a	-999	3	[0, 0, 0]	n/a	FR1	2	R1311T
417.65	2.406	689851	REC_START	n/a	n/a	n/a	-999	3	[0, 0, 0]	n/a	FR1	2	R1311T
420.056	0.341	692257	REC_WORD_VV	2.406	n/a	<>	-999	3	[0, 0, 0]	n/a	FR1	2	R1311T
420.397	1.118	692598	REC_WORD	2.747	n/a	SHEEP	2	3	[0, 0, 0]	n/a	FR1	2	R1311T
421.515	1.718	693716	REC_WORD	3.865	n/a	WOLF	1	3	[0, 0, 0]	n/a	FR1	2	R1311T
423.233	0.628	695434	REC_WORD	5.583	n/a	RUG	3	3	[0, 0, 0]	n/a	FR1	2	R1311T
423.861	20.036	696062	REC_WORD	6.211	n/a	SPARK	4	3	[0, 0, 0]	n/a	FR1	2	R1311T
443.897	3.764	716097	REC_WORD_VV	26.247	n/a	<>	-999	3	[0, 0, 0]	n/a	FR1	2	R1311T
447.661	2.395	719861	REC_END	n/a	n/a	n/a	-999	3	[0, 0, 0]	n/a	FR1	2	R1311T
450.056	0.0	722256	TRIAL	n/a	n/a	n/a	-999	4	[0, 0, 0]	n/a	FR1	2	R1311T
450.056	10.0	722256	COUNTDOWN_START	n/a	n/a	n/a	-999	4	[0, 0, 0]	n/a	FR1	2	R1311T
460.484	0.006	732683	COUNTDOWN_END	n/a	n/a	n/a	-999	4	[0, 0, 0]	n/a	FR1	2	R1311T
460.49	1.6	732689	ORIENT	n/a	n/a	n/a	-999	4	[0, 0, 0]	n/a	FR1	2	R1311T
463.025	1.6	735224	WORD	n/a	wordpools/wordpool_EN.txt	POND	1	4	[0, 0, 0]	n/a	FR1	2	R1311T
465.424	1.6	737623	WORD	n/a	wordpools/wordpool_EN.txt	STRAW	2	4	[0, 0, 0]	n/a	FR1	2	R1311T
467.993	1.6	740192	WORD	n/a	wordpools/wordpool_EN.txt	SLUSH	3	4	[0, 0, 0]	n/a	FR1	2	R1311T
470.609	1.6	742807	WORD	n/a	wordpools/wordpool_EN.txt	CAGE	4	4	[0, 0, 0]	n/a	FR1	2	R1311T
473.093	1.6	745291	WORD	n/a	wordpools/wordpool_EN.txt	VASE	5	4	[0, 0, 0]	n/a	FR1	2	R1311T
475.576	1.6	747774	WORD	n/a	wordpools/wordpool_EN.txt	SINK	6	4	[0, 0, 0]	n/a	FR1	2	R1311T
478.094	1.6	750292	WORD	n/a	wordpools/wordpool_EN.txt	JAR	7	4	[0, 0, 0]	n/a	FR1	2	R1311T
480.627	1.6	752825	WORD	n/a	wordpools/wordpool_EN.txt	SEAL	8	4	[0, 0, 0]	n/a	FR1	2	R1311T
483.079	1.6	755277	WORD	n/a	wordpools/wordpool_EN.txt	GEESE	9	4	[0, 0, 0]	n/a	FR1	2	R1311T
485.495	1.6	757693	WORD	n/a	wordpools/wordpool_EN.txt	HAT	10	4	[0, 0, 0]	n/a	FR1	2	R1311T
487.996	1.6	760193	WORD	n/a	wordpools/wordpool_EN.txt	BOX	11	4	[0, 0, 0]	n/a	FR1	2	R1311T
490.529	1.6	762726	WORD	n/a	wordpools/wordpool_EN.txt	PET	12	4	[0, 0, 0]	n/a	FR1	2	R1311T
492.13	0.001	764327	DISTRACT_START	n/a	n/a	n/a	-999	4	[0, 0, 0]	n/a	FR1	2	R1311T
492.131	0.016	764328	START	n/a	n/a	n/a	-999	4	[-999, -999, -999]	n/a	FR1	2	R1311T
492.147	8.567	764344	PROB	8.533	n/a	n/a	-999	4	[1, 1, 4]	6.0	FR1	2	R1311T
500.714	12.975	772911	PROB	12.975	n/a	n/a	-999	4	[2, 1, 4]	7.0	FR1	2	R1311T
513.689	0.011	785885	STOP	n/a	n/a	n/a	-999	4	[-999, -999, -999]	n/a	FR1	2	R1311T
513.7	1.151	785896	DISTRACT_END	n/a	n/a	n/a	-999	4	[0, 0, 0]	n/a	FR1	2	R1311T
514.851	3.346	787047	REC_START	n/a	n/a	n/a	-999	4	[0, 0, 0]	n/a	FR1	2	R1311T
518.197	0.656	790393	REC_WORD	3.346	n/a	POND	1	4	[0, 0, 0]	n/a	FR1	2	R1311T
518.853	11.023	791049	REC_WORD	4.002	n/a	STRAW	2	4	[0, 0, 0]	n/a	FR1	2	R1311T
529.876	5.348	802071	REC_WORD_VV	15.025	n/a	<>	-999	4	[0, 0, 0]	n/a	FR1	2	R1311T
535.224	9.638	807419	REC_WORD	20.373	n/a	GEESE	9	4	[0, 0, 0]	n/a	FR1	2	R1311T
544.862	5.029	817056	REC_END	n/a	n/a	n/a	-999	4	[0, 0, 0]	n/a	FR1	2	R1311T
549.891	0.0	822085	TRIAL	n/a	n/a	n/a	-999	5	[0, 0, 0]	n/a	FR1	2	R1311T
549.891	10.0	822085	COUNTDOWN_START	n/a	n/a	n/a	-999	5	[0, 0, 0]	n/a	FR1	2	R1311T
560.319	0.006	832512	COUNTDOWN_END	n/a	n/a	n/a	-999	5	[0, 0, 0]	n/a	FR1	2	R1311T
560.325	1.6	832518	ORIENT	n/a	n/a	n/a	-999	5	[0, 0, 0]	n/a	FR1	2	R1311T
562.709	1.6	834902	WORD	n/a	wordpools/wordpool_EN.txt	NET	1	5	[0, 0, 0]	n/a	FR1	2	R1311T
565.293	1.6	837486	WORD	n/a	wordpools/wordpool_EN.txt	MILK	2	5	[0, 0, 0]	n/a	FR1	2	R1311T
567.86	1.6	840053	WORD	n/a	wordpools/wordpool_EN.txt	CASH	3	5	[0, 0, 0]	n/a	FR1	2	R1311T
570.293	1.6	842486	WORD	n/a	wordpools/wordpool_EN.txt	GOLD	4	5	[0, 0, 0]	n/a	FR1	2	R1311T
572.727	1.6	844919	WORD	n/a	wordpools/wordpool_EN.txt	STEAK	5	5	[0, 0, 0]	n/a	FR1	2	R1311T
575.311	1.6	847503	WORD	n/a	wordpools/wordpool_EN.txt	GRAPE	6	5	[0, 0, 0]	n/a	FR1	2	R1311T
577.795	1.6	849987	WORD	n/a	wordpools/wordpool_EN.txt	CORN	7	5	[0, 0, 0]	n/a	FR1	2	R1311T
580.262	1.6	852454	WORD	n/a	wordpools/wordpool_EN.txt	CLOTH	8	5	[0, 0, 0]	n/a	FR1	2	R1311T
582.779	1.6	854971	WORD	n/a	wordpools/wordpool_EN.txt	FILM	9	5	[0, 0, 0]	n/a	FR1	2	R1311T
585.196	1.6	857388	WORD	n/a	wordpools/wordpool_EN.txt	PIG	10	5	[0, 0, 0]	n/a	FR1	2	R1311T
587.73	1.6	859922	WORD	n/a	wordpools/wordpool_EN.txt	BEAK	11	5	[0, 0, 0]	n/a	FR1	2	R1311T
590.131	1.6	862323	WORD	n/a	wordpools/wordpool_EN.txt	PEARL	12	5	[0, 0, 0]	n/a	FR1	2	R1311T
591.747	0.001	863938	DISTRACT_START	n/a	n/a	n/a	-999	5	[0, 0, 0]	n/a	FR1	2	R1311T
591.748	0.016	863939	START	n/a	n/a	n/a	-999	5	[-999, -999, -999]	n/a	FR1	2	R1311T
591.764	20.11	863955	PROB	20.11	n/a	n/a	-999	5	[7, 9, 3]	19.0	FR1	2	R1311T
611.874	0.011	884064	STOP	n/a	n/a	n/a	-999	5	[-999, -999, -999]	n/a	FR1	2	R1311T
611.885	1.051	884075	DISTRACT_END	n/a	n/a	n/a	-999	5	[0, 0, 0]	n/a	FR1	2	R1311T
612.936	0.128	885126	REC_START	n/a	n/a	n/a	-999	5	[0, 0, 0]	n/a	FR1	2	R1311T
613.064	7.14	885254	REC_WORD_VV	0.128	n/a	<>	-999	5	[0, 0, 0]	n/a	FR1	2	R1311T
620.204	0.387	892394	REC_WORD_VV	7.268	n/a	<>	-999	5	[0, 0, 0]	n/a	FR1	2	R1311T
620.591	12.442	892781	REC_WORD	7.655	n/a	PEARL	12	5	[0, 0, 0]	n/a	FR1	2	R1311T
633.033	9.921	905222	REC_WORD_VV	20.097	n/a	<>	-999	5	[0, 0, 0]	n/a	FR1	2	R1311T
642.954	3.188	915142	REC_END	n/a	n/a	n/a	-999	5	[0, 0, 0]	n/a	FR1	2	R1311T
646.142	0.0	918330	TRIAL	n/a	n/a	n/a	-999	6	[0, 0, 0]	n/a	FR1	2	R1311T
646.142	10.0	918330	COUNTDOWN_START	n/a	n/a	n/a	-999	6	[0, 0, 0]	n/a	FR1	2	R1311T
656.57	0.006	928758	COUNTDOWN_END	n/a	n/a	n/a	-999	6	[0, 0, 0]	n/a	FR1	2	R1311T
656.576	1.6	928764	ORIENT	n/a	n/a	n/a	-999	6	[0, 0, 0]	n/a	FR1	2	R1311T
659.027	1.6	931215	WORD	n/a	wordpools/wordpool_EN.txt	LIP	1	6	[0, 0, 0]	n/a	FR1	2	R1311T
661.46	1.6	933647	WORD	n/a	wordpools/wordpool_EN.txt	STORE	2	6	[0, 0, 0]	n/a	FR1	2	R1311T
663.844	1.6	936031	WORD	n/a	wordpools/wordpool_EN.txt	SHIRT	3	6	[0, 0, 0]	n/a	FR1	2	R1311T
666.444	1.6	938631	WORD	n/a	wordpools/wordpool_EN.txt	RIB	4	6	[0, 0, 0]	n/a	FR1	2	R1311T
668.962	1.6	941149	WORD	n/a	wordpools/wordpool_EN.txt	MULE	5	6	[0, 0, 0]	n/a	FR1	2	R1311T
671.512	1.6	943699	WORD	n/a	wordpools/wordpool_EN.txt	BOWL	6	6	[0, 0, 0]	n/a	FR1	2	R1311T
674.097	1.6	946284	WORD	n/a	wordpools/wordpool_EN.txt	BREAD	7	6	[0, 0, 0]	n/a	FR1	2	R1311T
676.663	1.6	948850	WORD	n/a	wordpools/wordpool_EN.txt	CHAIR	8	6	[0, 0, 0]	n/a	FR1	2	R1311T
679.131	1.6	951317	WORD	n/a	wordpools/wordpool_EN.txt	BEAN	9	6	[0, 0, 0]	n/a	FR1	2	R1311T
681.68	1.6	953866	WORD	n/a	wordpools/wordpool_EN.txt	PANTS	10	6	[0, 0, 0]	n/a	FR1	2	R1311T
684.264	1.6	956450	WORD	n/a	wordpools/wordpool_EN.txt	BARN	11	6	[0, 0, 0]	n/a	FR1	2	R1311T
686.715	1.6	958901	WORD	n/a	wordpools/wordpool_EN.txt	STOVE	12	6	[0, 0, 0]	n/a	FR1	2	R1311T
688.332	0.0	960518	DISTRACT_START	n/a	n/a	n/a	-999	6	[0, 0, 0]	n/a	FR1	2	R1311T
688.332	0.016	960518	START	n/a	n/a	n/a	-999	6	[-999, -999, -999]	n/a	FR1	2	R1311T
688.348	14.621	960534	PROB	14.597	n/a	n/a	-999	6	[9, 5, 8]	22.0	FR1	2	R1311T
702.969	5.735	975154	PROB	5.735	n/a	n/a	-999	6	[1, 9, 5]	15.0	FR1	2	R1311T
708.704	0.015	980889	STOP	n/a	n/a	n/a	-999	6	[-999, -999, -999]	n/a	FR1	2	R1311T
708.719	1.185	980904	DISTRACT_END	n/a	n/a	n/a	-999	6	[0, 0, 0]	n/a	FR1	2	R1311T
709.904	30.0	982089	REC_START	n/a	n/a	n/a	-999	6	[0, 0, 0]	n/a	FR1	2	R1311T
739.904	0.01	1012087	REC_WORD_VV	30.0	n/a	<>	-999	6	[0, 0, 0]	n/a	FR1	2	R1311T
739.914	3.778	1012097	REC_END	n/a	n/a	n/a	-999	6	[0, 0, 0]	n/a	FR1	2	R1311T
743.692	0.0	1015875	TRIAL	n/a	n/a	n/a	-999	7	[0, 0, 0]	n/a	FR1	2	R1311T
743.692	10.0	1015875	COUNTDOWN_START	n/a	n/a	n/a	-999	7	[0, 0, 0]	n/a	FR1	2	R1311T
754.12	0.008	1026302	COUNTDOWN_END	n/a	n/a	n/a	-999	7	[0, 0, 0]	n/a	FR1	2	R1311T
754.128	1.6	1026310	ORIENT	n/a	n/a	n/a	-999	7	[0, 0, 0]	n/a	FR1	2	R1311T
756.744	1.6	1028926	WORD	n/a	wordpools/wordpool_EN.txt	SLEEVE	1	7	[0, 0, 0]	n/a	FR1	2	R1311T
759.311	1.6	1031493	WORD	n/a	wordpools/wordpool_EN.txt	DITCH	2	7	[0, 0, 0]	n/a	FR1	2	R1311T
761.795	1.6	1033977	WORD	n/a	wordpools/wordpool_EN.txt	VINE	3	7	[0, 0, 0]	n/a	FR1	2	R1311T
764.312	1.6	1036494	WORD	n/a	wordpools/wordpool_EN.txt	BUSH	4	7	[0, 0, 0]	n/a	FR1	2	R1311T
766.746	1.6	1038927	WORD	n/a	wordpools/wordpool_EN.txt	SNAIL	5	7	[0, 0, 0]	n/a	FR1	2	R1311T
769.213	1.6	1041394	WORD	n/a	wordpools/wordpool_EN.txt	WHEEL	6	7	[0, 0, 0]	n/a	FR1	2	R1311T
771.763	1.6	1043944	WORD	n/a	wordpools/wordpool_EN.txt	BIRD	7	7	[0, 0, 0]	n/a	FR1	2	R1311T
774.148	1.6	1046329	WORD	n/a	wordpools/wordpool_EN.txt	EAR	8	7	[0, 0, 0]	n/a	FR1	2	R1311T
776.531	1.6	1048712	WORD	n/a	wordpools/wordpool_EN.txt	SWAMP	9	7	[0, 0, 0]	n/a	FR1	2	R1311T
778.949	1.6	1051130	WORD	n/a	wordpools/wordpool_EN.txt	HOLE	10	7	[0, 0, 0]	n/a	FR1	2	R1311T
781.532	1.6	1053713	WORD	n/a	wordpools/wordpool_EN.txt	EEL	11	7	[0, 0, 0]	n/a	FR1	2	R1311T
783.933	1.6	1056113	WORD	n/a	wordpools/wordpool_EN.txt	CRANE	12	7	[0, 0, 0]	n/a	FR1	2	R1311T
785.549	0.001	1057729	DISTRACT_START	n/a	n/a	n/a	-999	7	[0, 0, 0]	n/a	FR1	2	R1311T
785.55	0.016	1057730	START	n/a	n/a	n/a	-999	7	[-999, -999, -999]	n/a	FR1	2	R1311T
785.566	6.834	1057746	PROB	6.811	n/a	n/a	-999	7	[8, 1, 4]	13.0	FR1	2	R1311T
792.4	15.713	1064580	PROB	15.713	n/a	n/a	-999	7	[5, 6, 9]	21.0	FR1	2	R1311T
808.113	0.008	1080292	STOP	n/a	n/a	n/a	-999	7	[-999, -999, -999]	n/a	FR1	2	R1311T
808.121	1.2	1080300	DISTRACT_END	n/a	n/a	n/a	-999	7	[0, 0, 0]	n/a	FR1	2	R1311T
809.321	1.35	1081500	REC_START	n/a	n/a	n/a	-999	7	[0, 0, 0]	n/a	FR1	2	R1311T
810.671	0.364	1082850	REC_WORD_VV	1.35	n/a	<>	-999	7	[0, 0, 0]	n/a	FR1	2	R1311T
811.035	1.266	1083214	REC_WORD	1.714	n/a	BIRD	7	7	[0, 0, 0]	n/a	FR1	2	R1311T
812.301	0.811	1084480	REC_WORD	2.98	n/a	EAR	8	7	[0, 0, 0]	n/a	FR1	2	R1311T
813.112	2.387	1085291	REC_WORD	3.791	n/a	SWAMP	9	7	[0, 0, 0]	n/a	FR1	2	R1311T
815.499	4.747	1087678	REC_WORD	6.178	n/a	HOLE	10	7	[0, 0, 0]	n/a	FR1	2	R1311T
820.246	2.141	1092424	REC_WORD	10.925	n/a	SLEEVE	1	7	[0, 0, 0]	n/a	FR1	2	R1311T
822.387	1.383	1094565	REC_WORD	13.066	n/a	DITCH	2	7	[0, 0, 0]	n/a	FR1	2	R1311T
823.77	15.561	1095948	REC_WORD	14.449	n/a	VINE	3	7	[0, 0, 0]	n/a	FR1	2	R1311T
839.331	2.78	1111508	REC_END	n/a	n/a	n/a	-999	7	[0, 0, 0]	n/a	FR1	2	R1311T
842.111	0.0	1114288	TRIAL	n/a	n/a	n/a	-999	8	[0, 0, 0]	n/a	FR1	2	R1311T
842.111	10.0	1114288	COUNTDOWN_START	n/a	n/a	n/a	-999	8	[0, 0, 0]	n/a	FR1	2	R1311T
852.539	0.006	1124715	COUNTDOWN_END	n/a	n/a	n/a	-999	8	[0, 0, 0]	n/a	FR1	2	R1311T
852.545	1.6	1124721	ORIENT	n/a	n/a	n/a	-999	8	[0, 0, 0]	n/a	FR1	2	R1311T
855.08	1.6	1127256	WORD	n/a	wordpools/wordpool_EN.txt	TANK	1	8	[0, 0, 0]	n/a	FR1	2	R1311T
857.596	1.6	1129772	WORD	n/a	wordpools/wordpool_EN.txt	HOSE	2	8	[0, 0, 0]	n/a	FR1	2	R1311T
860.213	1.6	1132389	WORD	n/a	wordpools/wordpool_EN.txt	BOMB	3	8	[0, 0, 0]	n/a	FR1	2	R1311T
862.797	1.6	1134973	WORD	n/a	wordpools/wordpool_EN.txt	COIN	4	8	[0, 0, 0]	n/a	FR1	2	R1311T
865.33	1.6	1137506	WORD	n/a	wordpools/wordpool_EN.txt	PLANE	5	8	[0, 0, 0]	n/a	FR1	2	R1311T
867.748	1.6	1139924	WORD	n/a	wordpools/wordpool_EN.txt	BRICK	6	8	[0, 0, 0]	n/a	FR1	2	R1311T
870.132	1.6	1142307	WORD	n/a	wordpools/wordpool_EN.txt	PLATE	7	8	[0, 0, 0]	n/a	FR1	2	R1311T
872.732	1.6	1144907	WORD	n/a	wordpools/wordpool_EN.txt	SQUARE	8	8	[0, 0, 0]	n/a	FR1	2	R1311T
875.266	1.6	1147441	WORD	n/a	wordpools/wordpool_EN.txt	MOON	9	8	[0, 0, 0]	n/a	FR1	2	R1311T
877.783	1.6	1149958	WORD	n/a	wordpools/wordpool_EN.txt	SHEET	10	8	[0, 0, 0]	n/a	FR1	2	R1311T
880.333	1.6	1152508	WORD	n/a	wordpools/wordpool_EN.txt	ARK	11	8	[0, 0, 0]	n/a	FR1	2	R1311T
882.935	1.6	1155110	WORD	n/a	wordpools/wordpool_EN.txt	TRAIN	12	8	[0, 0, 0]	n/a	FR1	2	R1311T
884.551	0.0	1156726	DISTRACT_START	n/a	n/a	n/a	-999	8	[0, 0, 0]	n/a	FR1	2	R1311T
884.551	0.016	1156726	START	n/a	n/a	n/a	-999	8	[-999, -999, -999]	n/a	FR1	2	R1311T
884.567	23.49	1156742	PROB	23.49	n/a	n/a	-999	8	[1, 5, 9]	15.0	FR1	2	R1311T
908.057	0.016	1180230	STOP	n/a	n/a	n/a	-999	8	[-999, -999, -999]	n/a	FR1	2	R1311T
908.073	1.1	1180246	DISTRACT_END	n/a	n/a	n/a	-999	8	[0, 0, 0]	n/a	FR1	2	R1311T
909.173	30.0	1181346	REC_START	n/a	n/a	n/a	-999	8	[0, 0, 0]	n/a	FR1	2	R1311T
939.173	0.011	1211344	REC_WORD_VV	30.0	n/a	<>	-999	8	[0, 0, 0]	n/a	FR1	2	R1311T
939.184	3.494	1211355	REC_END	n/a	n/a	n/a	-999	8	[0, 0, 0]	n/a	FR1	2	R1311T
942.678	0.0	1214849	TRIAL	n/a	n/a	n/a	-999	9	[0, 0, 0]	n/a	FR1	2	R1311T
942.678	10.0	1214849	COUNTDOWN_START	n/a	n/a	n/a	-999	9	[0, 0, 0]	n/a	FR1	2	R1311T
953.106	0.008	1225277	COUNTDOWN_END	n/a	n/a	n/a	-999	9	[0, 0, 0]	n/a	FR1	2	R1311T
953.114	1.6	1225285	ORIENT	n/a	n/a	n/a	-999	9	[0, 0, 0]	n/a	FR1	2	R1311T
955.714	1.6	1227885	WORD	n/a	wordpools/wordpool_EN.txt	CLOCK	1	9	[0, 0, 0]	n/a	FR1	2	R1311T
958.148	1.6	1230318	WORD	n/a	wordpools/wordpool_EN.txt	SPOON	2	9	[0, 0, 0]	n/a	FR1	2	R1311T
960.731	1.6	1232901	WORD	n/a	wordpools/wordpool_EN.txt	SWORD	3	9	[0, 0, 0]	n/a	FR1	2	R1311T
963.198	1.6	1235368	WORD	n/a	wordpools/wordpool_EN.txt	VAN	4	9	[0, 0, 0]	n/a	FR1	2	R1311T
965.765	1.6	1237935	WORD	n/a	wordpools/wordpool_EN.txt	BOOK	5	9	[0, 0, 0]	n/a	FR1	2	R1311T
968.349	1.6	1240519	WORD	n/a	wordpools/wordpool_EN.txt	ROOM	6	9	[0, 0, 0]	n/a	FR1	2	R1311T
970.901	1.6	1243071	WORD	n/a	wordpools/wordpool_EN.txt	STREET	7	9	[0, 0, 0]	n/a	FR1	2	R1311T
973.417	1.6	1245587	WORD	n/a	wordpools/wordpool_EN.txt	BLUSH	8	9	[0, 0, 0]	n/a	FR1	2	R1311T
975.985	1.6	1248154	WORD	n/a	wordpools/wordpool_EN.txt	SOUP	9	9	[0, 0, 0]	n/a	FR1	2	R1311T
978.434	1.6	1250603	WORD	n/a	wordpools/wordpool_EN.txt	TRUCK	10	9	[0, 0, 0]	n/a	FR1	2	R1311T
980.886	1.6	1253055	WORD	n/a	wordpools/wordpool_EN.txt	GOAT	11	9	[0, 0, 0]	n/a	FR1	2	R1311T
983.369	1.6	1255538	WORD	n/a	wordpools/wordpool_EN.txt	CART	12	9	[0, 0, 0]	n/a	FR1	2	R1311T
984.987	0.0	1257156	DISTRACT_START	n/a	n/a	n/a	-999	9	[0, 0, 0]	n/a	FR1	2	R1311T
984.987	0.016	1257156	START	n/a	n/a	n/a	-999	9	[-999, -999, -999]	n/a	FR1	2	R1311T
985.003	25.638	1257172	PROB	25.638	n/a	n/a	-999	9	[8, 4, 7]	19.0	FR1	2	R1311T
1010.641	0.016	1282808	STOP	n/a	n/a	n/a	-999	9	[-999, -999, -999]	n/a	FR1	2	R1311T
1010.657	1.134	1282824	DISTRACT_END	n/a	n/a	n/a	-999	9	[0, 0, 0]	n/a	FR1	2	R1311T
1011.791	3.156	1283958	REC_START	n/a	n/a	n/a	-999	9	[0, 0, 0]	n/a	FR1	2	R1311T
1014.947	1.966	1287114	REC_WORD_VV	3.156	n/a	<>	-999	9	[0, 0, 0]	n/a	FR1	2	R1311T
1016.913	0.616	1289080	REC_WORD	5.122	n/a	CLOCK	1	9	[0, 0, 0]	n/a	FR1	2	R1311T
1017.529	1.649	1289696	REC_WORD	5.738	n/a	SPOON	2	9	[0, 0, 0]	n/a	FR1	2	R1311T
1019.178	22.623	1291345	REC_WORD	7.387	n/a	SWORD	3	9	[0, 0, 0]	n/a	FR1	2	R1311T
1041.801	4.979	1313967	REC_END	n/a	n/a	n/a	-999	9	[0, 0, 0]	n/a	FR1	2	R1311T
1046.78	0.0	1318945	TRIAL	n/a	n/a	n/a	-999	10	[0, 0, 0]	n/a	FR1	2	R1311T
1046.78	10.0	1318945	COUNTDOWN_START	n/a	n/a	n/a	-999	10	[0, 0, 0]	n/a	FR1	2	R1311T
1057.208	0.007	1329373	COUNTDOWN_END	n/a	n/a	n/a	-999	10	[0, 0, 0]	n/a	FR1	2	R1311T
1057.215	1.6	1329380	ORIENT	n/a	n/a	n/a	-999	10	[0, 0, 0]	n/a	FR1	2	R1311T
1059.599	1.6	1331764	WORD	n/a	wordpools/wordpool_EN.txt	ANT	1	10	[0, 0, 0]	n/a	FR1	2	R1311T
1062.216	1.6	1334380	WORD	n/a	wordpools/wordpool_EN.txt	RAT	2	10	[0, 0, 0]	n/a	FR1	2	R1311T
1064.817	1.6	1336981	WORD	n/a	wordpools/wordpool_EN.txt	PEAR	3	10	[0, 0, 0]	n/a	FR1	2	R1311T
1067.234	1.6	1339398	WORD	n/a	wordpools/wordpool_EN.txt	BRANCH	4	10	[0, 0, 0]	n/a	FR1	2	R1311T
1069.801	1.6	1341965	WORD	n/a	wordpools/wordpool_EN.txt	CAVE	5	10	[0, 0, 0]	n/a	FR1	2	R1311T
1072.301	1.6	1344465	WORD	n/a	wordpools/wordpool_EN.txt	MOLE	6	10	[0, 0, 0]	n/a	FR1	2	R1311T
1074.802	1.6	1346966	WORD	n/a	wordpools/wordpool_EN.txt	HEART	7	10	[0, 0, 0]	n/a	FR1	2	R1311T
1077.187	1.6	1349351	WORD	n/a	wordpools/wordpool_EN.txt	SLIME	8	10	[0, 0, 0]	n/a	FR1	2	R1311T
1079.686	1.6	1351849	WORD	n/a	wordpools/wordpool_EN.txt	FOOD	9	10	[0, 0, 0]	n/a	FR1	2	R1311T
1082.237	1.6	1354400	WORD	n/a	wordpools/wordpool_EN.txt	BEE	10	10	[0, 0, 0]	n/a	FR1	2	R1311T
1084.72	1.6	1356883	WORD	n/a	wordpools/wordpool_EN.txt	BED	11	10	[0, 0, 0]	n/a	FR1	2	R1311T
1087.189	1.6	1359352	WORD	n/a	wordpools/wordpool_EN.txt	PLANT	12	10	[0, 0, 0]	n/a	FR1	2	R1311T
1088.804	0.001	1360967	DISTRACT_START	n/a	n/a	n/a	-999	10	[0, 0, 0]	n/a	FR1	2	R1311T
1088.805	0.016	1360968	START	n/a	n/a	n/a	-999	10	[-999, -999, -999]	n/a	FR1	2	R1311T
1088.821	7.236	1360984	PROB	7.212	n/a	n/a	-999	10	[9, 1, 6]	16.0	FR1	2	R1311T
1096.057	18.928	1368219	PROB	18.928	n/a	n/a	-999	10	[2, 8, 3]	13.0	FR1	2	R1311T
1114.985	0.009	1387146	STOP	n/a	n/a	n/a	-999	10	[-999, -999, -999]	n/a	FR1	2	R1311T
1114.994	1.034	1387155	DISTRACT_END	n/a	n/a	n/a	-999	10	[0, 0, 0]	n/a	FR1	2	R1311T
1116.028	4.896	1388189	REC_START	n/a	n/a	n/a	-999	10	[0, 0, 0]	n/a	FR1	2	R1311T
1120.924	0.452	1393085	REC_WORD_VV	4.896	n/a	<>	-999	10	[0, 0, 0]	n/a	FR1	2	R1311T
1121.376	24.662	1393537	REC_WORD	5.348	n/a	SHARK	-999	10	[0, 0, 0]	n/a	FR1	2	R1311T
1146.038	4.494	1418198	REC_END	n/a	n/a	n/a	-999	10	[0, 0, 0]	n/a	FR1	2	R1311T
1150.532	10.0	1422691	COUNTDOWN_START	n/a	n/a	n/a	-999	11	[0, 0, 0]	n/a	FR1	2	R1311T
1150.533	10.427	1422692	TRIAL	n/a	n/a	n/a	-999	11	[0, 0, 0]	n/a	FR1	2	R1311T
1160.96	0.009	1433119	COUNTDOWN_END	n/a	n/a	n/a	-999	11	[0, 0, 0]	n/a	FR1	2	R1311T
1160.969	1.6	1433128	ORIENT	n/a	n/a	n/a	-999	11	[0, 0, 0]	n/a	FR1	2	R1311T
1163.435	1.6	1435594	WORD	n/a	wordpools/wordpool_EN.txt	NEST	1	11	[0, 0, 0]	n/a	FR1	2	R1311T
1165.852	1.6	1438010	WORD	n/a	wordpools/wordpool_EN.txt	CAKE	2	11	[0, 0, 0]	n/a	FR1	2	R1311T
1168.269	1.6	1440427	WORD	n/a	wordpools/wordpool_EN.txt	CHEEK	3	11	[0, 0, 0]	n/a	FR1	2	R1311T
1170.736	1.6	1442894	WORD	n/a	wordpools/wordpool_EN.txt	FACE	4	11	[0, 0, 0]	n/a	FR1	2	R1311T
1173.353	1.6	1445511	WORD	n/a	wordpools/wordpool_EN.txt	FORK	5	11	[0, 0, 0]	n/a	FR1	2	R1311T
1175.888	1.6	1448046	WORD	n/a	wordpools/wordpool_EN.txt	CUP	6	11	[0, 0, 0]	n/a	FR1	2	R1311T
1178.287	1.6	1450445	WORD	n/a	wordpools/wordpool_EN.txt	MOOSE	7	11	[0, 0, 0]	n/a	FR1	2	R1311T
1180.805	1.6	1452963	WORD	n/a	wordpools/wordpool_EN.txt	AXE	8	11	[0, 0, 0]	n/a	FR1	2	R1311T
1183.305	1.6	1455462	WORD	n/a	wordpools/wordpool_EN.txt	TOAST	9	11	[0, 0, 0]	n/a	FR1	2	R1311T
1185.907	1.6	1458064	WORD	n/a	wordpools/wordpool_EN.txt	HEN	10	11	[0, 0, 0]	n/a	FR1	2	R1311T
1188.339	1.6	1460496	WORD	n/a	wordpools/wordpool_EN.txt	FRUIT	11	11	[0, 0, 0]	n/a	FR1	2	R1311T
1190.756	1.6	1462913	WORD	n/a	wordpools/wordpool_EN.txt	PALM	12	11	[0, 0, 0]	n/a	FR1	2	R1311T
1192.373	0.001	1464530	DISTRACT_START	n/a	n/a	n/a	-999	11	[0, 0, 0]	n/a	FR1	2	R1311T
1192.374	0.016	1464531	START	n/a	n/a	n/a	-999	11	[-999, -999, -999]	n/a	FR1	2	R1311T
1192.39	14.436	1464547	PROB	14.411	n/a	n/a	-999	11	[1, 6, 6]	13.0	FR1	2	R1311T
1206.826	16.119	1478982	PROB	16.119	n/a	n/a	-999	11	[8, 9, 8]	25.0	FR1	2	R1311T
1222.945	0.018	1495100	STOP	n/a	n/a	n/a	-999	11	[-999, -999, -999]	n/a	FR1	2	R1311T
1222.963	1.151	1495118	DISTRACT_END	n/a	n/a	n/a	-999	11	[0, 0, 0]	n/a	FR1	2	R1311T
1224.114	3.037	1496269	REC_START	n/a	n/a	n/a	-999	11	[0, 0, 0]	n/a	FR1	2	R1311T
1227.151	4.5	1499306	REC_WORD	3.037	n/a	NEST	1	11	[0, 0, 0]	n/a	FR1	2	R1311T
1231.651	22.475	1503806	REC_WORD	7.537	n/a	AXE	8	11	[0, 0, 0]	n/a	FR1	2	R1311T
1254.126	8.527	1526279	REC_END	n/a	n/a	n/a	-999	11	[0, 0, 0]	n/a	FR1	2	R1311T
1262.653	0.0	1534806	TRIAL	n/a	n/a	n/a	-999	12	[0, 0, 0]	n/a	FR1	2	R1311T
1262.653	10.0	1534806	COUNTDOWN_START	n/a	n/a	n/a	-999	12	[0, 0, 0]	n/a	FR1	2	R1311T
1273.081	0.008	1545233	COUNTDOWN_END	n/a	n/a	n/a	-999	12	[0, 0, 0]	n/a	FR1	2	R1311T
1273.089	1.6	1545241	ORIENT	n/a	n/a	n/a	-999	12	[0, 0, 0]	n/a	FR1	2	R1311T
1275.688	1.6	1547840	WORD	n/a	wordpools/wordpool_EN.txt	CLAY	1	12	[0, 0, 0]	n/a	FR1	2	R1311T
1278.14	1.6	1550292	WORD	n/a	wordpools/wordpool_EN.txt	INK	2	12	[0, 0, 0]	n/a	FR1	2	R1311T
1280.756	1.6	1552908	WORD	n/a	wordpools/wordpool_EN.txt	CHIN	3	12	[0, 0, 0]	n/a	FR1	2	R1311T
1283.207	1.6	1555359	WORD	n/a	wordpools/wordpool_EN.txt	BANK	4	12	[0, 0, 0]	n/a	FR1	2	R1311T
1285.607	1.6	1557759	WORD	n/a	wordpools/wordpool_EN.txt	PEACH	5	12	[0, 0, 0]	n/a	FR1	2	R1311T
1288.008	1.6	1560159	WORD	n/a	wordpools/wordpool_EN.txt	STOOL	6	12	[0, 0, 0]	n/a	FR1	2	R1311T
1290.625	1.6	1562776	WORD	n/a	wordpools/wordpool_EN.txt	BENCH	7	12	[0, 0, 0]	n/a	FR1	2	R1311T
1293.109	1.6	1565260	WORD	n/a	wordpools/wordpool_EN.txt	THREAD	8	12	[0, 0, 0]	n/a	FR1	2	R1311T
1295.709	1.6	1567860	WORD	n/a	wordpools/wordpool_EN.txt	LAMP	9	12	[0, 0, 0]	n/a	FR1	2	R1311T
1298.292	1.6	1570443	WORD	n/a	wordpools/wordpool_EN.txt	SOAP	10	12	[0, 0, 0]	n/a	FR1	2	R1311T
1300.793	1.6	1572944	WORD	n/a	wordpools/wordpool_EN.txt	FLUTE	11	12	[0, 0, 0]	n/a	FR1	2	R1311T
1303.327	1.6	1575478	WORD	n/a	wordpools/wordpool_EN.txt	PASTE	12	12	[0, 0, 0]	n/a	FR1	2	R1311T
1304.945	0.001	1577096	DISTRACT_START	n/a	n/a	n/a	-999	12	[0, 0, 0]	n/a	FR1	2	R1311T
1304.946	0.016	1577097	START	n/a	n/a	n/a	-999	12	[-999, -999, -999]	n/a	FR1	2	R1311T
1304.962	23.887	1577113	PROB	23.887	n/a	n/a	-999	12	[3, 9, 7]	19.0	FR1	2	R1311T
1328.849	0.016	1600998	STOP	n/a	n/a	n/a	-999	12	[-999, -999, -999]	n/a	FR1	2	R1311T
1328.865	1.135	1601014	DISTRACT_END	n/a	n/a	n/a	-999	12	[0, 0, 0]	n/a	FR1	2	R1311T
1330.0	2.383	1602149	REC_START	n/a	n/a	n/a	-999	12	[0, 0, 0]	n/a	FR1	2	R1311T
1332.383	27.628	1604532	REC_WORD_VV	2.383	n/a	<>	-999	12	[0, 0, 0]	n/a	FR1	2	R1311T
1360.011	4.427	1632158	REC_END	n/a	n/a	n/a	-999	12	[0, 0, 0]	n/a	FR1	2	R1311T
1364.438	10.0	1636585	COUNTDOWN_START	n/a	n/a	n/a	-999	13	[0, 0, 0]	n/a	FR1	2	R1311T
1364.438	10.428	1636585	TRIAL	n/a	n/a	n/a	-999	13	[0, 0, 0]	n/a	FR1	2	R1311T
1374.866	0.008	1647012	COUNTDOWN_END	n/a	n/a	n/a	-999	13	[0, 0, 0]	n/a	FR1	2	R1311T
1374.874	1.6	1647020	ORIENT	n/a	n/a	n/a	-999	13	[0, 0, 0]	n/a	FR1	2	R1311T
1377.324	1.6	1649470	WORD	n/a	wordpools/wordpool_EN.txt	FARM	1	13	[0, 0, 0]	n/a	FR1	2	R1311T
1379.892	1.6	1652038	WORD	n/a	wordpools/wordpool_EN.txt	LAKE	2	13	[0, 0, 0]	n/a	FR1	2	R1311T
1382.308	1.6	1654454	WORD	n/a	wordpools/wordpool_EN.txt	SNOW	3	13	[0, 0, 0]	n/a	FR1	2	R1311T
1384.825	1.6	1656971	WORD	n/a	wordpools/wordpool_EN.txt	RAKE	4	13	[0, 0, 0]	n/a	FR1	2	R1311T
1387.259	1.6	1659405	WORD	n/a	wordpools/wordpool_EN.txt	CALF	5	13	[0, 0, 0]	n/a	FR1	2	R1311T
1389.843	1.6	1661989	WORD	n/a	wordpools/wordpool_EN.txt	SPRING	6	13	[0, 0, 0]	n/a	FR1	2	R1311T
1392.477	1.6	1664622	WORD	n/a	wordpools/wordpool_EN.txt	GRASS	7	13	[0, 0, 0]	n/a	FR1	2	R1311T
1394.995	1.6	1667140	WORD	n/a	wordpools/wordpool_EN.txt	SKUNK	8	13	[0, 0, 0]	n/a	FR1	2	R1311T
1397.627	1.6	1669772	WORD	n/a	wordpools/wordpool_EN.txt	WOOD	9	13	[0, 0, 0]	n/a	FR1	2	R1311T
1400.129	1.6	1672274	WORD	n/a	wordpools/wordpool_EN.txt	SIGN	10	13	[0, 0, 0]	n/a	FR1	2	R1311T
1402.628	1.6	1674773	WORD	n/a	wordpools/wordpool_EN.txt	ELF	11	13	[0, 0, 0]	n/a	FR1	2	R1311T
1405.03	1.6	1677175	WORD	n/a	wordpools/wordpool_EN.txt	MOTH	12	13	[0, 0, 0]	n/a	FR1	2	R1311T
1406.646	0.0	1678791	DISTRACT_START	n/a	n/a	n/a	-999	13	[0, 0, 0]	n/a	FR1	2	R1311T
1406.646	0.016	1678791	START	n/a	n/a	n/a	-999	13	[-999, -999, -999]	n/a	FR1	2	R1311T
1406.662	5.751	1678807	PROB	5.722	n/a	n/a	-999	13	[2, 2, 2]	6.0	FR1	2	R1311T
1412.413	4.669	1684557	PROB	4.645	n/a	n/a	-999	13	[8, 4, 1]	13.0	FR1	2	R1311T
1417.082	7.3	1689226	PROB	7.279	n/a	n/a	-999	13	[2, 6, 4]	12.0	FR1	2	R1311T
1424.382	16.147	1696526	PROB	16.147	n/a	n/a	-999	13	[6, 8, 3]	17.0	FR1	2	R1311T
1440.529	0.006	1712672	STOP	n/a	n/a	n/a	-999	13	[-999, -999, -999]	n/a	FR1	2	R1311T
1440.535	1.101	1712678	DISTRACT_END	n/a	n/a	n/a	-999	13	[0, 0, 0]	n/a	FR1	2	R1311T
1441.636	30.0	1713779	REC_START	n/a	n/a	n/a	-999	13	[0, 0, 0]	n/a	FR1	2	R1311T
1471.636	0.012	1743777	REC_WORD_VV	30.0	n/a	<>	-999	13	[0, 0, 0]	n/a	FR1	2	R1311T
1471.648	3.66	1743789	REC_END	n/a	n/a	n/a	-999	13	[0, 0, 0]	n/a	FR1	2	R1311T
1475.308	0.0	1747449	TRIAL	n/a	n/a	n/a	-999	14	[0, 0, 0]	n/a	FR1	2	R1311T
1475.308	10.0	1747449	COUNTDOWN_START	n/a	n/a	n/a	-999	14	[0, 0, 0]	n/a	FR1	2	R1311T
1485.736	0.007	1757876	COUNTDOWN_END	n/a	n/a	n/a	-999	14	[0, 0, 0]	n/a	FR1	2	R1311T
1485.743	1.6	1757883	ORIENT	n/a	n/a	n/a	-999	14	[0, 0, 0]	n/a	FR1	2	R1311T
1488.36	1.6	1760500	WORD	n/a	wordpools/wordpool_EN.txt	ROOT	1	14	[0, 0, 0]	n/a	FR1	2	R1311T
1490.811	1.6	1762951	WORD	n/a	wordpools/wordpool_EN.txt	TREE	2	14	[0, 0, 0]	n/a	FR1	2	R1311T
1493.261	1.6	1765401	WORD	n/a	wordpools/wordpool_EN.txt	POOL	3	14	[0, 0, 0]	n/a	FR1	2	R1311T
1495.812	1.6	1767952	WORD	n/a	wordpools/wordpool_EN.txt	DART	4	14	[0, 0, 0]	n/a	FR1	2	R1311T
1498.396	1.6	1770535	WORD	n/a	wordpools/wordpool_EN.txt	RICE	5	14	[0, 0, 0]	n/a	FR1	2	R1311T
1500.98	1.6	1773119	WORD	n/a	wordpools/wordpool_EN.txt	LEAF	6	14	[0, 0, 0]	n/a	FR1	2	R1311T
1503.597	1.6	1775736	WORD	n/a	wordpools/wordpool_EN.txt	OAK	7	14	[0, 0, 0]	n/a	FR1	2	R1311T
1506.115	1.6	1778254	WORD	n/a	wordpools/wordpool_EN.txt	STEM	8	14	[0, 0, 0]	n/a	FR1	2	R1311T
1508.614	1.6	1780753	WORD	n/a	wordpools/wordpool_EN.txt	SEED	9	14	[0, 0, 0]	n/a	FR1	2	R1311T
1511.049	1.6	1783188	WORD	n/a	wordpools/wordpool_EN.txt	LAMB	10	14	[0, 0, 0]	n/a	FR1	2	R1311T
1513.615	1.6	1785754	WORD	n/a	wordpools/wordpool_EN.txt	MUG	11	14	[0, 0, 0]	n/a	FR1	2	R1311T
1516.017	1.6	1788155	WORD	n/a	wordpools/wordpool_EN.txt	TEA	12	14	[0, 0, 0]	n/a	FR1	2	R1311T
1517.633	0.0	1789771	DISTRACT_START	n/a	n/a	n/a	-999	14	[0, 0, 0]	n/a	FR1	2	R1311T
1517.633	0.016	1789771	START	n/a	n/a	n/a	-999	14	[-999, -999, -999]	n/a	FR1	2	R1311T
1517.649	14.77	1789787	PROB	14.735	n/a	n/a	-999	14	[2, 2, 5]	9.0	FR1	2	R1311T
1532.419	5.373	1804556	PROB	5.373	n/a	n/a	-999	14	[8, 2, 6]	16.0	FR1	2	R1311T
1537.792	0.011	1809929	STOP	n/a	n/a	n/a	-999	14	[-999, -999, -999]	n/a	FR1	2	R1311T
1537.803	1.051	1809940	DISTRACT_END	n/a	n/a	n/a	-999	14	[0, 0, 0]	n/a	FR1	2	R1311T
1538.854	11.194	1810991	REC_START	n/a	n/a	n/a	-999	14	[0, 0, 0]	n/a	FR1	2	R1311T
1550.048	0.675	1822184	REC_WORD_VV	11.194	n/a	<>	-999	14	[0, 0, 0]	n/a	FR1	2	R1311T
1550.723	1.204	1822859	REC_WORD	11.869	n/a	TREE	2	14	[0, 0, 0]	n/a	FR1	2	R1311T
1551.927	1.437	1824063	REC_WORD	13.073	n/a	ROOT	1	14	[0, 0, 0]	n/a	FR1	2	R1311T
1553.364	15.502	1825500	REC_WORD	14.51	n/a	POOL	3	14	[0, 0, 0]	n/a	FR1	2	R1311T
1568.866	2.826	1841001	REC_END	n/a	n/a	n/a	-999	14	[0, 0, 0]	n/a	FR1	2	R1311T
1571.692	0.0	1843827	TRIAL	n/a	n/a	n/a	-999	15	[0, 0, 0]	n/a	FR1	2	R1311T
1571.692	10.0	1843827	COUNTDOWN_START	n/a	n/a	n/a	-999	15	[0, 0, 0]	n/a	FR1	2	R1311T
1582.12	0.009	1854255	COUNTDOWN_END	n/a	n/a	n/a	-999	15	[0, 0, 0]	n/a	FR1	2	R1311T
1582.129	1.6	1854264	ORIENT	n/a	n/a	n/a	-999	15	[0, 0, 0]	n/a	FR1	2	R1311T
1584.728	1.6	1856862	WORD	n/a	wordpools/wordpool_EN.txt	GUARD	1	15	[0, 0, 0]	n/a	FR1	2	R1311T
1587.113	1.6	1859247	WORD	n/a	wordpools/wordpool_EN.txt	FENCE	2	15	[0, 0, 0]	n/a	FR1	2	R1311T
1589.562	1.6	1861696	WORD	n/a	wordpools/wordpool_EN.txt	DOLL	3	15	[0, 0, 0]	n/a	FR1	2	R1311T
1592.147	1.6	1864281	WORD	n/a	wordpools/wordpool_EN.txt	BAT	4	15	[0, 0, 0]	n/a	FR1	2	R1311T
1594.597	1.6	1866731	WORD	n/a	wordpools/wordpool_EN.txt	LEG	5	15	[0, 0, 0]	n/a	FR1	2	R1311T
1597.148	1.6	1869282	WORD	n/a	wordpools/wordpool_EN.txt	HORN	6	15	[0, 0, 0]	n/a	FR1	2	R1311T
1599.664	1.6	1871798	WORD	n/a	wordpools/wordpool_EN.txt	OAR	7	15	[0, 0, 0]	n/a	FR1	2	R1311T
1602.049	1.6	1874182	WORD	n/a	wordpools/wordpool_EN.txt	FOOT	8	15	[0, 0, 0]	n/a	FR1	2	R1311T
1604.632	1.6	1876765	WORD	n/a	wordpools/wordpool_EN.txt	BOY	9	15	[0, 0, 0]	n/a	FR1	2	R1311T
1607.033	1.6	1879166	WORD	n/a	wordpools/wordpool_EN.txt	SOCK	10	15	[0, 0, 0]	n/a	FR1	2	R1311T
1609.449	1.6	1881582	WORD	n/a	wordpools/wordpool_EN.txt	LOCK	11	15	[0, 0, 0]	n/a	FR1	2	R1311T
1611.867	1.6	1884000	WORD	n/a	wordpools/wordpool_EN.txt	PEN	12	15	[0, 0, 0]	n/a	FR1	2	R1311T
1613.483	0.001	1885616	DISTRACT_START	n/a	n/a	n/a	-999	15	[0, 0, 0]	n/a	FR1	2	R1311T
1613.484	0.016	1885617	START	n/a	n/a	n/a	-999	15	[-999, -999, -999]	n/a	FR1	2	R1311T
1613.5	14.504	1885633	PROB	14.478	n/a	n/a	-999	15	[3, 8, 2]	13.0	FR1	2	R1311T
1628.004	17.022	1900136	PROB	17.022	n/a	n/a	-999	15	[6, 8, 9]	23.0	FR1	2	R1311T
1645.026	0.014	1917157	STOP	n/a	n/a	n/a	-999	15	[-999, -999, -999]	n/a	FR1	2	R1311T
1645.04	1.2	1917171	DISTRACT_END	n/a	n/a	n/a	-999	15	[0, 0, 0]	n/a	FR1	2	R1311T
1646.24	2.673	1918371	REC_START	n/a	n/a	n/a	-999	15	[0, 0, 0]	n/a	FR1	2	R1311T
1648.913	27.338	1921044	REC_WORD_VV	2.673	n/a	<>	-999	15	[0, 0, 0]	n/a	FR1	2	R1311T
1676.251	3.578	1948380	REC_END	n/a	n/a	n/a	-999	15	[0, 0, 0]	n/a	FR1	2	R1311T
1679.829	10.0	1951958	COUNTDOWN_START	n/a	n/a	n/a	-999	16	[0, 0, 0]	n/a	FR1	2	R1311T
1679.829	10.428	1951958	TRIAL	n/a	n/a	n/a	-999	16	[0, 0, 0]	n/a	FR1	2	R1311T
1690.257	0.007	1962385	COUNTDOWN_END	n/a	n/a	n/a	-999	16	[0, 0, 0]	n/a	FR1	2	R1311T
1690.264	1.6	1962392	ORIENT	n/a	n/a	n/a	-999	16	[0, 0, 0]	n/a	FR1	2	R1311T
1692.864	1.6	1964992	WORD	n/a	wordpools/wordpool_EN.txt	FORT	1	16	[0, 0, 0]	n/a	FR1	2	R1311T
1695.482	1.6	1967610	WORD	n/a	wordpools/wordpool_EN.txt	ZOO	2	16	[0, 0, 0]	n/a	FR1	2	R1311T
1698.033	1.6	1970161	WORD	n/a	wordpools/wordpool_EN.txt	SHARK	3	16	[0, 0, 0]	n/a	FR1	2	R1311T
1700.483	1.6	1972611	WORD	n/a	wordpools/wordpool_EN.txt	ROCK	4	16	[0, 0, 0]	n/a	FR1	2	R1311T
1702.967	1.6	1975095	WORD	n/a	wordpools/wordpool_EN.txt	SAIL	5	16	[0, 0, 0]	n/a	FR1	2	R1311T
1705.483	1.6	1977611	WORD	n/a	wordpools/wordpool_EN.txt	BEACH	6	16	[0, 0, 0]	n/a	FR1	2	R1311T
1707.951	1.6	1980078	WORD	n/a	wordpools/wordpool_EN.txt	FLAG	7	16	[0, 0, 0]	n/a	FR1	2	R1311T
1710.518	1.6	1982645	WORD	n/a	wordpools/wordpool_EN.txt	FUR	8	16	[0, 0, 0]	n/a	FR1	2	R1311T
1712.969	1.6	1985096	WORD	n/a	wordpools/wordpool_EN.txt	DOG	9	16	[0, 0, 0]	n/a	FR1	2	R1311T
1715.452	1.6	1987579	WORD	n/a	wordpools/wordpool_EN.txt	FLEA	10	16	[0, 0, 0]	n/a	FR1	2	R1311T
1717.97	1.6	1990097	WORD	n/a	wordpools/wordpool_EN.txt	JAIL	11	16	[0, 0, 0]	n/a	FR1	2	R1311T
1720.436	1.6	1992563	WORD	n/a	wordpools/wordpool_EN.txt	TRASH	12	16	[0, 0, 0]	n/a	FR1	2	R1311T
1722.037	0.001	1994164	DISTRACT_START	n/a	n/a	n/a	-999	16	[0, 0, 0]	n/a	FR1	2	R1311T
1722.038	0.016	1994165	START	n/a	n/a	n/a	-999	16	[-999, -999, -999]	n/a	FR1	2	R1311T
1722.054	23.084	1994181	PROB	23.084	n/a	n/a	-999	16	[4, 1, 7]	12.0	FR1	2	R1311T
1745.138	0.003	2017263	STOP	n/a	n/a	n/a	-999	16	[-999, -999, -999]	n/a	FR1	2	R1311T
1745.141	1.2	2017266	DISTRACT_END	n/a	n/a	n/a	-999	16	[0, 0, 0]	n/a	FR1	2	R1311T
1746.341	5.84	2018466	REC_START	n/a	n/a	n/a	-999	16	[0, 0, 0]	n/a	FR1	2	R1311T
1752.181	1.755	2024306	REC_WORD	5.84	n/a	FORT	1	16	[0, 0, 0]	n/a	FR1	2	R1311T
1753.936	1.817	2026061	REC_WORD	7.595	n/a	RULE	-999	16	[0, 0, 0]	n/a	FR1	2	R1311T
1755.753	0.591	2027878	REC_WORD	9.412	n/a	ZOO	2	16	[0, 0, 0]	n/a	FR1	2	R1311T
1756.344	20.009	2028469	REC_WORD_VV	10.003	n/a	<>	-999	16	[0, 0, 0]	n/a	FR1	2	R1311T
1776.353	3.144	2048476	REC_END	n/a	n/a	n/a	-999	16	[0, 0, 0]	n/a	FR1	2	R1311T
1779.497	0.0	2051620	TRIAL	n/a	n/a	n/a	-999	17	[0, 0, 0]	n/a	FR1	2	R1311T
1779.497	10.0	2051620	COUNTDOWN_START	n/a	n/a	n/a	-999	17	[0, 0, 0]	n/a	FR1	2	R1311T
1789.925	0.008	2062048	COUNTDOWN_END	n/a	n/a	n/a	-999	17	[0, 0, 0]	n/a	FR1	2	R1311T
1789.933	1.6	2062056	ORIENT	n/a	n/a	n/a	-999	17	[0, 0, 0]	n/a	FR1	2	R1311T
1792.499	1.6	2064622	WORD	n/a	wordpools/wordpool_EN.txt	GLOVE	1	17	[0, 0, 0]	n/a	FR1	2	R1311T
1795.051	1.6	2067173	WORD	n/a	wordpools/wordpool_EN.txt	PIPE	2	17	[0, 0, 0]	n/a	FR1	2	R1311T
1797.517	1.6	2069639	WORD	n/a	wordpools/wordpool_EN.txt	FAN	3	17	[0, 0, 0]	n/a	FR1	2	R1311T
1800.018	1.6	2072140	WORD	n/a	wordpools/wordpool_EN.txt	PURSE	4	17	[0, 0, 0]	n/a	FR1	2	R1311T
1802.634	1.6	2074756	WORD	n/a	wordpools/wordpool_EN.txt	BAND	5	17	[0, 0, 0]	n/a	FR1	2	R1311T
1805.186	1.6	2077308	WORD	n/a	wordpools/wordpool_EN.txt	PIN	6	17	[0, 0, 0]	n/a	FR1	2	R1311T
1807.569	1.6	2079691	WORD	n/a	wordpools/wordpool_EN.txt	WAND	7	17	[0, 0, 0]	n/a	FR1	2	R1311T
1810.003	1.6	2082125	WORD	n/a	wordpools/wordpool_EN.txt	TOOL	8	17	[0, 0, 0]	n/a	FR1	2	R1311T
1812.453	1.6	2084574	WORD	n/a	wordpools/wordpool_EN.txt	THUMB	9	17	[0, 0, 0]	n/a	FR1	2	R1311T
1814.871	1.6	2086992	WORD	n/a	wordpools/wordpool_EN.txt	YARD	10	17	[0, 0, 0]	n/a	FR1	2	R1311T
1817.27	1.6	2089391	WORD	n/a	wordpools/wordpool_EN.txt	VEST	11	17	[0, 0, 0]	n/a	FR1	2	R1311T
1819.704	1.6	2091825	WORD	n/a	wordpools/wordpool_EN.txt	DESK	12	17	[0, 0, 0]	n/a	FR1	2	R1311T
1821.321	0.001	2093442	DISTRACT_START	n/a	n/a	n/a	-999	17	[0, 0, 0]	n/a	FR1	2	R1311T
1821.322	0.016	2093443	START	n/a	n/a	n/a	-999	17	[-999, -999, -999]	n/a	FR1	2	R1311T
1821.338	11.385	2093459	PROB	11.359	n/a	n/a	-999	17	[4, 4, 1]	9.0	FR1	2	R1311T
1832.723	25.093	2104843	PROB	25.093	n/a	n/a	-999	17	[5, 6, 6]	17.0	FR1	2	R1311T
1857.816	0.012	2129935	STOP	n/a	n/a	n/a	-999	17	[-999, -999, -999]	n/a	FR1	2	R1311T
1857.828	1.085	2129947	DISTRACT_END	n/a	n/a	n/a	-999	17	[0, 0, 0]	n/a	FR1	2	R1311T
1858.913	30.0	2131032	REC_START	n/a	n/a	n/a	-999	17	[0, 0, 0]	n/a	FR1	2	R1311T
1888.913	0.012	2161030	REC_WORD_VV	30.0	n/a	<>	-999	17	[0, 0, 0]	n/a	FR1	2	R1311T
1888.925	2.442	2161042	REC_END	n/a	n/a	n/a	-999	17	[0, 0, 0]	n/a	FR1	2	R1311T
1891.367	0.0	2163484	TRIAL	n/a	n/a	n/a	-999	18	[0, 0, 0]	n/a	FR1	2	R1311T
1891.367	10.0	2163484	COUNTDOWN_START	n/a	n/a	n/a	-999	18	[0, 0, 0]	n/a	FR1	2	R1311T
1901.795	0.007	2173911	COUNTDOWN_END	n/a	n/a	n/a	-999	18	[0, 0, 0]	n/a	FR1	2	R1311T
1901.802	1.6	2173918	ORIENT	n/a	n/a	n/a	-999	18	[0, 0, 0]	n/a	FR1	2	R1311T
1904.27	1.6	2176386	WORD	n/a	wordpools/wordpool_EN.txt	ROPE	1	18	[0, 0, 0]	n/a	FR1	2	R1311T
1906.72	1.6	2178836	WORD	n/a	wordpools/wordpool_EN.txt	DUCK	2	18	[0, 0, 0]	n/a	FR1	2	R1311T
1909.171	1.6	2181287	WORD	n/a	wordpools/wordpool_EN.txt	SNAKE	3	18	[0, 0, 0]	n/a	FR1	2	R1311T
1911.771	1.6	2183887	WORD	n/a	wordpools/wordpool_EN.txt	TENT	4	18	[0, 0, 0]	n/a	FR1	2	R1311T
1914.388	1.6	2186504	WORD	n/a	wordpools/wordpool_EN.txt	MAZE	5	18	[0, 0, 0]	n/a	FR1	2	R1311T
1916.805	1.6	2188920	WORD	n/a	wordpools/wordpool_EN.txt	HAWK	6	18	[0, 0, 0]	n/a	FR1	2	R1311T
1919.356	1.6	2191471	WORD	n/a	wordpools/wordpool_EN.txt	WEED	7	18	[0, 0, 0]	n/a	FR1	2	R1311T
1921.856	1.6	2193971	WORD	n/a	wordpools/wordpool_EN.txt	OWL	8	18	[0, 0, 0]	n/a	FR1	2	R1311T
1924.24	1.6	2196355	WORD	n/a	wordpools/wordpool_EN.txt	DEER	9	18	[0, 0, 0]	n/a	FR1	2	R1311T
1926.69	1.6	2198805	WORD	n/a	wordpools/wordpool_EN.txt	BROOM	10	18	[0, 0, 0]	n/a	FR1	2	R1311T
1929.191	1.6	2201306	WORD	n/a	wordpools/wordpool_EN.txt	ROAD	11	18	[0, 0, 0]	n/a	FR1	2	R1311T
1931.758	1.6	2203873	WORD	n/a	wordpools/wordpool_EN.txt	DOCK	12	18	[0, 0, 0]	n/a	FR1	2	R1311T
1933.375	0.001	2205489	DISTRACT_START	n/a	n/a	n/a	-999	18	[0, 0, 0]	n/a	FR1	2	R1311T
1933.376	0.016	2205490	START	n/a	n/a	n/a	-999	18	[-999, -999, -999]	n/a	FR1	2	R1311T
1933.392	10.335	2205506	PROB	10.313	n/a	n/a	-999	18	[4, 9, 3]	16.0	FR1	2	R1311T
1943.727	14.657	2215841	PROB	14.657	n/a	n/a	-999	18	[7, 4, 6]	17.0	FR1	2	R1311T
1958.384	0.012	2230497	STOP	n/a	n/a	n/a	-999	18	[-999, -999, -999]	n/a	FR1	2	R1311T
1958.396	1.084	2230509	DISTRACT_END	n/a	n/a	n/a	-999	18	[0, 0, 0]	n/a	FR1	2	R1311T
1959.48	3.759	2231593	REC_START	n/a	n/a	n/a	-999	18	[0, 0, 0]	n/a	FR1	2	R1311T
1963.239	1.477	2235352	REC_WORD	3.759	n/a	FROG	-999	18	[0, 0, 0]	n/a	FR1	2	R1311T
1964.716	1.619	2236829	REC_WORD	5.236	n/a	SNAKE	3	18	[0, 0, 0]	n/a	FR1	2	R1311T
1966.335	1.644	2238448	REC_WORD	6.855	n/a	TENT	4	18	[0, 0, 0]	n/a	FR1	2	R1311T
1967.979	21.517	2240091	REC_WORD	8.499	n/a	MAZE	5	18	[0, 0, 0]	n/a	FR1	2	R1311T
1989.496	2.74	2261607	REC_END	n/a	n/a	n/a	-999	18	[0, 0, 0]	n/a	FR1	2	R1311T
1992.236	0.0	2264347	TRIAL	n/a	n/a	n/a	-999	19	[0, 0, 0]	n/a	FR1	2	R1311T
1992.236	10.0	2264347	COUNTDOWN_START	n/a	n/a	n/a	-999	19	[0, 0, 0]	n/a	FR1	2	R1311T
2002.664	0.007	2274774	COUNTDOWN_END	n/a	n/a	n/a	-999	19	[0, 0, 0]	n/a	FR1	2	R1311T
2002.671	1.6	2274781	ORIENT	n/a	n/a	n/a	-999	19	[0, 0, 0]	n/a	FR1	2	R1311T
2005.255	1.6	2277365	WORD	n/a	wordpools/wordpool_EN.txt	WORM	1	19	[0, 0, 0]	n/a	FR1	2	R1311T
2007.788	1.6	2279898	WORD	n/a	wordpools/wordpool_EN.txt	EGG	2	19	[0, 0, 0]	n/a	FR1	2	R1311T
2010.372	1.6	2282482	WORD	n/a	wordpools/wordpool_EN.txt	HOOK	3	19	[0, 0, 0]	n/a	FR1	2	R1311T
2012.874	1.6	2284984	WORD	n/a	wordpools/wordpool_EN.txt	WING	4	19	[0, 0, 0]	n/a	FR1	2	R1311T
2015.39	1.6	2287500	WORD	n/a	wordpools/wordpool_EN.txt	FISH	5	19	[0, 0, 0]	n/a	FR1	2	R1311T
2017.857	1.6	2289967	WORD	n/a	wordpools/wordpool_EN.txt	STORM	6	19	[0, 0, 0]	n/a	FR1	2	R1311T
2020.457	1.6	2292566	WORD	n/a	wordpools/wordpool_EN.txt	SEA	7	19	[0, 0, 0]	n/a	FR1	2	R1311T
2022.976	1.6	2295085	WORD	n/a	wordpools/wordpool_EN.txt	WEB	8	19	[0, 0, 0]	n/a	FR1	2	R1311T
2025.558	1.6	2297667	WORD	n/a	wordpools/wordpool_EN.txt	SHRIMP	9	19	[0, 0, 0]	n/a	FR1	2	R1311T
2027.96	1.6	2300069	WORD	n/a	wordpools/wordpool_EN.txt	SHELL	10	19	[0, 0, 0]	n/a	FR1	2	R1311T
2030.393	1.6	2302502	WORD	n/a	wordpools/wordpool_EN.txt	CUBE	11	19	[0, 0, 0]	n/a	FR1	2	R1311T
2032.944	1.6	2305053	WORD	n/a	wordpools/wordpool_EN.txt	BOAT	12	19	[0, 0, 0]	n/a	FR1	2	R1311T
2034.56	0.001	2306669	DISTRACT_START	n/a	n/a	n/a	-999	19	[0, 0, 0]	n/a	FR1	2	R1311T
2034.561	0.016	2306670	START	n/a	n/a	n/a	-999	19	[-999, -999, -999]	n/a	FR1	2	R1311T
2034.577	14.453	2306686	PROB	14.425	n/a	n/a	-999	19	[5, 9, 4]	18.0	FR1	2	R1311T
2049.03	16.371	2321138	PROB	16.371	n/a	n/a	-999	19	[6, 9, 6]	21.0	FR1	2	R1311T
2065.401	0.015	2337508	STOP	n/a	n/a	n/a	-999	19	[-999, -999, -999]	n/a	FR1	2	R1311T
2065.416	1.117	2337523	DISTRACT_END	n/a	n/a	n/a	-999	19	[0, 0, 0]	n/a	FR1	2	R1311T
2066.533	30.0	2338640	REC_START	n/a	n/a	n/a	-999	19	[0, 0, 0]	n/a	FR1	2	R1311T
2096.533	0.01	2368638	REC_WORD_VV	30.0	n/a	<>	-999	19	[0, 0, 0]	n/a	FR1	2	R1311T
2096.543	2.262	2368648	REC_END	n/a	n/a	n/a	-999	19	[0, 0, 0]	n/a	FR1	2	R1311T
2098.805	0.0	2370910	TRIAL	n/a	n/a	n/a	-999	20	[0, 0, 0]	n/a	FR1	2	R1311T
2098.805	10.0	2370910	COUNTDOWN_START	n/a	n/a	n/a	-999	20	[0, 0, 0]	n/a	FR1	2	R1311T
2109.233	0.007	2381337	COUNTDOWN_END	n/a	n/a	n/a	-999	20	[0, 0, 0]	n/a	FR1	2	R1311T
2109.24	1.6	2381344	ORIENT	n/a	n/a	n/a	-999	20	[0, 0, 0]	n/a	FR1	2	R1311T
2111.657	1.6	2383761	WORD	n/a	wordpools/wordpool_EN.txt	GLASS	1	20	[0, 0, 0]	n/a	FR1	2	R1311T
2114.109	1.6	2386213	WORD	n/a	wordpools/wordpool_EN.txt	FOG	2	20	[0, 0, 0]	n/a	FR1	2	R1311T
2116.508	1.6	2388612	WORD	n/a	wordpools/wordpool_EN.txt	TRAY	3	20	[0, 0, 0]	n/a	FR1	2	R1311T
2119.093	1.6	2391197	WORD	n/a	wordpools/wordpool_EN.txt	FUDGE	4	20	[0, 0, 0]	n/a	FR1	2	R1311T
2121.526	1.6	2393630	WORD	n/a	wordpools/wordpool_EN.txt	STEAM	5	20	[0, 0, 0]	n/a	FR1	2	R1311T
2123.91	1.6	2396014	WORD	n/a	wordpools/wordpool_EN.txt	JET	6	20	[0, 0, 0]	n/a	FR1	2	R1311T
2126.293	1.6	2398396	WORD	n/a	wordpools/wordpool_EN.txt	LAND	7	20	[0, 0, 0]	n/a	FR1	2	R1311T
2128.677	1.6	2400780	WORD	n/a	wordpools/wordpool_EN.txt	SALT	8	20	[0, 0, 0]	n/a	FR1	2	R1311T
2131.145	1.6	2403248	WORD	n/a	wordpools/wordpool_EN.txt	FLAME	9	20	[0, 0, 0]	n/a	FR1	2	R1311T
2133.545	1.6	2405648	WORD	n/a	wordpools/wordpool_EN.txt	CLOUD	10	20	[0, 0, 0]	n/a	FR1	2	R1311T
2135.996	1.6	2408099	WORD	n/a	wordpools/wordpool_EN.txt	SHIP	11	20	[0, 0, 0]	n/a	FR1	2	R1311T
2138.462	1.6	2410565	WORD	n/a	wordpools/wordpool_EN.txt	SPONGE	12	20	[0, 0, 0]	n/a	FR1	2	R1311T
2140.064	0.001	2412167	DISTRACT_START	n/a	n/a	n/a	-999	20	[0, 0, 0]	n/a	FR1	2	R1311T
2140.065	0.015	2412168	START	n/a	n/a	n/a	-999	20	[-999, -999, -999]	n/a	FR1	2	R1311T
2140.08	6.935	2412183	PROB	6.905	n/a	n/a	-999	20	[9, 1, 6]	16.0	FR1	2	R1311T
2147.015	6.151	2419117	PROB	6.123	n/a	n/a	-999	20	[6, 5, 2]	13.0	FR1	2	R1311T
2153.166	25.459	2425268	PROB	25.459	n/a	n/a	-999	20	[5, 8, 8]	21.0	FR1	2	R1311T
2178.625	0.011	2450725	STOP	n/a	n/a	n/a	-999	20	[-999, -999, -999]	n/a	FR1	2	R1311T
2178.636	1.101	2450736	DISTRACT_END	n/a	n/a	n/a	-999	20	[0, 0, 0]	n/a	FR1	2	R1311T
2179.737	25.279	2451837	REC_START	n/a	n/a	n/a	-999	20	[0, 0, 0]	n/a	FR1	2	R1311T
2205.016	4.733	2477115	REC_WORD	25.279	n/a	WING	-999	20	[0, 0, 0]	n/a	FR1	2	R1311T
2209.749	3.378	2481848	REC_END	n/a	n/a	n/a	-999	20	[0, 0, 0]	n/a	FR1	2	R1311T
2213.127	0.0	2485225	TRIAL	n/a	n/a	n/a	-999	21	[0, 0, 0]	n/a	FR1	2	R1311T
2213.127	10.0	2485225	COUNTDOWN_START	n/a	n/a	n/a	-999	21	[0, 0, 0]	n/a	FR1	2	R1311T
2223.555	0.006	2495653	COUNTDOWN_END	n/a	n/a	n/a	-999	21	[0, 0, 0]	n/a	FR1	2	R1311T
2223.561	1.6	2495659	ORIENT	n/a	n/a	n/a	-999	21	[0, 0, 0]	n/a	FR1	2	R1311T
2226.146	1.6	2498244	WORD	n/a	wordpools/wordpool_EN.txt	RAIN	1	21	[0, 0, 0]	n/a	FR1	2	R1311T
2228.579	1.6	2500677	WORD	n/a	wordpools/wordpool_EN.txt	SKI	2	21	[0, 0, 0]	n/a	FR1	2	R1311T
2231.147	1.6	2503244	WORD	n/a	wordpools/wordpool_EN.txt	DRUM	3	21	[0, 0, 0]	n/a	FR1	2	R1311T
2233.646	1.6	2505743	WORD	n/a	wordpools/wordpool_EN.txt	CAR	4	21	[0, 0, 0]	n/a	FR1	2	R1311T
2236.181	1.6	2508278	WORD	n/a	wordpools/wordpool_EN.txt	CROWN	5	21	[0, 0, 0]	n/a	FR1	2	R1311T
2238.614	1.6	2510711	WORD	n/a	wordpools/wordpool_EN.txt	STAIR	6	21	[0, 0, 0]	n/a	FR1	2	R1311T
2241.132	1.6	2513229	WORD	n/a	wordpools/wordpool_EN.txt	KEY	7	21	[0, 0, 0]	n/a	FR1	2	R1311T
2243.515	1.6	2515612	WORD	n/a	wordpools/wordpool_EN.txt	DOOR	8	21	[0, 0, 0]	n/a	FR1	2	R1311T
2246.016	1.6	2518113	WORD	n/a	wordpools/wordpool_EN.txt	CHIEF	9	21	[0, 0, 0]	n/a	FR1	2	R1311T
2248.649	1.6	2520745	WORD	n/a	wordpools/wordpool_EN.txt	WAVE	10	21	[0, 0, 0]	n/a	FR1	2	R1311T
2251.266	1.6	2523362	WORD	n/a	wordpools/wordpool_EN.txt	TOY	11	21	[0, 0, 0]	n/a	FR1	2	R1311T
2253.733	1.6	2525829	WORD	n/a	wordpools/wordpool_EN.txt	BLOOM	12	21	[0, 0, 0]	n/a	FR1	2	R1311T
2255.35	0.001	2527446	DISTRACT_START	n/a	n/a	n/a	-999	21	[0, 0, 0]	n/a	FR1	2	R1311T
2255.351	0.016	2527447	START	n/a	n/a	n/a	-999	21	[-999, -999, -999]	n/a	FR1	2	R1311T
2255.367	12.102	2527463	PROB	12.081	n/a	n/a	-999	21	[3, 5, 6]	14.0	FR1	2	R1311T
2267.469	13.091	2539564	PROB	13.091	n/a	n/a	-999	21	[7, 5, 2]	14.0	FR1	2	R1311T
2280.56	0.011	2552655	STOP	n/a	n/a	n/a	-999	21	[-999, -999, -999]	n/a	FR1	2	R1311T
2280.571	1.134	2552666	DISTRACT_END	n/a	n/a	n/a	-999	21	[0, 0, 0]	n/a	FR1	2	R1311T
2281.705	1.695	2553799	REC_START	n/a	n/a	n/a	-999	21	[0, 0, 0]	n/a	FR1	2	R1311T
2283.4	0.557	2555494	REC_WORD_VV	1.695	n/a	<>	-999	21	[0, 0, 0]	n/a	FR1	2	R1311T
2283.957	27.764	2556051	REC_WORD	2.252	n/a	BLOOM	12	21	[0, 0, 0]	n/a	FR1	2	R1311T
2311.721	3.007	2583814	REC_END	n/a	n/a	n/a	-999	21	[0, 0, 0]	n/a	FR1	2	R1311T
2314.728	0.0	2586821	TRIAL	n/a	n/a	n/a	-999	22	[0, 0, 0]	n/a	FR1	2	R1311T
2314.728	10.0	2586821	COUNTDOWN_START	n/a	n/a	n/a	-999	22	[0, 0, 0]	n/a	FR1	2	R1311T
2325.156	0.008	2597248	COUNTDOWN_END	n/a	n/a	n/a	-999	22	[0, 0, 0]	n/a	FR1	2	R1311T
2325.164	1.6	2597256	ORIENT	n/a	n/a	n/a	-999	22	[0, 0, 0]	n/a	FR1	2	R1311T
2327.713	1.6	2599805	WORD	n/a	wordpools/wordpool_EN.txt	COW	1	22	[0, 0, 0]	n/a	FR1	2	R1311T
2330.214	1.6	2602306	WORD	n/a	wordpools/wordpool_EN.txt	STAR	2	22	[0, 0, 0]	n/a	FR1	2	R1311T
2332.764	1.6	2604856	WORD	n/a	wordpools/wordpool_EN.txt	HOUSE	3	22	[0, 0, 0]	n/a	FR1	2	R1311T
2335.381	1.6	2607472	WORD	n/a	wordpools/wordpool_EN.txt	DRESS	4	22	[0, 0, 0]	n/a	FR1	2	R1311T
2337.933	1.6	2610024	WORD	n/a	wordpools/wordpool_EN.txt	BRIDGE	5	22	[0, 0, 0]	n/a	FR1	2	R1311T
2340.349	1.6	2612440	WORD	n/a	wordpools/wordpool_EN.txt	GATE	6	22	[0, 0, 0]	n/a	FR1	2	R1311T
2342.917	1.6	2615008	WORD	n/a	wordpools/wordpool_EN.txt	STONE	7	22	[0, 0, 0]	n/a	FR1	2	R1311T
2345.483	1.6	2617574	WORD	n/a	wordpools/wordpool_EN.txt	FOX	8	22	[0, 0, 0]	n/a	FR1	2	R1311T
2347.885	1.6	2619976	WORD	n/a	wordpools/wordpool_EN.txt	TIE	9	22	[0, 0, 0]	n/a	FR1	2	R1311T
2350.351	1.6	2622442	WORD	n/a	wordpools/wordpool_EN.txt	SKY	10	22	[0, 0, 0]	n/a	FR1	2	R1311T
2352.751	1.6	2624841	WORD	n/a	wordpools/wordpool_EN.txt	PEA	11	22	[0, 0, 0]	n/a	FR1	2	R1311T
2355.368	1.6	2627458	WORD	n/a	wordpools/wordpool_EN.txt	HILL	12	22	[0, 0, 0]	n/a	FR1	2	R1311T
2356.969	0.001	2629059	DISTRACT_START	n/a	n/a	n/a	-999	22	[0, 0, 0]	n/a	FR1	2	R1311T
2356.97	0.016	2629060	START	n/a	n/a	n/a	-999	22	[-999, -999, -999]	n/a	FR1	2	R1311T
2356.986	8.718	2629076	PROB	8.695	n/a	n/a	-999	22	[2, 9, 4]	15.0	FR1	2	R1311T
2365.704	15.065	2637794	PROB	15.065	n/a	n/a	-999	22	[4, 8, 7]	19.0	FR1	2	R1311T
2380.769	0.004	2652858	STOP	n/a	n/a	n/a	-999	22	[-999, -999, -999]	n/a	FR1	2	R1311T
2380.773	1.203	2652862	DISTRACT_END	n/a	n/a	n/a	-999	22	[0, 0, 0]	n/a	FR1	2	R1311T
2381.976	1.55	2654065	REC_START	n/a	n/a	n/a	-999	22	[0, 0, 0]	n/a	FR1	2	R1311T
2383.526	0.273	2655615	REC_WORD_VV	1.55	n/a	<>	-999	22	[0, 0, 0]	n/a	FR1	2	R1311T
2383.799	1.199	2655888	REC_WORD	1.823	n/a	COW	1	22	[0, 0, 0]	n/a	FR1	2	R1311T
2384.998	1.731	2657087	REC_WORD	3.022	n/a	STAR	2	22	[0, 0, 0]	n/a	FR1	2	R1311T
2386.729	1.712	2658817	REC_WORD	4.753	n/a	HOUSE	3	22	[0, 0, 0]	n/a	FR1	2	R1311T
2388.441	1.954	2660529	REC_WORD	6.465	n/a	DRESS	4	22	[0, 0, 0]	n/a	FR1	2	R1311T
2390.395	1.729	2662483	REC_WORD	8.419	n/a	FOX	8	22	[0, 0, 0]	n/a	FR1	2	R1311T
2392.124	19.861	2664212	REC_WORD	10.148	n/a	TIE	9	22	[0, 0, 0]	n/a	FR1	2	R1311T
2411.985	3.045	2684072	REC_END	n/a	n/a	n/a	-999	22	[0, 0, 0]	n/a	FR1	2	R1311T
2415.03	10.0	2687117	COUNTDOWN_START	n/a	n/a	n/a	-999	23	[0, 0, 0]	n/a	FR1	2	R1311T
2415.03	10.428	2687117	TRIAL	n/a	n/a	n/a	-999	23	[0, 0, 0]	n/a	FR1	2	R1311T
2425.458	0.006	2697544	COUNTDOWN_END	n/a	n/a	n/a	-999	23	[0, 0, 0]	n/a	FR1	2	R1311T
2425.464	1.6	2697550	ORIENT	n/a	n/a	n/a	-999	23	[0, 0, 0]	n/a	FR1	2	R1311T
2428.049	1.6	2700135	WORD	n/a	wordpools/wordpool_EN.txt	MOUTH	1	23	[0, 0, 0]	n/a	FR1	2	R1311T
2430.465	1.6	2702551	WORD	n/a	wordpools/wordpool_EN.txt	ROSE	2	23	[0, 0, 0]	n/a	FR1	2	R1311T
2432.867	1.6	2704953	WORD	n/a	wordpools/wordpool_EN.txt	FLOOR	3	23	[0, 0, 0]	n/a	FR1	2	R1311T
2435.466	1.6	2707552	WORD	n/a	wordpools/wordpool_EN.txt	PARK	4	23	[0, 0, 0]	n/a	FR1	2	R1311T
2438.001	1.6	2710087	WORD	n/a	wordpools/wordpool_EN.txt	SHOE	5	23	[0, 0, 0]	n/a	FR1	2	R1311T
2440.584	1.6	2712669	WORD	n/a	wordpools/wordpool_EN.txt	BOOT	6	23	[0, 0, 0]	n/a	FR1	2	R1311T
2443.185	1.6	2715270	WORD	n/a	wordpools/wordpool_EN.txt	CLOWN	7	23	[0, 0, 0]	n/a	FR1	2	R1311T
2445.668	1.6	2717753	WORD	n/a	wordpools/wordpool_EN.txt	SUIT	8	23	[0, 0, 0]	n/a	FR1	2	R1311T
2448.053	1.6	2720138	WORD	n/a	wordpools/wordpool_EN.txt	CAPE	9	23	[0, 0, 0]	n/a	FR1	2	R1311T
2450.586	1.6	2722671	WORD	n/a	wordpools/wordpool_EN.txt	JUICE	10	23	[0, 0, 0]	n/a	FR1	2	R1311T
2453.07	1.6	2725155	WORD	n/a	wordpools/wordpool_EN.txt	WORLD	11	23	[0, 0, 0]	n/a	FR1	2	R1311T
2455.537	1.6	2727622	WORD	n/a	wordpools/wordpool_EN.txt	BAG	12	23	[0, 0, 0]	n/a	FR1	2	R1311T
2457.155	0.0	2729239	DISTRACT_START	n/a	n/a	n/a	-999	23	[0, 0, 0]	n/a	FR1	2	R1311T
2457.155	0.016	2729239	START	n/a	n/a	n/a	-999	23	[-999, -999, -999]	n/a	FR1	2	R1311T
2457.171	6.15	2729255	PROB	6.118	n/a	n/a	-999	23	[5, 5, 7]	17.0	FR1	2	R1311T
2463.321	13.77	2735405	PROB	13.737	n/a	n/a	-999	23	[2, 9, 5]	16.0	FR1	2	R1311T
2477.091	11.238	2749174	PROB	11.238	n/a	n/a	-999	23	[2, 1, 6]	9.0	FR1	2	R1311T
2488.329	0.013	2760412	STOP	n/a	n/a	n/a	-999	23	[-999, -999, -999]	n/a	FR1	2	R1311T
2488.342	1.168	2760425	DISTRACT_END	n/a	n/a	n/a	-999	23	[0, 0, 0]	n/a	FR1	2	R1311T
2489.51	1.28	2761593	REC_START	n/a	n/a	n/a	-999	23	[0, 0, 0]	n/a	FR1	2	R1311T
2490.79	2.045	2762872	REC_WORD	1.28	n/a	CLOWN	7	23	[0, 0, 0]	n/a	FR1	2	R1311T
2492.835	0.934	2764917	REC_WORD	3.325	n/a	BOOT	6	23	[0, 0, 0]	n/a	FR1	2	R1311T
2493.769	3.989	2765851	REC_WORD	4.259	n/a	SHOE	5	23	[0, 0, 0]	n/a	FR1	2	R1311T
2497.758	3.56	2769840	REC_WORD	8.248	n/a	CAPE	9	23	[0, 0, 0]	n/a	FR1	2	R1311T
2501.318	18.202	2773400	REC_WORD	11.808	n/a	JUICE	10	23	[0, 0, 0]	n/a	FR1	2	R1311T
2519.52	2.745	2791601	REC_END	n/a	n/a	n/a	-999	23	[0, 0, 0]	n/a	FR1	2	R1311T
2522.265	10.0	2794346	COUNTDOWN_START	n/a	n/a	n/a	-999	24	[0, 0, 0]	n/a	FR1	2	R1311T
2522.266	10.427	2794347	TRIAL	n/a	n/a	n/a	-999	24	[0, 0, 0]	n/a	FR1	2	R1311T
2532.693	0.008	2804773	COUNTDOWN_END	n/a	n/a	n/a	-999	24	[0, 0, 0]	n/a	FR1	2	R1311T
2532.701	1.6	2804781	ORIENT	n/a	n/a	n/a	-999	24	[0, 0, 0]	n/a	FR1	2	R1311T
2535.085	1.6	2807165	WORD	n/a	wordpools/wordpool_EN.txt	POLE	1	24	[0, 0, 0]	n/a	FR1	2	R1311T
2537.618	1.6	2809698	WORD	n/a	wordpools/wordpool_EN.txt	HORSE	2	24	[0, 0, 0]	n/a	FR1	2	R1311T
2540.036	1.6	2812116	WORD	n/a	wordpools/wordpool_EN.txt	BALL	3	24	[0, 0, 0]	n/a	FR1	2	R1311T
2542.569	1.6	2814649	WORD	n/a	wordpools/wordpool_EN.txt	APE	4	24	[0, 0, 0]	n/a	FR1	2	R1311T
2545.037	1.6	2817116	WORD	n/a	wordpools/wordpool_EN.txt	CORD	5	24	[0, 0, 0]	n/a	FR1	2	R1311T
2547.537	1.6	2819616	WORD	n/a	wordpools/wordpool_EN.txt	MAP	6	24	[0, 0, 0]	n/a	FR1	2	R1311T
2550.055	1.6	2822134	WORD	n/a	wordpools/wordpool_EN.txt	MAIL	7	24	[0, 0, 0]	n/a	FR1	2	R1311T
2552.688	1.6	2824767	WORD	n/a	wordpools/wordpool_EN.txt	TOAD	8	24	[0, 0, 0]	n/a	FR1	2	R1311T
2555.288	1.6	2827367	WORD	n/a	wordpools/wordpool_EN.txt	TEETH	9	24	[0, 0, 0]	n/a	FR1	2	R1311T
2557.738	1.6	2829817	WORD	n/a	wordpools/wordpool_EN.txt	BEAR	10	24	[0, 0, 0]	n/a	FR1	2	R1311T
2560.239	1.6	2832318	WORD	n/a	wordpools/wordpool_EN.txt	CAT	11	24	[0, 0, 0]	n/a	FR1	2	R1311T
2562.689	1.6	2834767	WORD	n/a	wordpools/wordpool_EN.txt	JUDGE	12	24	[0, 0, 0]	n/a	FR1	2	R1311T
2564.306	0.001	2836384	DISTRACT_START	n/a	n/a	n/a	-999	24	[0, 0, 0]	n/a	FR1	2	R1311T
2564.307	0.016	2836385	START	n/a	n/a	n/a	-999	24	[-999, -999, -999]	n/a	FR1	2	R1311T
2564.323	12.787	2836401	PROB	12.759	n/a	n/a	-999	24	[3, 4, 1]	8.0	FR1	2	R1311T
2577.11	15.539	2849188	PROB	15.539	n/a	n/a	-999	24	[4, 5, 7]	16.0	FR1	2	R1311T
2592.649	0.013	2864726	STOP	n/a	n/a	n/a	-999	24	[-999, -999, -999]	n/a	FR1	2	R1311T
2592.662	1.15	2864739	DISTRACT_END	n/a	n/a	n/a	-999	24	[0, 0, 0]	n/a	FR1	2	R1311T
2593.812	1.31	2865889	REC_START	n/a	n/a	n/a	-999	24	[0, 0, 0]	n/a	FR1	2	R1311T
2595.122	0.319	2867199	REC_WORD_VV	1.31	n/a	<>	-999	24	[0, 0, 0]	n/a	FR1	2	R1311T
2595.441	1.036	2867517	REC_WORD	1.629	n/a	HORSE	2	24	[0, 0, 0]	n/a	FR1	2	R1311T
2596.477	1.33	2868553	REC_WORD	2.665	n/a	POLE	1	24	[0, 0, 0]	n/a	FR1	2	R1311T
2597.807	1.833	2869883	REC_WORD	3.995	n/a	BALL	3	24	[0, 0, 0]	n/a	FR1	2	R1311T
2599.64	4.752	2871716	REC_WORD	5.828	n/a	APE	4	24	[0, 0, 0]	n/a	FR1	2	R1311T
2604.392	2.156	2876468	REC_WORD	10.58	n/a	FROG	-999	24	[0, 0, 0]	n/a	FR1	2	R1311T
2606.548	17.277	2878624	REC_WORD	12.736	n/a	MAP	6	24	[0, 0, 0]	n/a	FR1	2	R1311T
2623.825	3.127	2895900	REC_END	n/a	n/a	n/a	-999	24	[0, 0, 0]	n/a	FR1	2	R1311T
2626.952	0.0	2899027	TRIAL	n/a	n/a	n/a	-999	25	[0, 0, 0]	n/a	FR1	2	R1311T
2626.952	10.0	2899027	COUNTDOWN_START	n/a	n/a	n/a	-999	25	[0, 0, 0]	n/a	FR1	2	R1311T
2637.38	0.006	2909454	COUNTDOWN_END	n/a	n/a	n/a	-999	25	[0, 0, 0]	n/a	FR1	2	R1311T
2637.386	1.6	2909460	ORIENT	n/a	n/a	n/a	-999	25	[0, 0, 0]	n/a	FR1	2	R1311T
2639.803	1.6	2911877	WORD	n/a	wordpools/wordpool_EN.txt	NOSE	1	25	[0, 0, 0]	n/a	FR1	2	R1311T
2642.204	1.6	2914278	WORD	n/a	wordpools/wordpool_EN.txt	TAIL	2	25	[0, 0, 0]	n/a	FR1	2	R1311T
2644.704	1.6	2916778	WORD	n/a	wordpools/wordpool_EN.txt	PIT	3	25	[0, 0, 0]	n/a	FR1	2	R1311T
2647.238	1.6	2919312	WORD	n/a	wordpools/wordpool_EN.txt	PRINCE	4	25	[0, 0, 0]	n/a	FR1	2	R1311T
2649.622	1.6	2921695	WORD	n/a	wordpools/wordpool_EN.txt	MOUSE	5	25	[0, 0, 0]	n/a	FR1	2	R1311T
2652.057	1.6	2924130	WORD	n/a	wordpools/wordpool_EN.txt	SHIELD	6	25	[0, 0, 0]	n/a	FR1	2	R1311T
2654.64	1.6	2926713	WORD	n/a	wordpools/wordpool_EN.txt	ARM	7	25	[0, 0, 0]	n/a	FR1	2	R1311T
2657.108	1.6	2929181	WORD	n/a	wordpools/wordpool_EN.txt	TOE	8	25	[0, 0, 0]	n/a	FR1	2	R1311T
2659.54	1.6	2931613	WORD	n/a	wordpools/wordpool_EN.txt	WALL	9	25	[0, 0, 0]	n/a	FR1	2	R1311T
2662.059	1.6	2934132	WORD	n/a	wordpools/wordpool_EN.txt	SPEAR	10	25	[0, 0, 0]	n/a	FR1	2	R1311T
2664.458	1.6	2936531	WORD	n/a	wordpools/wordpool_EN.txt	HOOF	11	25	[0, 0, 0]	n/a	FR1	2	R1311T
2666.993	1.6	2939065	WORD	n/a	wordpools/wordpool_EN.txt	LAWN	12	25	[0, 0, 0]	n/a	FR1	2	R1311T
2668.609	0.001	2940681	DISTRACT_START	n/a	n/a	n/a	-999	25	[0, 0, 0]	n/a	FR1	2	R1311T
2668.61	0.015	2940682	START	n/a	n/a	n/a	-999	25	[-999, -999, -999]	n/a	FR1	2	R1311T
2668.625	13.169	2940697	PROB	13.144	n/a	n/a	-999	25	[2, 1, 8]	11.0	FR1	2	R1311T
2681.794	4.219	2953866	PROB	4.183	n/a	n/a	-999	25	[1, 9, 2]	12.0	FR1	2	R1311T
2686.013	6.819	2958084	PROB	6.819	n/a	n/a	-999	25	[5, 1, 3]	9.0	FR1	2	R1311T
2692.832	0.014	2964903	STOP	n/a	n/a	n/a	-999	25	[-999, -999, -999]	n/a	FR1	2	R1311T
2692.846	1.119	2964917	DISTRACT_END	n/a	n/a	n/a	-999	25	[0, 0, 0]	n/a	FR1	2	R1311T
2693.965	3.25	2966036	REC_START	n/a	n/a	n/a	-999	25	[0, 0, 0]	n/a	FR1	2	R1311T
2697.215	0.293	2969286	REC_WORD_VV	3.25	n/a	<>	-999	25	[0, 0, 0]	n/a	FR1	2	R1311T
2697.508	1.464	2969579	REC_WORD	3.543	n/a	NOSE	1	25	[0, 0, 0]	n/a	FR1	2	R1311T
2698.972	0.845	2971043	REC_WORD	5.007	n/a	TAIL	2	25	[0, 0, 0]	n/a	FR1	2	R1311T
2699.817	1.693	2971888	REC_WORD	5.852	n/a	PIT	3	25	[0, 0, 0]	n/a	FR1	2	R1311T
2701.51	22.465	2973580	REC_WORD	7.545	n/a	PRINCE	4	25	[0, 0, 0]	n/a	FR1	2	R1311T
2723.975	21.648	2996044	REC_END	n/a	n/a	n/a	-999	25	[0, 0, 0]	n/a	FR1	2	R1311T
2745.623	0.0	3017691	SESS_END	n/a	n/a	n/a	-999	25	[0, 0, 0]	n/a	FR1	2	R1311T
