onset	duration	sample	trial_type	response_time	stim_file	item_name	serialpos	list	test	answer	experiment	session	subject
0.0	120.766	5760	SESS_START	n/a	n/a	n/a	-999	-999	[0, 0, 0]	n/a	FR1	2	R1135E
120.766	10.0	126518	COUNTDOWN_START	n/a	n/a	n/a	-999	-999	[0, 0, 0]	n/a	FR1	2	R1135E
131.194	3.958	136945	COUNTDOWN_END	n/a	n/a	n/a	-999	-999	[0, 0, 0]	n/a	FR1	2	R1135E
135.152	1.6	140903	PRACTICE_WORD	n/a	n/a	WATCH	1	-1	[0, 0, 0]	n/a	FR1	2	R1135E
137.535	1.6	143286	PRACTICE_WORD	n/a	n/a	CHEST	2	-1	[0, 0, 0]	n/a	FR1	2	R1135E
140.053	1.6	145803	PRACTICE_WORD	n/a	n/a	WAGON	3	-1	[0, 0, 0]	n/a	FR1	2	R1135E
142.502	1.6	148252	PRACTICE_WORD	n/a	n/a	FLOOD	4	-1	[0, 0, 0]	n/a	FR1	2	R1135E
144.887	1.6	150637	PRACTICE_WORD	n/a	n/a	BEAM	5	-1	[0, 0, 0]	n/a	FR1	2	R1135E
147.47	1.6	153220	PRACTICE_WORD	n/a	n/a	COTTON	6	-1	[0, 0, 0]	n/a	FR1	2	R1135E
150.004	1.6	155754	PRACTICE_WORD	n/a	n/a	TONGUE	7	-1	[0, 0, 0]	n/a	FR1	2	R1135E
152.437	1.6	158187	PRACTICE_WORD	n/a	n/a	ATTIC	8	-1	[0, 0, 0]	n/a	FR1	2	R1135E
154.988	1.6	160737	PRACTICE_WORD	n/a	n/a	IRON	9	-1	[0, 0, 0]	n/a	FR1	2	R1135E
157.405	1.6	163154	PRACTICE_WORD	n/a	n/a	RING	10	-1	[0, 0, 0]	n/a	FR1	2	R1135E
159.906	1.6	165655	PRACTICE_WORD	n/a	n/a	CAMEL	11	-1	[0, 0, 0]	n/a	FR1	2	R1135E
162.389	1.6	168138	PRACTICE_WORD	n/a	n/a	RHINO	12	-1	[0, 0, 0]	n/a	FR1	2	R1135E
164.007	0.0	169756	PRACTICE_DISTRACT_START	n/a	n/a	n/a	-999	-1	[0, 0, 0]	n/a	FR1	2	R1135E
164.007	0.016	169756	START	n/a	n/a	n/a	-999	-1	[-999, -999, -999]	n/a	FR1	2	R1135E
164.023	17.436	169772	PROB	17.408	n/a	n/a	-999	-1	[7, 6, 6]	18.0	FR1	2	R1135E
181.459	7.461	187207	PROB	7.461	n/a	n/a	-999	-1	[3, 3, 1]	7.0	FR1	2	R1135E
188.92	0.008	194667	STOP	n/a	n/a	n/a	-999	-1	[-999, -999, -999]	n/a	FR1	2	R1135E
188.928	0.685	194675	PRACTICE_DISTRACT_END	n/a	n/a	n/a	-999	-1	[0, 0, 0]	n/a	FR1	2	R1135E
189.613	30.515	195360	PRACTICE_REC_START	n/a	n/a	n/a	-999	-1	[0, 0, 0]	n/a	FR1	2	R1135E
220.128	11.49	225873	PRACTICE_REC_END	n/a	n/a	n/a	-999	-1	[0, 0, 0]	n/a	FR1	2	R1135E
231.618	10.0	237362	COUNTDOWN_START	n/a	n/a	n/a	-999	1	[0, 0, 0]	n/a	FR1	2	R1135E
231.619	10.427	237363	TRIAL	n/a	n/a	n/a	-999	1	[0, 0, 0]	n/a	FR1	2	R1135E
242.046	0.008	247790	COUNTDOWN_END	n/a	n/a	n/a	-999	1	[0, 0, 0]	n/a	FR1	2	R1135E
242.054	1.6	247798	ORIENT	n/a	n/a	n/a	-999	1	[0, 0, 0]	n/a	FR1	2	R1135E
244.52	1.6	250263	WORD	n/a	wordpools/wordpool_EN.txt	COIN	1	1	[0, 0, 0]	n/a	FR1	2	R1135E
246.904	1.6	252647	WORD	n/a	wordpools/wordpool_EN.txt	TOOL	2	1	[0, 0, 0]	n/a	FR1	2	R1135E
249.304	1.6	255047	WORD	n/a	wordpools/wordpool_EN.txt	MAIL	3	1	[0, 0, 0]	n/a	FR1	2	R1135E
251.772	1.6	257515	WORD	n/a	wordpools/wordpool_EN.txt	RAIN	4	1	[0, 0, 0]	n/a	FR1	2	R1135E
254.305	1.6	260048	WORD	n/a	wordpools/wordpool_EN.txt	BANK	5	1	[0, 0, 0]	n/a	FR1	2	R1135E
256.856	1.6	262599	WORD	n/a	wordpools/wordpool_EN.txt	KEY	6	1	[0, 0, 0]	n/a	FR1	2	R1135E
259.472	1.6	265214	WORD	n/a	wordpools/wordpool_EN.txt	ARK	7	1	[0, 0, 0]	n/a	FR1	2	R1135E
262.024	1.6	267766	WORD	n/a	wordpools/wordpool_EN.txt	SHEET	8	1	[0, 0, 0]	n/a	FR1	2	R1135E
264.658	1.6	270400	WORD	n/a	wordpools/wordpool_EN.txt	PHONE	9	1	[0, 0, 0]	n/a	FR1	2	R1135E
267.075	1.6	272817	WORD	n/a	wordpools/wordpool_EN.txt	CLOTH	10	1	[0, 0, 0]	n/a	FR1	2	R1135E
269.474	1.6	275216	WORD	n/a	wordpools/wordpool_EN.txt	BOOK	11	1	[0, 0, 0]	n/a	FR1	2	R1135E
271.942	1.6	277684	WORD	n/a	wordpools/wordpool_EN.txt	RAKE	12	1	[0, 0, 0]	n/a	FR1	2	R1135E
273.559	0.001	279300	DISTRACT_START	n/a	n/a	n/a	-999	1	[0, 0, 0]	n/a	FR1	2	R1135E
273.56	0.016	279301	START	n/a	n/a	n/a	-999	1	[-999, -999, -999]	n/a	FR1	2	R1135E
273.576	13.685	279317	PROB	13.665	n/a	n/a	-999	1	[6, 2, 8]	16.0	FR1	2	R1135E
287.261	6.889	293002	PROB	6.889	n/a	n/a	-999	1	[1, 2, 4]	7.0	FR1	2	R1135E
294.15	0.013	299890	STOP	n/a	n/a	n/a	-999	1	[-999, -999, -999]	n/a	FR1	2	R1135E
294.163	1.194	299903	DISTRACT_END	n/a	n/a	n/a	-999	1	[0, 0, 0]	n/a	FR1	2	R1135E
295.357	2.069	301097	REC_START	n/a	n/a	n/a	-999	1	[0, 0, 0]	n/a	FR1	2	R1135E
297.426	0.807	303166	REC_WORD	2.069	n/a	ARK	7	1	[0, 0, 0]	n/a	FR1	2	R1135E
298.233	3.874	303973	REC_WORD	2.876	n/a	RAIN	4	1	[0, 0, 0]	n/a	FR1	2	R1135E
302.107	23.247	307847	REC_WORD	6.75	n/a	CLOTHE	-999	1	[0, 0, 0]	n/a	FR1	2	R1135E
325.354	3.465	331092	REC_END	n/a	n/a	n/a	-999	1	[0, 0, 0]	n/a	FR1	2	R1135E
328.819	0.0	334557	TRIAL	n/a	n/a	n/a	-999	2	[0, 0, 0]	n/a	FR1	2	R1135E
328.819	10.0	334557	COUNTDOWN_START	n/a	n/a	n/a	-999	2	[0, 0, 0]	n/a	FR1	2	R1135E
339.247	0.006	344984	COUNTDOWN_END	n/a	n/a	n/a	-999	2	[0, 0, 0]	n/a	FR1	2	R1135E
339.253	1.6	344990	ORIENT	n/a	n/a	n/a	-999	2	[0, 0, 0]	n/a	FR1	2	R1135E
341.704	1.6	347441	WORD	n/a	wordpools/wordpool_EN.txt	BRIDGE	1	2	[0, 0, 0]	n/a	FR1	2	R1135E
344.205	1.6	349942	WORD	n/a	wordpools/wordpool_EN.txt	CAKE	2	2	[0, 0, 0]	n/a	FR1	2	R1135E
346.639	1.6	352376	WORD	n/a	wordpools/wordpool_EN.txt	TRAIN	3	2	[0, 0, 0]	n/a	FR1	2	R1135E
349.039	1.6	354775	WORD	n/a	wordpools/wordpool_EN.txt	ICE	4	2	[0, 0, 0]	n/a	FR1	2	R1135E
351.438	1.6	357174	WORD	n/a	wordpools/wordpool_EN.txt	JAIL	5	2	[0, 0, 0]	n/a	FR1	2	R1135E
353.857	1.6	359593	WORD	n/a	wordpools/wordpool_EN.txt	CHAIR	6	2	[0, 0, 0]	n/a	FR1	2	R1135E
356.356	1.6	362092	WORD	n/a	wordpools/wordpool_EN.txt	DART	7	2	[0, 0, 0]	n/a	FR1	2	R1135E
358.807	1.6	364543	WORD	n/a	wordpools/wordpool_EN.txt	BADGE	8	2	[0, 0, 0]	n/a	FR1	2	R1135E
361.34	1.6	367076	WORD	n/a	wordpools/wordpool_EN.txt	CLOCK	9	2	[0, 0, 0]	n/a	FR1	2	R1135E
363.925	1.6	369660	WORD	n/a	wordpools/wordpool_EN.txt	STREET	10	2	[0, 0, 0]	n/a	FR1	2	R1135E
366.308	1.6	372043	WORD	n/a	wordpools/wordpool_EN.txt	MULE	11	2	[0, 0, 0]	n/a	FR1	2	R1135E
368.792	1.6	374527	WORD	n/a	wordpools/wordpool_EN.txt	BENCH	12	2	[0, 0, 0]	n/a	FR1	2	R1135E
370.408	0.001	376143	DISTRACT_START	n/a	n/a	n/a	-999	2	[0, 0, 0]	n/a	FR1	2	R1135E
370.409	0.016	376144	START	n/a	n/a	n/a	-999	2	[-999, -999, -999]	n/a	FR1	2	R1135E
370.425	10.102	376160	PROB	10.068	n/a	n/a	-999	2	[7, 4, 1]	12.0	FR1	2	R1135E
380.527	12.726	386261	PROB	12.726	n/a	n/a	-999	2	[4, 7, 9]	19.0	FR1	2	R1135E
393.253	0.009	398986	STOP	n/a	n/a	n/a	-999	2	[-999, -999, -999]	n/a	FR1	2	R1135E
393.262	1.068	398995	DISTRACT_END	n/a	n/a	n/a	-999	2	[0, 0, 0]	n/a	FR1	2	R1135E
394.33	13.351	400063	REC_START	n/a	n/a	n/a	-999	2	[0, 0, 0]	n/a	FR1	2	R1135E
407.681	4.273	413413	REC_WORD	13.351	n/a	TRAIN	3	2	[0, 0, 0]	n/a	FR1	2	R1135E
411.954	12.384	417686	REC_WORD_VV	17.624	n/a	<>	-999	2	[0, 0, 0]	n/a	FR1	2	R1135E
424.338	3.98	430069	REC_END	n/a	n/a	n/a	-999	2	[0, 0, 0]	n/a	FR1	2	R1135E
428.318	10.0	434049	COUNTDOWN_START	n/a	n/a	n/a	-999	3	[0, 0, 0]	n/a	FR1	2	R1135E
428.319	10.427	434050	TRIAL	n/a	n/a	n/a	-999	3	[0, 0, 0]	n/a	FR1	2	R1135E
438.746	0.009	444476	COUNTDOWN_END	n/a	n/a	n/a	-999	3	[0, 0, 0]	n/a	FR1	2	R1135E
438.755	1.6	444485	ORIENT	n/a	n/a	n/a	-999	3	[0, 0, 0]	n/a	FR1	2	R1135E
441.138	1.6	446868	WORD	n/a	wordpools/wordpool_EN.txt	CHIN	1	3	[0, 0, 0]	n/a	FR1	2	R1135E
443.538	1.6	449268	WORD	n/a	wordpools/wordpool_EN.txt	FORK	2	3	[0, 0, 0]	n/a	FR1	2	R1135E
446.139	1.6	451869	WORD	n/a	wordpools/wordpool_EN.txt	OAR	3	3	[0, 0, 0]	n/a	FR1	2	R1135E
448.656	1.6	454386	WORD	n/a	wordpools/wordpool_EN.txt	DOLL	4	3	[0, 0, 0]	n/a	FR1	2	R1135E
451.107	1.6	456837	WORD	n/a	wordpools/wordpool_EN.txt	DEER	5	3	[0, 0, 0]	n/a	FR1	2	R1135E
453.707	1.6	459436	WORD	n/a	wordpools/wordpool_EN.txt	SEAL	6	3	[0, 0, 0]	n/a	FR1	2	R1135E
456.323	1.6	462052	WORD	n/a	wordpools/wordpool_EN.txt	PET	7	3	[0, 0, 0]	n/a	FR1	2	R1135E
458.741	1.6	464470	WORD	n/a	wordpools/wordpool_EN.txt	BRUSH	8	3	[0, 0, 0]	n/a	FR1	2	R1135E
461.258	1.6	466987	WORD	n/a	wordpools/wordpool_EN.txt	GOAT	9	3	[0, 0, 0]	n/a	FR1	2	R1135E
463.692	1.6	469421	WORD	n/a	wordpools/wordpool_EN.txt	DOG	10	3	[0, 0, 0]	n/a	FR1	2	R1135E
466.126	1.6	471855	WORD	n/a	wordpools/wordpool_EN.txt	CAT	11	3	[0, 0, 0]	n/a	FR1	2	R1135E
468.593	1.6	474321	WORD	n/a	wordpools/wordpool_EN.txt	SOUP	12	3	[0, 0, 0]	n/a	FR1	2	R1135E
470.21	0.001	475938	DISTRACT_START	n/a	n/a	n/a	-999	3	[0, 0, 0]	n/a	FR1	2	R1135E
470.211	0.016	475939	START	n/a	n/a	n/a	-999	3	[-999, -999, -999]	n/a	FR1	2	R1135E
470.227	17.453	475955	PROB	17.422	n/a	n/a	-999	3	[9, 6, 7]	22.0	FR1	2	R1135E
487.68	14.224	493407	PROB	14.224	n/a	n/a	-999	3	[5, 9, 5]	19.0	FR1	2	R1135E
501.904	0.012	507630	STOP	n/a	n/a	n/a	-999	3	[-999, -999, -999]	n/a	FR1	2	R1135E
501.916	1.167	507642	DISTRACT_END	n/a	n/a	n/a	-999	3	[0, 0, 0]	n/a	FR1	2	R1135E
503.083	30.0	508809	REC_START	n/a	n/a	n/a	-999	3	[0, 0, 0]	n/a	FR1	2	R1135E
533.083	0.008	538807	REC_WORD_VV	30.0	n/a	<>	-999	3	[0, 0, 0]	n/a	FR1	2	R1135E
533.091	3.747	538815	REC_END	n/a	n/a	n/a	-999	3	[0, 0, 0]	n/a	FR1	2	R1135E
536.838	10.0	542562	COUNTDOWN_START	n/a	n/a	n/a	-999	4	[0, 0, 0]	n/a	FR1	2	R1135E
536.839	10.427	542563	TRIAL	n/a	n/a	n/a	-999	4	[0, 0, 0]	n/a	FR1	2	R1135E
547.266	0.007	552989	COUNTDOWN_END	n/a	n/a	n/a	-999	4	[0, 0, 0]	n/a	FR1	2	R1135E
547.273	1.6	552996	ORIENT	n/a	n/a	n/a	-999	4	[0, 0, 0]	n/a	FR1	2	R1135E
549.657	1.6	555380	WORD	n/a	wordpools/wordpool_EN.txt	WHEEL	1	4	[0, 0, 0]	n/a	FR1	2	R1135E
552.058	1.6	557781	WORD	n/a	wordpools/wordpool_EN.txt	PIN	2	4	[0, 0, 0]	n/a	FR1	2	R1135E
554.625	1.6	560348	WORD	n/a	wordpools/wordpool_EN.txt	BAND	3	4	[0, 0, 0]	n/a	FR1	2	R1135E
557.225	1.6	562947	WORD	n/a	wordpools/wordpool_EN.txt	WAND	4	4	[0, 0, 0]	n/a	FR1	2	R1135E
559.826	1.6	565548	WORD	n/a	wordpools/wordpool_EN.txt	SKY	5	4	[0, 0, 0]	n/a	FR1	2	R1135E
562.209	1.6	567931	WORD	n/a	wordpools/wordpool_EN.txt	POLE	6	4	[0, 0, 0]	n/a	FR1	2	R1135E
564.743	1.6	570465	WORD	n/a	wordpools/wordpool_EN.txt	GLASS	7	4	[0, 0, 0]	n/a	FR1	2	R1135E
567.21	1.6	572932	WORD	n/a	wordpools/wordpool_EN.txt	LAWN	8	4	[0, 0, 0]	n/a	FR1	2	R1135E
569.661	1.6	575383	WORD	n/a	wordpools/wordpool_EN.txt	HOUSE	9	4	[0, 0, 0]	n/a	FR1	2	R1135E
572.178	1.6	577899	WORD	n/a	wordpools/wordpool_EN.txt	LOCK	10	4	[0, 0, 0]	n/a	FR1	2	R1135E
574.778	1.6	580499	WORD	n/a	wordpools/wordpool_EN.txt	CART	11	4	[0, 0, 0]	n/a	FR1	2	R1135E
577.344	1.6	583065	WORD	n/a	wordpools/wordpool_EN.txt	BED	12	4	[0, 0, 0]	n/a	FR1	2	R1135E
578.945	0.001	584666	DISTRACT_START	n/a	n/a	n/a	-999	4	[0, 0, 0]	n/a	FR1	2	R1135E
578.946	0.016	584667	START	n/a	n/a	n/a	-999	4	[-999, -999, -999]	n/a	FR1	2	R1135E
578.962	10.334	584683	PROB	10.3	n/a	n/a	-999	4	[7, 2, 3]	12.0	FR1	2	R1135E
589.296	12.167	595016	PROB	12.167	n/a	n/a	-999	4	[7, 5, 4]	16.0	FR1	2	R1135E
601.463	0.019	607182	STOP	n/a	n/a	n/a	-999	4	[-999, -999, -999]	n/a	FR1	2	R1135E
601.482	1.218	607201	DISTRACT_END	n/a	n/a	n/a	-999	4	[0, 0, 0]	n/a	FR1	2	R1135E
602.7	2.264	608419	REC_START	n/a	n/a	n/a	-999	4	[0, 0, 0]	n/a	FR1	2	R1135E
604.964	3.018	610683	REC_WORD	2.264	n/a	HOUSE	9	4	[0, 0, 0]	n/a	FR1	2	R1135E
607.982	6.124	613701	REC_WORD	5.282	n/a	BED	12	4	[0, 0, 0]	n/a	FR1	2	R1135E
614.106	18.606	619825	REC_WORD	11.406	n/a	DOG	-999	4	[0, 0, 0]	n/a	FR1	2	R1135E
632.712	3.177	638429	REC_END	n/a	n/a	n/a	-999	4	[0, 0, 0]	n/a	FR1	2	R1135E
635.889	0.0	641606	TRIAL	n/a	n/a	n/a	-999	5	[0, 0, 0]	n/a	FR1	2	R1135E
635.889	10.0	641606	COUNTDOWN_START	n/a	n/a	n/a	-999	5	[0, 0, 0]	n/a	FR1	2	R1135E
646.317	0.006	652033	COUNTDOWN_END	n/a	n/a	n/a	-999	5	[0, 0, 0]	n/a	FR1	2	R1135E
646.323	1.6	652039	ORIENT	n/a	n/a	n/a	-999	5	[0, 0, 0]	n/a	FR1	2	R1135E
648.941	1.6	654657	WORD	n/a	wordpools/wordpool_EN.txt	MOUSE	1	5	[0, 0, 0]	n/a	FR1	2	R1135E
651.357	1.6	657073	WORD	n/a	wordpools/wordpool_EN.txt	SHELL	2	5	[0, 0, 0]	n/a	FR1	2	R1135E
653.909	1.6	659625	WORD	n/a	wordpools/wordpool_EN.txt	HORN	3	5	[0, 0, 0]	n/a	FR1	2	R1135E
656.525	1.6	662241	WORD	n/a	wordpools/wordpool_EN.txt	WALL	4	5	[0, 0, 0]	n/a	FR1	2	R1135E
659.126	1.6	664842	WORD	n/a	wordpools/wordpool_EN.txt	BEAN	5	5	[0, 0, 0]	n/a	FR1	2	R1135E
661.509	1.6	667224	WORD	n/a	wordpools/wordpool_EN.txt	SUIT	6	5	[0, 0, 0]	n/a	FR1	2	R1135E
664.077	1.6	669792	WORD	n/a	wordpools/wordpool_EN.txt	PEAR	7	5	[0, 0, 0]	n/a	FR1	2	R1135E
666.493	1.6	672208	WORD	n/a	wordpools/wordpool_EN.txt	MOOSE	8	5	[0, 0, 0]	n/a	FR1	2	R1135E
668.911	1.6	674626	WORD	n/a	wordpools/wordpool_EN.txt	RAT	9	5	[0, 0, 0]	n/a	FR1	2	R1135E
671.411	1.6	677126	WORD	n/a	wordpools/wordpool_EN.txt	EGG	10	5	[0, 0, 0]	n/a	FR1	2	R1135E
673.846	1.6	679561	WORD	n/a	wordpools/wordpool_EN.txt	RUG	11	5	[0, 0, 0]	n/a	FR1	2	R1135E
676.462	1.6	682176	WORD	n/a	wordpools/wordpool_EN.txt	SHIELD	12	5	[0, 0, 0]	n/a	FR1	2	R1135E
678.08	0.0	683794	DISTRACT_START	n/a	n/a	n/a	-999	5	[0, 0, 0]	n/a	FR1	2	R1135E
678.08	0.016	683794	START	n/a	n/a	n/a	-999	5	[-999, -999, -999]	n/a	FR1	2	R1135E
678.096	10.619	683810	PROB	10.583	n/a	n/a	-999	5	[1, 6, 4]	11.0	FR1	2	R1135E
688.715	10.987	694429	PROB	10.987	n/a	n/a	-999	5	[5, 1, 9]	15.0	FR1	2	R1135E
699.702	0.015	705415	STOP	n/a	n/a	n/a	-999	5	[-999, -999, -999]	n/a	FR1	2	R1135E
699.717	1.201	705430	DISTRACT_END	n/a	n/a	n/a	-999	5	[0, 0, 0]	n/a	FR1	2	R1135E
700.918	10.174	706631	REC_START	n/a	n/a	n/a	-999	5	[0, 0, 0]	n/a	FR1	2	R1135E
711.092	3.527	716804	REC_WORD	10.174	n/a	BED	-999	5	[0, 0, 0]	n/a	FR1	2	R1135E
714.619	16.307	720331	REC_WORD_VV	13.701	n/a	<>	-999	5	[0, 0, 0]	n/a	FR1	2	R1135E
730.926	4.73	736637	REC_END	n/a	n/a	n/a	-999	5	[0, 0, 0]	n/a	FR1	2	R1135E
735.656	0.0	741366	TRIAL	n/a	n/a	n/a	-999	6	[0, 0, 0]	n/a	FR1	2	R1135E
735.656	10.0	741366	COUNTDOWN_START	n/a	n/a	n/a	-999	6	[0, 0, 0]	n/a	FR1	2	R1135E
746.084	0.008	751794	COUNTDOWN_END	n/a	n/a	n/a	-999	6	[0, 0, 0]	n/a	FR1	2	R1135E
746.092	1.6	751802	ORIENT	n/a	n/a	n/a	-999	6	[0, 0, 0]	n/a	FR1	2	R1135E
748.559	1.6	754269	WORD	n/a	wordpools/wordpool_EN.txt	FLAME	1	6	[0, 0, 0]	n/a	FR1	2	R1135E
751.026	1.6	756735	WORD	n/a	wordpools/wordpool_EN.txt	JET	2	6	[0, 0, 0]	n/a	FR1	2	R1135E
753.593	1.6	759302	WORD	n/a	wordpools/wordpool_EN.txt	FUR	3	6	[0, 0, 0]	n/a	FR1	2	R1135E
756.177	1.6	761886	WORD	n/a	wordpools/wordpool_EN.txt	SNOW	4	6	[0, 0, 0]	n/a	FR1	2	R1135E
758.727	1.6	764436	WORD	n/a	wordpools/wordpool_EN.txt	PLANE	5	6	[0, 0, 0]	n/a	FR1	2	R1135E
761.211	1.6	766920	WORD	n/a	wordpools/wordpool_EN.txt	CAPE	6	6	[0, 0, 0]	n/a	FR1	2	R1135E
763.745	1.6	769454	WORD	n/a	wordpools/wordpool_EN.txt	DUCK	7	6	[0, 0, 0]	n/a	FR1	2	R1135E
766.361	1.6	772069	WORD	n/a	wordpools/wordpool_EN.txt	SHARK	8	6	[0, 0, 0]	n/a	FR1	2	R1135E
768.812	1.6	774520	WORD	n/a	wordpools/wordpool_EN.txt	STORM	9	6	[0, 0, 0]	n/a	FR1	2	R1135E
771.278	1.6	776986	WORD	n/a	wordpools/wordpool_EN.txt	SPRING	10	6	[0, 0, 0]	n/a	FR1	2	R1135E
773.646	1.6	779354	WORD	n/a	wordpools/wordpool_EN.txt	HAWK	11	6	[0, 0, 0]	n/a	FR1	2	R1135E
776.063	1.6	781771	WORD	n/a	wordpools/wordpool_EN.txt	WOLF	12	6	[0, 0, 0]	n/a	FR1	2	R1135E
777.68	0.001	783388	DISTRACT_START	n/a	n/a	n/a	-999	6	[0, 0, 0]	n/a	FR1	2	R1135E
777.681	0.016	783389	START	n/a	n/a	n/a	-999	6	[-999, -999, -999]	n/a	FR1	2	R1135E
777.697	9.684	783405	PROB	9.653	n/a	n/a	-999	6	[4, 4, 8]	16.0	FR1	2	R1135E
787.381	8.519	793088	PROB	8.488	n/a	n/a	-999	6	[3, 6, 2]	11.0	FR1	2	R1135E
795.9	12.12	801606	PROB	12.12	n/a	n/a	-999	6	[9, 4, 3]	16.0	FR1	2	R1135E
808.02	0.016	813726	STOP	n/a	n/a	n/a	-999	6	[-999, -999, -999]	n/a	FR1	2	R1135E
808.036	1.084	813742	DISTRACT_END	n/a	n/a	n/a	-999	6	[0, 0, 0]	n/a	FR1	2	R1135E
809.12	12.005	814825	REC_START	n/a	n/a	n/a	-999	6	[0, 0, 0]	n/a	FR1	2	R1135E
821.125	8.489	826830	REC_WORD	12.005	n/a	WALK	-999	6	[0, 0, 0]	n/a	FR1	2	R1135E
829.614	9.514	835318	REC_WORD	20.494	n/a	JET	2	6	[0, 0, 0]	n/a	FR1	2	R1135E
839.128	3.246	844831	REC_END	n/a	n/a	n/a	-999	6	[0, 0, 0]	n/a	FR1	2	R1135E
842.374	10.0	848077	COUNTDOWN_START	n/a	n/a	n/a	-999	7	[0, 0, 0]	n/a	FR1	2	R1135E
842.374	10.428	848077	TRIAL	n/a	n/a	n/a	-999	7	[0, 0, 0]	n/a	FR1	2	R1135E
852.802	0.008	858505	COUNTDOWN_END	n/a	n/a	n/a	-999	7	[0, 0, 0]	n/a	FR1	2	R1135E
852.81	1.6	858513	ORIENT	n/a	n/a	n/a	-999	7	[0, 0, 0]	n/a	FR1	2	R1135E
855.343	1.6	861045	WORD	n/a	wordpools/wordpool_EN.txt	STEAM	1	7	[0, 0, 0]	n/a	FR1	2	R1135E
857.961	1.6	863663	WORD	n/a	wordpools/wordpool_EN.txt	POOL	2	7	[0, 0, 0]	n/a	FR1	2	R1135E
860.361	1.6	866063	WORD	n/a	wordpools/wordpool_EN.txt	BATH	3	7	[0, 0, 0]	n/a	FR1	2	R1135E
862.862	1.6	868564	WORD	n/a	wordpools/wordpool_EN.txt	DOOR	4	7	[0, 0, 0]	n/a	FR1	2	R1135E
865.295	1.6	870997	WORD	n/a	wordpools/wordpool_EN.txt	BUSH	5	7	[0, 0, 0]	n/a	FR1	2	R1135E
867.846	1.6	873548	WORD	n/a	wordpools/wordpool_EN.txt	ROOF	6	7	[0, 0, 0]	n/a	FR1	2	R1135E
870.329	1.6	876030	WORD	n/a	wordpools/wordpool_EN.txt	FENCE	7	7	[0, 0, 0]	n/a	FR1	2	R1135E
872.83	1.6	878531	WORD	n/a	wordpools/wordpool_EN.txt	ROPE	8	7	[0, 0, 0]	n/a	FR1	2	R1135E
875.363	1.6	881064	WORD	n/a	wordpools/wordpool_EN.txt	SALT	9	7	[0, 0, 0]	n/a	FR1	2	R1135E
877.948	1.6	883649	WORD	n/a	wordpools/wordpool_EN.txt	SPOON	10	7	[0, 0, 0]	n/a	FR1	2	R1135E
880.397	1.6	886098	WORD	n/a	wordpools/wordpool_EN.txt	PIPE	11	7	[0, 0, 0]	n/a	FR1	2	R1135E
882.865	1.6	888566	WORD	n/a	wordpools/wordpool_EN.txt	FROG	12	7	[0, 0, 0]	n/a	FR1	2	R1135E
884.481	0.001	890181	DISTRACT_START	n/a	n/a	n/a	-999	7	[0, 0, 0]	n/a	FR1	2	R1135E
884.482	0.016	890182	START	n/a	n/a	n/a	-999	7	[-999, -999, -999]	n/a	FR1	2	R1135E
884.498	9.72	890198	PROB	9.691	n/a	n/a	-999	7	[9, 1, 9]	19.0	FR1	2	R1135E
894.218	15.392	899918	PROB	15.392	n/a	n/a	-999	7	[9, 9, 7]	25.0	FR1	2	R1135E
909.61	0.01	915309	STOP	n/a	n/a	n/a	-999	7	[-999, -999, -999]	n/a	FR1	2	R1135E
909.62	1.184	915319	DISTRACT_END	n/a	n/a	n/a	-999	7	[0, 0, 0]	n/a	FR1	2	R1135E
910.804	24.292	916503	REC_START	n/a	n/a	n/a	-999	7	[0, 0, 0]	n/a	FR1	2	R1135E
935.096	5.721	940793	REC_WORD	24.292	n/a	FOOD	-999	7	[0, 0, 0]	n/a	FR1	2	R1135E
940.817	4.359	946514	REC_END	n/a	n/a	n/a	-999	7	[0, 0, 0]	n/a	FR1	2	R1135E
945.176	10.0	950872	COUNTDOWN_START	n/a	n/a	n/a	-999	8	[0, 0, 0]	n/a	FR1	2	R1135E
945.177	10.427	950873	TRIAL	n/a	n/a	n/a	-999	8	[0, 0, 0]	n/a	FR1	2	R1135E
955.604	0.007	961300	COUNTDOWN_END	n/a	n/a	n/a	-999	8	[0, 0, 0]	n/a	FR1	2	R1135E
955.611	1.6	961307	ORIENT	n/a	n/a	n/a	-999	8	[0, 0, 0]	n/a	FR1	2	R1135E
957.995	1.6	963690	WORD	n/a	wordpools/wordpool_EN.txt	JUICE	1	8	[0, 0, 0]	n/a	FR1	2	R1135E
960.428	1.6	966123	WORD	n/a	wordpools/wordpool_EN.txt	PEARL	2	8	[0, 0, 0]	n/a	FR1	2	R1135E
962.846	1.6	968541	WORD	n/a	wordpools/wordpool_EN.txt	SMILE	3	8	[0, 0, 0]	n/a	FR1	2	R1135E
965.312	1.6	971007	WORD	n/a	wordpools/wordpool_EN.txt	RIB	4	8	[0, 0, 0]	n/a	FR1	2	R1135E
967.864	1.6	973559	WORD	n/a	wordpools/wordpool_EN.txt	WORM	5	8	[0, 0, 0]	n/a	FR1	2	R1135E
970.263	1.6	975958	WORD	n/a	wordpools/wordpool_EN.txt	SNAIL	6	8	[0, 0, 0]	n/a	FR1	2	R1135E
972.865	1.6	978559	WORD	n/a	wordpools/wordpool_EN.txt	MOLE	7	8	[0, 0, 0]	n/a	FR1	2	R1135E
975.364	1.6	981058	WORD	n/a	wordpools/wordpool_EN.txt	BEE	8	8	[0, 0, 0]	n/a	FR1	2	R1135E
977.782	1.6	983476	WORD	n/a	wordpools/wordpool_EN.txt	FLEA	9	8	[0, 0, 0]	n/a	FR1	2	R1135E
980.398	1.6	986092	WORD	n/a	wordpools/wordpool_EN.txt	TOAD	10	8	[0, 0, 0]	n/a	FR1	2	R1135E
982.849	1.6	988543	WORD	n/a	wordpools/wordpool_EN.txt	TOOTH	11	8	[0, 0, 0]	n/a	FR1	2	R1135E
985.332	1.6	991026	WORD	n/a	wordpools/wordpool_EN.txt	ANT	12	8	[0, 0, 0]	n/a	FR1	2	R1135E
986.933	0.001	992627	DISTRACT_START	n/a	n/a	n/a	-999	8	[0, 0, 0]	n/a	FR1	2	R1135E
986.934	0.016	992628	START	n/a	n/a	n/a	-999	8	[-999, -999, -999]	n/a	FR1	2	R1135E
986.95	8.719	992644	PROB	8.688	n/a	n/a	-999	8	[2, 7, 2]	11.0	FR1	2	R1135E
995.669	11.151	1001362	PROB	11.129	n/a	n/a	-999	8	[4, 3, 8]	15.0	FR1	2	R1135E
1006.82	5.98	1012512	PROB	5.98	n/a	n/a	-999	8	[2, 4, 4]	11.0	FR1	2	R1135E
1012.8	0.005	1018492	STOP	n/a	n/a	n/a	-999	8	[-999, -999, -999]	n/a	FR1	2	R1135E
1012.805	1.051	1018497	DISTRACT_END	n/a	n/a	n/a	-999	8	[0, 0, 0]	n/a	FR1	2	R1135E
1013.856	5.669	1019548	REC_START	n/a	n/a	n/a	-999	8	[0, 0, 0]	n/a	FR1	2	R1135E
1019.525	8.185	1025216	REC_WORD	5.669	n/a	FLEA	9	8	[0, 0, 0]	n/a	FR1	2	R1135E
1027.71	5.214	1033401	REC_WORD	13.854	n/a	DOG	-999	8	[0, 0, 0]	n/a	FR1	2	R1135E
1032.924	4.044	1038614	REC_WORD	19.068	n/a	PEARL	2	8	[0, 0, 0]	n/a	FR1	2	R1135E
1036.968	6.896	1042658	REC_WORD	23.112	n/a	POOL	-999	8	[0, 0, 0]	n/a	FR1	2	R1135E
1043.864	3.18	1049554	REC_END	n/a	n/a	n/a	-999	8	[0, 0, 0]	n/a	FR1	2	R1135E
1047.044	10.0	1052733	COUNTDOWN_START	n/a	n/a	n/a	-999	9	[0, 0, 0]	n/a	FR1	2	R1135E
1047.044	10.428	1052733	TRIAL	n/a	n/a	n/a	-999	9	[0, 0, 0]	n/a	FR1	2	R1135E
1057.472	0.006	1063161	COUNTDOWN_END	n/a	n/a	n/a	-999	9	[0, 0, 0]	n/a	FR1	2	R1135E
1057.478	1.6	1063167	ORIENT	n/a	n/a	n/a	-999	9	[0, 0, 0]	n/a	FR1	2	R1135E
1059.996	1.6	1065685	WORD	n/a	wordpools/wordpool_EN.txt	STORE	1	9	[0, 0, 0]	n/a	FR1	2	R1135E
1062.614	1.6	1068302	WORD	n/a	wordpools/wordpool_EN.txt	VASE	2	9	[0, 0, 0]	n/a	FR1	2	R1135E
1065.181	1.6	1070869	WORD	n/a	wordpools/wordpool_EN.txt	FRUIT	3	9	[0, 0, 0]	n/a	FR1	2	R1135E
1067.781	1.6	1073469	WORD	n/a	wordpools/wordpool_EN.txt	PURSE	4	9	[0, 0, 0]	n/a	FR1	2	R1135E
1070.364	1.6	1076052	WORD	n/a	wordpools/wordpool_EN.txt	DESK	5	9	[0, 0, 0]	n/a	FR1	2	R1135E
1072.749	1.6	1078437	WORD	n/a	wordpools/wordpool_EN.txt	TEA	6	9	[0, 0, 0]	n/a	FR1	2	R1135E
1075.331	1.6	1081019	WORD	n/a	wordpools/wordpool_EN.txt	LIP	7	9	[0, 0, 0]	n/a	FR1	2	R1135E
1077.9	1.6	1083587	WORD	n/a	wordpools/wordpool_EN.txt	LAMB	8	9	[0, 0, 0]	n/a	FR1	2	R1135E
1080.349	1.6	1086036	WORD	n/a	wordpools/wordpool_EN.txt	PLANT	9	9	[0, 0, 0]	n/a	FR1	2	R1135E
1082.967	1.6	1088654	WORD	n/a	wordpools/wordpool_EN.txt	PEACH	10	9	[0, 0, 0]	n/a	FR1	2	R1135E
1085.517	1.6	1091204	WORD	n/a	wordpools/wordpool_EN.txt	APE	11	9	[0, 0, 0]	n/a	FR1	2	R1135E
1088.151	1.6	1093838	WORD	n/a	wordpools/wordpool_EN.txt	FOOD	12	9	[0, 0, 0]	n/a	FR1	2	R1135E
1089.768	0.001	1095455	DISTRACT_START	n/a	n/a	n/a	-999	9	[0, 0, 0]	n/a	FR1	2	R1135E
1089.769	0.016	1095456	START	n/a	n/a	n/a	-999	9	[-999, -999, -999]	n/a	FR1	2	R1135E
1089.785	13.751	1095472	PROB	13.73	n/a	n/a	-999	9	[9, 5, 1]	15.0	FR1	2	R1135E
1103.536	11.805	1109222	PROB	11.805	n/a	n/a	-999	9	[4, 8, 6]	18.0	FR1	2	R1135E
1115.341	0.014	1121026	STOP	n/a	n/a	n/a	-999	9	[-999, -999, -999]	n/a	FR1	2	R1135E
1115.355	1.218	1121040	DISTRACT_END	n/a	n/a	n/a	-999	9	[0, 0, 0]	n/a	FR1	2	R1135E
1116.573	2.463	1122258	REC_START	n/a	n/a	n/a	-999	9	[0, 0, 0]	n/a	FR1	2	R1135E
1119.036	3.113	1124721	REC_WORD	2.463	n/a	FOOD	12	9	[0, 0, 0]	n/a	FR1	2	R1135E
1122.149	2.183	1127833	REC_WORD_VV	5.576	n/a	<>	-999	9	[0, 0, 0]	n/a	FR1	2	R1135E
1124.332	6.583	1130016	REC_WORD	7.759	n/a	JAR	-999	9	[0, 0, 0]	n/a	FR1	2	R1135E
1130.915	15.67	1136599	REC_WORD	14.342	n/a	PEACH	10	9	[0, 0, 0]	n/a	FR1	2	R1135E
1146.585	289.143	1152268	REC_END	n/a	n/a	n/a	-999	9	[0, 0, 0]	n/a	FR1	2	R1135E
1435.728	23.171	1441391	SESS_START	n/a	n/a	n/a	-999	9	[0, 0, 0]	n/a	FR1	2	R1135E
1458.899	0.0	1464561	TRIAL	n/a	n/a	n/a	-999	10	[0, 0, 0]	n/a	FR1	2	R1135E
1458.899	10.0	1464561	COUNTDOWN_START	n/a	n/a	n/a	-999	10	[0, 0, 0]	n/a	FR1	2	R1135E
1469.327	0.007	1474988	COUNTDOWN_END	n/a	n/a	n/a	-999	10	[0, 0, 0]	n/a	FR1	2	R1135E
1469.334	1.6	1474995	ORIENT	n/a	n/a	n/a	-999	10	[0, 0, 0]	n/a	FR1	2	R1135E
1471.901	1.6	1477562	WORD	n/a	wordpools/wordpool_EN.txt	TRAY	1	10	[0, 0, 0]	n/a	FR1	2	R1135E
1474.435	1.6	1480096	WORD	n/a	wordpools/wordpool_EN.txt	ROSE	2	10	[0, 0, 0]	n/a	FR1	2	R1135E
1476.885	1.6	1482546	WORD	n/a	wordpools/wordpool_EN.txt	BEACH	3	10	[0, 0, 0]	n/a	FR1	2	R1135E
1479.353	1.6	1485013	WORD	n/a	wordpools/wordpool_EN.txt	BOAT	4	10	[0, 0, 0]	n/a	FR1	2	R1135E
1481.87	1.6	1487530	WORD	n/a	wordpools/wordpool_EN.txt	LEG	5	10	[0, 0, 0]	n/a	FR1	2	R1135E
1484.47	1.6	1490130	WORD	n/a	wordpools/wordpool_EN.txt	SUN	6	10	[0, 0, 0]	n/a	FR1	2	R1135E
1486.937	1.6	1492597	WORD	n/a	wordpools/wordpool_EN.txt	FLOOR	7	10	[0, 0, 0]	n/a	FR1	2	R1135E
1489.404	1.6	1495064	WORD	n/a	wordpools/wordpool_EN.txt	RICE	8	10	[0, 0, 0]	n/a	FR1	2	R1135E
1491.871	1.6	1497531	WORD	n/a	wordpools/wordpool_EN.txt	DRUM	9	10	[0, 0, 0]	n/a	FR1	2	R1135E
1494.255	1.6	1499914	WORD	n/a	wordpools/wordpool_EN.txt	STAIR	10	10	[0, 0, 0]	n/a	FR1	2	R1135E
1496.689	1.6	1502348	WORD	n/a	wordpools/wordpool_EN.txt	VEST	11	10	[0, 0, 0]	n/a	FR1	2	R1135E
1499.189	1.6	1504848	WORD	n/a	wordpools/wordpool_EN.txt	TOY	12	10	[0, 0, 0]	n/a	FR1	2	R1135E
1500.806	0.001	1506465	DISTRACT_START	n/a	n/a	n/a	-999	10	[0, 0, 0]	n/a	FR1	2	R1135E
1500.807	0.016	1506466	START	n/a	n/a	n/a	-999	10	[-999, -999, -999]	n/a	FR1	2	R1135E
1500.823	15.668	1506482	PROB	15.645	n/a	n/a	-999	10	[7, 4, 5]	16.0	FR1	2	R1135E
1516.491	14.152	1522149	PROB	14.152	n/a	n/a	-999	10	[7, 6, 4]	17.0	FR1	2	R1135E
1530.643	0.019	1536300	STOP	n/a	n/a	n/a	-999	10	[-999, -999, -999]	n/a	FR1	2	R1135E
1530.662	1.134	1536319	DISTRACT_END	n/a	n/a	n/a	-999	10	[0, 0, 0]	n/a	FR1	2	R1135E
1531.796	1.49	1537453	REC_START	n/a	n/a	n/a	-999	10	[0, 0, 0]	n/a	FR1	2	R1135E
1533.286	1.108	1538943	REC_WORD	1.49	n/a	ROSE	2	10	[0, 0, 0]	n/a	FR1	2	R1135E
1534.394	3.415	1540051	REC_WORD	2.598	n/a	BOAT	4	10	[0, 0, 0]	n/a	FR1	2	R1135E
1537.809	0.561	1543465	REC_WORD_VV	6.013	n/a	<>	-999	10	[0, 0, 0]	n/a	FR1	2	R1135E
1538.37	3.482	1544026	REC_WORD	6.574	n/a	FLOAT	-999	10	[0, 0, 0]	n/a	FR1	2	R1135E
1541.852	4.708	1547508	REC_WORD_VV	10.056	n/a	<>	-999	10	[0, 0, 0]	n/a	FR1	2	R1135E
1546.56	15.245	1552216	REC_WORD	14.764	n/a	OAK	-999	10	[0, 0, 0]	n/a	FR1	2	R1135E
1561.805	3.513	1567460	REC_END	n/a	n/a	n/a	-999	10	[0, 0, 0]	n/a	FR1	2	R1135E
1565.318	0.0	1570973	TRIAL	n/a	n/a	n/a	-999	11	[0, 0, 0]	n/a	FR1	2	R1135E
1565.318	10.0	1570973	COUNTDOWN_START	n/a	n/a	n/a	-999	11	[0, 0, 0]	n/a	FR1	2	R1135E
1575.746	0.007	1581400	COUNTDOWN_END	n/a	n/a	n/a	-999	11	[0, 0, 0]	n/a	FR1	2	R1135E
1575.753	1.6	1581407	ORIENT	n/a	n/a	n/a	-999	11	[0, 0, 0]	n/a	FR1	2	R1135E
1578.153	1.6	1583807	WORD	n/a	wordpools/wordpool_EN.txt	HOOK	1	11	[0, 0, 0]	n/a	FR1	2	R1135E
1580.754	1.6	1586408	WORD	n/a	wordpools/wordpool_EN.txt	CORD	2	11	[0, 0, 0]	n/a	FR1	2	R1135E
1583.187	1.6	1588840	WORD	n/a	wordpools/wordpool_EN.txt	LAMP	3	11	[0, 0, 0]	n/a	FR1	2	R1135E
1585.788	1.6	1591441	WORD	n/a	wordpools/wordpool_EN.txt	SLUSH	4	11	[0, 0, 0]	n/a	FR1	2	R1135E
1588.171	1.6	1593824	WORD	n/a	wordpools/wordpool_EN.txt	SOCK	5	11	[0, 0, 0]	n/a	FR1	2	R1135E
1590.722	1.6	1596375	WORD	n/a	wordpools/wordpool_EN.txt	CAGE	6	11	[0, 0, 0]	n/a	FR1	2	R1135E
1593.123	1.6	1598776	WORD	n/a	wordpools/wordpool_EN.txt	HAND	7	11	[0, 0, 0]	n/a	FR1	2	R1135E
1595.64	1.6	1601293	WORD	n/a	wordpools/wordpool_EN.txt	VAN	8	11	[0, 0, 0]	n/a	FR1	2	R1135E
1598.173	1.6	1603825	WORD	n/a	wordpools/wordpool_EN.txt	MAT	9	11	[0, 0, 0]	n/a	FR1	2	R1135E
1600.557	1.6	1606209	WORD	n/a	wordpools/wordpool_EN.txt	CASH	10	11	[0, 0, 0]	n/a	FR1	2	R1135E
1603.124	1.6	1608776	WORD	n/a	wordpools/wordpool_EN.txt	BOARD	11	11	[0, 0, 0]	n/a	FR1	2	R1135E
1605.54	1.6	1611192	WORD	n/a	wordpools/wordpool_EN.txt	NAIL	12	11	[0, 0, 0]	n/a	FR1	2	R1135E
1607.141	0.001	1612793	DISTRACT_START	n/a	n/a	n/a	-999	11	[0, 0, 0]	n/a	FR1	2	R1135E
1607.142	0.016	1612794	START	n/a	n/a	n/a	-999	11	[-999, -999, -999]	n/a	FR1	2	R1135E
1607.158	13.919	1612810	PROB	13.899	n/a	n/a	-999	11	[9, 3, 1]	13.0	FR1	2	R1135E
1621.077	10.771	1626728	PROB	10.771	n/a	n/a	-999	11	[8, 3, 6]	17.0	FR1	2	R1135E
1631.848	0.015	1637498	STOP	n/a	n/a	n/a	-999	11	[-999, -999, -999]	n/a	FR1	2	R1135E
1631.863	1.05	1637513	DISTRACT_END	n/a	n/a	n/a	-999	11	[0, 0, 0]	n/a	FR1	2	R1135E
1632.913	7.062	1638563	REC_START	n/a	n/a	n/a	-999	11	[0, 0, 0]	n/a	FR1	2	R1135E
1639.975	9.592	1645625	REC_WORD	7.062	n/a	CASH	10	11	[0, 0, 0]	n/a	FR1	2	R1135E
1649.567	13.36	1655216	REC_WORD_VV	16.654	n/a	<>	-999	11	[0, 0, 0]	n/a	FR1	2	R1135E
1662.927	2.975	1668575	REC_END	n/a	n/a	n/a	-999	11	[0, 0, 0]	n/a	FR1	2	R1135E
1665.902	0.0	1671550	TRIAL	n/a	n/a	n/a	-999	12	[0, 0, 0]	n/a	FR1	2	R1135E
1665.902	10.0	1671550	COUNTDOWN_START	n/a	n/a	n/a	-999	12	[0, 0, 0]	n/a	FR1	2	R1135E
1676.33	0.007	1681977	COUNTDOWN_END	n/a	n/a	n/a	-999	12	[0, 0, 0]	n/a	FR1	2	R1135E
1676.337	1.6	1681984	ORIENT	n/a	n/a	n/a	-999	12	[0, 0, 0]	n/a	FR1	2	R1135E
1678.921	1.6	1684568	WORD	n/a	wordpools/wordpool_EN.txt	BAT	1	12	[0, 0, 0]	n/a	FR1	2	R1135E
1681.371	1.6	1687018	WORD	n/a	wordpools/wordpool_EN.txt	FAN	2	12	[0, 0, 0]	n/a	FR1	2	R1135E
1683.788	1.6	1689435	WORD	n/a	wordpools/wordpool_EN.txt	STRING	3	12	[0, 0, 0]	n/a	FR1	2	R1135E
1686.322	1.6	1691969	WORD	n/a	wordpools/wordpool_EN.txt	SHOE	4	12	[0, 0, 0]	n/a	FR1	2	R1135E
1688.723	1.6	1694369	WORD	n/a	wordpools/wordpool_EN.txt	FOAM	5	12	[0, 0, 0]	n/a	FR1	2	R1135E
1691.173	1.6	1696819	WORD	n/a	wordpools/wordpool_EN.txt	MOUTH	6	12	[0, 0, 0]	n/a	FR1	2	R1135E
1693.59	1.6	1699236	WORD	n/a	wordpools/wordpool_EN.txt	GEESE	7	12	[0, 0, 0]	n/a	FR1	2	R1135E
1696.224	1.6	1701870	WORD	n/a	wordpools/wordpool_EN.txt	BEAK	8	12	[0, 0, 0]	n/a	FR1	2	R1135E
1698.674	1.6	1704320	WORD	n/a	wordpools/wordpool_EN.txt	EAR	9	12	[0, 0, 0]	n/a	FR1	2	R1135E
1701.191	1.6	1706837	WORD	n/a	wordpools/wordpool_EN.txt	WING	10	12	[0, 0, 0]	n/a	FR1	2	R1135E
1703.608	1.6	1709253	WORD	n/a	wordpools/wordpool_EN.txt	STRAW	11	12	[0, 0, 0]	n/a	FR1	2	R1135E
1705.992	1.6	1711637	WORD	n/a	wordpools/wordpool_EN.txt	WAVE	12	12	[0, 0, 0]	n/a	FR1	2	R1135E
1707.609	0.001	1713254	DISTRACT_START	n/a	n/a	n/a	-999	12	[0, 0, 0]	n/a	FR1	2	R1135E
1707.61	0.016	1713255	START	n/a	n/a	n/a	-999	12	[-999, -999, -999]	n/a	FR1	2	R1135E
1707.626	9.702	1713271	PROB	9.666	n/a	n/a	-999	12	[1, 6, 5]	12.0	FR1	2	R1135E
1717.328	12.231	1722972	PROB	12.231	n/a	n/a	-999	12	[8, 2, 2]	12.0	FR1	2	R1135E
1729.559	0.004	1735203	STOP	n/a	n/a	n/a	-999	12	[-999, -999, -999]	n/a	FR1	2	R1135E
1729.563	1.034	1735207	DISTRACT_END	n/a	n/a	n/a	-999	12	[0, 0, 0]	n/a	FR1	2	R1135E
1730.597	11.692	1736241	REC_START	n/a	n/a	n/a	-999	12	[0, 0, 0]	n/a	FR1	2	R1135E
1742.289	18.322	1747932	REC_WORD	11.692	n/a	STROKE	-999	12	[0, 0, 0]	n/a	FR1	2	R1135E
1760.611	3.058	1766253	REC_END	n/a	n/a	n/a	-999	12	[0, 0, 0]	n/a	FR1	2	R1135E
1763.669	0.0	1769310	TRIAL	n/a	n/a	n/a	-999	13	[0, 0, 0]	n/a	FR1	2	R1135E
1763.669	10.0	1769310	COUNTDOWN_START	n/a	n/a	n/a	-999	13	[0, 0, 0]	n/a	FR1	2	R1135E
1774.097	0.007	1779738	COUNTDOWN_END	n/a	n/a	n/a	-999	13	[0, 0, 0]	n/a	FR1	2	R1135E
1774.104	1.6	1779745	ORIENT	n/a	n/a	n/a	-999	13	[0, 0, 0]	n/a	FR1	2	R1135E
1776.537	1.6	1782177	WORD	n/a	wordpools/wordpool_EN.txt	WOOD	1	13	[0, 0, 0]	n/a	FR1	2	R1135E
1778.988	1.6	1784628	WORD	n/a	wordpools/wordpool_EN.txt	STOVE	2	13	[0, 0, 0]	n/a	FR1	2	R1135E
1781.589	1.6	1787229	WORD	n/a	wordpools/wordpool_EN.txt	BOX	3	13	[0, 0, 0]	n/a	FR1	2	R1135E
1784.023	1.6	1789663	WORD	n/a	wordpools/wordpool_EN.txt	HAT	4	13	[0, 0, 0]	n/a	FR1	2	R1135E
1786.489	1.6	1792129	WORD	n/a	wordpools/wordpool_EN.txt	DIME	5	13	[0, 0, 0]	n/a	FR1	2	R1135E
1788.89	1.6	1794530	WORD	n/a	wordpools/wordpool_EN.txt	BARN	6	13	[0, 0, 0]	n/a	FR1	2	R1135E
1791.374	1.6	1797013	WORD	n/a	wordpools/wordpool_EN.txt	BOOT	7	13	[0, 0, 0]	n/a	FR1	2	R1135E
1793.824	1.6	1799463	WORD	n/a	wordpools/wordpool_EN.txt	MUG	8	13	[0, 0, 0]	n/a	FR1	2	R1135E
1796.258	1.6	1801897	WORD	n/a	wordpools/wordpool_EN.txt	THUMB	9	13	[0, 0, 0]	n/a	FR1	2	R1135E
1798.775	1.6	1804414	WORD	n/a	wordpools/wordpool_EN.txt	SHIRT	10	13	[0, 0, 0]	n/a	FR1	2	R1135E
1801.192	1.6	1806831	WORD	n/a	wordpools/wordpool_EN.txt	SQUARE	11	13	[0, 0, 0]	n/a	FR1	2	R1135E
1803.809	1.6	1809448	WORD	n/a	wordpools/wordpool_EN.txt	SLIME	12	13	[0, 0, 0]	n/a	FR1	2	R1135E
1805.426	0.001	1811064	DISTRACT_START	n/a	n/a	n/a	-999	13	[0, 0, 0]	n/a	FR1	2	R1135E
1805.427	0.016	1811065	START	n/a	n/a	n/a	-999	13	[-999, -999, -999]	n/a	FR1	2	R1135E
1805.443	10.185	1811081	PROB	10.154	n/a	n/a	-999	13	[2, 5, 3]	10.0	FR1	2	R1135E
1815.628	8.917	1821266	PROB	8.892	n/a	n/a	-999	13	[2, 9, 9]	20.0	FR1	2	R1135E
1824.545	11.7	1830182	PROB	11.7	n/a	n/a	-999	13	[1, 7, 5]	13.0	FR1	2	R1135E
1836.245	0.02	1841881	STOP	n/a	n/a	n/a	-999	13	[-999, -999, -999]	n/a	FR1	2	R1135E
1836.265	1.067	1841901	DISTRACT_END	n/a	n/a	n/a	-999	13	[0, 0, 0]	n/a	FR1	2	R1135E
1837.332	1.302	1842968	REC_START	n/a	n/a	n/a	-999	13	[0, 0, 0]	n/a	FR1	2	R1135E
1838.634	2.477	1844270	REC_WORD	1.302	n/a	WOOD	1	13	[0, 0, 0]	n/a	FR1	2	R1135E
1841.111	5.384	1846747	REC_WORD	3.779	n/a	STOVE	2	13	[0, 0, 0]	n/a	FR1	2	R1135E
1846.495	2.072	1852131	REC_WORD_VV	9.163	n/a	<>	-999	13	[0, 0, 0]	n/a	FR1	2	R1135E
1848.567	18.779	1854203	REC_WORD	11.235	n/a	MUG	8	13	[0, 0, 0]	n/a	FR1	2	R1135E
1867.346	3.375	1872980	REC_END	n/a	n/a	n/a	-999	13	[0, 0, 0]	n/a	FR1	2	R1135E
1870.721	0.0	1876355	TRIAL	n/a	n/a	n/a	-999	14	[0, 0, 0]	n/a	FR1	2	R1135E
1870.721	10.0	1876355	COUNTDOWN_START	n/a	n/a	n/a	-999	14	[0, 0, 0]	n/a	FR1	2	R1135E
1881.149	0.007	1886782	COUNTDOWN_END	n/a	n/a	n/a	-999	14	[0, 0, 0]	n/a	FR1	2	R1135E
1881.156	1.6	1886789	ORIENT	n/a	n/a	n/a	-999	14	[0, 0, 0]	n/a	FR1	2	R1135E
1883.623	1.6	1889256	WORD	n/a	wordpools/wordpool_EN.txt	ARM	1	14	[0, 0, 0]	n/a	FR1	2	R1135E
1886.041	1.6	1891674	WORD	n/a	wordpools/wordpool_EN.txt	SPONGE	2	14	[0, 0, 0]	n/a	FR1	2	R1135E
1888.441	1.6	1894074	WORD	n/a	wordpools/wordpool_EN.txt	PIT	3	14	[0, 0, 0]	n/a	FR1	2	R1135E
1890.991	1.6	1896624	WORD	n/a	wordpools/wordpool_EN.txt	GRASS	4	14	[0, 0, 0]	n/a	FR1	2	R1135E
1893.541	1.6	1899174	WORD	n/a	wordpools/wordpool_EN.txt	CHEEK	5	14	[0, 0, 0]	n/a	FR1	2	R1135E
1896.126	1.6	1901758	WORD	n/a	wordpools/wordpool_EN.txt	STEAK	6	14	[0, 0, 0]	n/a	FR1	2	R1135E
1898.525	1.6	1904157	WORD	n/a	wordpools/wordpool_EN.txt	FISH	7	14	[0, 0, 0]	n/a	FR1	2	R1135E
1901.026	1.6	1906658	WORD	n/a	wordpools/wordpool_EN.txt	BOWL	8	14	[0, 0, 0]	n/a	FR1	2	R1135E
1903.61	1.6	1909242	WORD	n/a	wordpools/wordpool_EN.txt	SEA	9	14	[0, 0, 0]	n/a	FR1	2	R1135E
1906.061	1.6	1911693	WORD	n/a	wordpools/wordpool_EN.txt	CALF	10	14	[0, 0, 0]	n/a	FR1	2	R1135E
1908.644	1.6	1914276	WORD	n/a	wordpools/wordpool_EN.txt	MILK	11	14	[0, 0, 0]	n/a	FR1	2	R1135E
1911.028	1.6	1916659	WORD	n/a	wordpools/wordpool_EN.txt	WEED	12	14	[0, 0, 0]	n/a	FR1	2	R1135E
1912.645	0.001	1918276	DISTRACT_START	n/a	n/a	n/a	-999	14	[0, 0, 0]	n/a	FR1	2	R1135E
1912.646	0.016	1918277	START	n/a	n/a	n/a	-999	14	[-999, -999, -999]	n/a	FR1	2	R1135E
1912.662	5.866	1918293	PROB	5.84	n/a	n/a	-999	14	[1, 1, 5]	7.0	FR1	2	R1135E
1918.528	16.778	1924159	PROB	16.778	n/a	n/a	-999	14	[5, 9, 7]	20.0	FR1	2	R1135E
1935.306	0.01	1940936	STOP	n/a	n/a	n/a	-999	14	[-999, -999, -999]	n/a	FR1	2	R1135E
1935.316	1.034	1940946	DISTRACT_END	n/a	n/a	n/a	-999	14	[0, 0, 0]	n/a	FR1	2	R1135E
1936.35	9.896	1941980	REC_START	n/a	n/a	n/a	-999	14	[0, 0, 0]	n/a	FR1	2	R1135E
1946.246	20.113	1951875	REC_WORD	9.896	n/a	STEAK	6	14	[0, 0, 0]	n/a	FR1	2	R1135E
1966.359	3.88	1971987	REC_END	n/a	n/a	n/a	-999	14	[0, 0, 0]	n/a	FR1	2	R1135E
1970.239	0.0	1975866	TRIAL	n/a	n/a	n/a	-999	15	[0, 0, 0]	n/a	FR1	2	R1135E
1970.239	10.0	1975866	COUNTDOWN_START	n/a	n/a	n/a	-999	15	[0, 0, 0]	n/a	FR1	2	R1135E
1980.667	0.007	1986294	COUNTDOWN_END	n/a	n/a	n/a	-999	15	[0, 0, 0]	n/a	FR1	2	R1135E
1980.674	1.6	1986301	ORIENT	n/a	n/a	n/a	-999	15	[0, 0, 0]	n/a	FR1	2	R1135E
1983.157	1.6	1988784	WORD	n/a	wordpools/wordpool_EN.txt	DRESS	1	15	[0, 0, 0]	n/a	FR1	2	R1135E
1985.741	1.6	1991367	WORD	n/a	wordpools/wordpool_EN.txt	DITCH	2	15	[0, 0, 0]	n/a	FR1	2	R1135E
1988.125	1.6	1993751	WORD	n/a	wordpools/wordpool_EN.txt	KITE	3	15	[0, 0, 0]	n/a	FR1	2	R1135E
1990.709	1.6	1996335	WORD	n/a	wordpools/wordpool_EN.txt	ROAD	4	15	[0, 0, 0]	n/a	FR1	2	R1135E
1993.176	1.6	1998802	WORD	n/a	wordpools/wordpool_EN.txt	GATE	5	15	[0, 0, 0]	n/a	FR1	2	R1135E
1995.626	1.6	2001252	WORD	n/a	wordpools/wordpool_EN.txt	TIE	6	15	[0, 0, 0]	n/a	FR1	2	R1135E
1998.227	1.6	2003853	WORD	n/a	wordpools/wordpool_EN.txt	AXE	7	15	[0, 0, 0]	n/a	FR1	2	R1135E
2000.827	1.6	2006452	WORD	n/a	wordpools/wordpool_EN.txt	STOOL	8	15	[0, 0, 0]	n/a	FR1	2	R1135E
2003.328	1.6	2008953	WORD	n/a	wordpools/wordpool_EN.txt	NOSE	9	15	[0, 0, 0]	n/a	FR1	2	R1135E
2005.745	1.6	2011370	WORD	n/a	wordpools/wordpool_EN.txt	SWORD	10	15	[0, 0, 0]	n/a	FR1	2	R1135E
2008.195	1.6	2013820	WORD	n/a	wordpools/wordpool_EN.txt	SLEEVE	11	15	[0, 0, 0]	n/a	FR1	2	R1135E
2010.629	1.6	2016254	WORD	n/a	wordpools/wordpool_EN.txt	COUCH	12	15	[0, 0, 0]	n/a	FR1	2	R1135E
2012.246	0.0	2017871	DISTRACT_START	n/a	n/a	n/a	-999	15	[0, 0, 0]	n/a	FR1	2	R1135E
2012.246	0.017	2017871	START	n/a	n/a	n/a	-999	15	[-999, -999, -999]	n/a	FR1	2	R1135E
2012.263	15.536	2017888	PROB	15.5	n/a	n/a	-999	15	[5, 1, 9]	15.0	FR1	2	R1135E
2027.799	8.187	2033423	PROB	8.187	n/a	n/a	-999	15	[3, 2, 3]	8.0	FR1	2	R1135E
2035.986	0.014	2041609	STOP	n/a	n/a	n/a	-999	15	[-999, -999, -999]	n/a	FR1	2	R1135E
2036.0	1.034	2041623	DISTRACT_END	n/a	n/a	n/a	-999	15	[0, 0, 0]	n/a	FR1	2	R1135E
2037.034	25.591	2042657	REC_START	n/a	n/a	n/a	-999	15	[0, 0, 0]	n/a	FR1	2	R1135E
2062.625	4.42	2068246	REC_WORD	25.591	n/a	CALF	-999	15	[0, 0, 0]	n/a	FR1	2	R1135E
2067.045	3.728	2072666	REC_END	n/a	n/a	n/a	-999	15	[0, 0, 0]	n/a	FR1	2	R1135E
2070.773	0.0	2076394	TRIAL	n/a	n/a	n/a	-999	16	[0, 0, 0]	n/a	FR1	2	R1135E
2070.773	10.0	2076394	COUNTDOWN_START	n/a	n/a	n/a	-999	16	[0, 0, 0]	n/a	FR1	2	R1135E
2081.201	0.007	2086821	COUNTDOWN_END	n/a	n/a	n/a	-999	16	[0, 0, 0]	n/a	FR1	2	R1135E
2081.208	1.6	2086828	ORIENT	n/a	n/a	n/a	-999	16	[0, 0, 0]	n/a	FR1	2	R1135E
2083.808	1.6	2089428	WORD	n/a	wordpools/wordpool_EN.txt	ROOM	1	16	[0, 0, 0]	n/a	FR1	2	R1135E
2086.326	1.6	2091946	WORD	n/a	wordpools/wordpool_EN.txt	FOOT	2	16	[0, 0, 0]	n/a	FR1	2	R1135E
2088.793	1.6	2094412	WORD	n/a	wordpools/wordpool_EN.txt	JEEP	3	16	[0, 0, 0]	n/a	FR1	2	R1135E
2091.276	1.6	2096895	WORD	n/a	wordpools/wordpool_EN.txt	HOSE	4	16	[0, 0, 0]	n/a	FR1	2	R1135E
2093.81	1.6	2099429	WORD	n/a	wordpools/wordpool_EN.txt	SPEAR	5	16	[0, 0, 0]	n/a	FR1	2	R1135E
2096.261	1.6	2101880	WORD	n/a	wordpools/wordpool_EN.txt	FACE	6	16	[0, 0, 0]	n/a	FR1	2	R1135E
2098.794	1.6	2104413	WORD	n/a	wordpools/wordpool_EN.txt	HILL	7	16	[0, 0, 0]	n/a	FR1	2	R1135E
2101.195	1.6	2106814	WORD	n/a	wordpools/wordpool_EN.txt	SEAT	8	16	[0, 0, 0]	n/a	FR1	2	R1135E
2103.645	1.6	2109263	WORD	n/a	wordpools/wordpool_EN.txt	PARK	9	16	[0, 0, 0]	n/a	FR1	2	R1135E
2106.029	1.6	2111647	WORD	n/a	wordpools/wordpool_EN.txt	OAK	10	16	[0, 0, 0]	n/a	FR1	2	R1135E
2108.463	1.6	2114081	WORD	n/a	wordpools/wordpool_EN.txt	TANK	11	16	[0, 0, 0]	n/a	FR1	2	R1135E
2111.046	1.6	2116664	WORD	n/a	wordpools/wordpool_EN.txt	PEA	12	16	[0, 0, 0]	n/a	FR1	2	R1135E
2112.663	0.001	2118281	DISTRACT_START	n/a	n/a	n/a	-999	16	[0, 0, 0]	n/a	FR1	2	R1135E
2112.664	0.016	2118282	START	n/a	n/a	n/a	-999	16	[-999, -999, -999]	n/a	FR1	2	R1135E
2112.68	12.219	2118298	PROB	12.187	n/a	n/a	-999	16	[1, 5, 6]	12.0	FR1	2	R1135E
2124.899	11.909	2130516	PROB	11.909	n/a	n/a	-999	16	[6, 2, 7]	15.0	FR1	2	R1135E
2136.808	0.01	2142424	STOP	n/a	n/a	n/a	-999	16	[-999, -999, -999]	n/a	FR1	2	R1135E
2136.818	1.217	2142434	DISTRACT_END	n/a	n/a	n/a	-999	16	[0, 0, 0]	n/a	FR1	2	R1135E
2138.035	30.011	2143651	REC_START	n/a	n/a	n/a	-999	16	[0, 0, 0]	n/a	FR1	2	R1135E
2168.046	0.003	2173660	REC_WORD_VV	30.011	n/a	<>	-999	16	[0, 0, 0]	n/a	FR1	2	R1135E
2168.049	2.825	2173663	REC_END	n/a	n/a	n/a	-999	16	[0, 0, 0]	n/a	FR1	2	R1135E
2170.874	0.0	2176488	TRIAL	n/a	n/a	n/a	-999	17	[0, 0, 0]	n/a	FR1	2	R1135E
2170.874	10.0	2176488	COUNTDOWN_START	n/a	n/a	n/a	-999	17	[0, 0, 0]	n/a	FR1	2	R1135E
2181.302	0.007	2186915	COUNTDOWN_END	n/a	n/a	n/a	-999	17	[0, 0, 0]	n/a	FR1	2	R1135E
2181.309	1.6	2186922	ORIENT	n/a	n/a	n/a	-999	17	[0, 0, 0]	n/a	FR1	2	R1135E
2183.909	1.6	2189522	WORD	n/a	wordpools/wordpool_EN.txt	LAND	1	17	[0, 0, 0]	n/a	FR1	2	R1135E
2186.46	1.6	2192073	WORD	n/a	wordpools/wordpool_EN.txt	MAP	2	17	[0, 0, 0]	n/a	FR1	2	R1135E
2188.91	1.6	2194523	WORD	n/a	wordpools/wordpool_EN.txt	SPARK	3	17	[0, 0, 0]	n/a	FR1	2	R1135E
2191.327	1.6	2196940	WORD	n/a	wordpools/wordpool_EN.txt	WORLD	4	17	[0, 0, 0]	n/a	FR1	2	R1135E
2193.828	1.6	2199440	WORD	n/a	wordpools/wordpool_EN.txt	MOTH	5	17	[0, 0, 0]	n/a	FR1	2	R1135E
2196.361	1.6	2201973	WORD	n/a	wordpools/wordpool_EN.txt	SHEEP	6	17	[0, 0, 0]	n/a	FR1	2	R1135E
2198.829	1.6	2204441	WORD	n/a	wordpools/wordpool_EN.txt	CHIEF	7	17	[0, 0, 0]	n/a	FR1	2	R1135E
2201.412	1.6	2207024	WORD	n/a	wordpools/wordpool_EN.txt	POND	8	17	[0, 0, 0]	n/a	FR1	2	R1135E
2203.829	1.6	2209441	WORD	n/a	wordpools/wordpool_EN.txt	STEM	9	17	[0, 0, 0]	n/a	FR1	2	R1135E
2206.397	1.6	2212009	WORD	n/a	wordpools/wordpool_EN.txt	CORN	10	17	[0, 0, 0]	n/a	FR1	2	R1135E
2208.93	1.6	2214541	WORD	n/a	wordpools/wordpool_EN.txt	THREAD	11	17	[0, 0, 0]	n/a	FR1	2	R1135E
2211.347	1.6	2216958	WORD	n/a	wordpools/wordpool_EN.txt	SEED	12	17	[0, 0, 0]	n/a	FR1	2	R1135E
2212.964	0.001	2218575	DISTRACT_START	n/a	n/a	n/a	-999	17	[0, 0, 0]	n/a	FR1	2	R1135E
2212.965	0.016	2218576	START	n/a	n/a	n/a	-999	17	[-999, -999, -999]	n/a	FR1	2	R1135E
2212.981	13.486	2218592	PROB	13.46	n/a	n/a	-999	17	[5, 7, 7]	19.0	FR1	2	R1135E
2226.467	10.022	2232077	PROB	10.022	n/a	n/a	-999	17	[1, 3, 7]	11.0	FR1	2	R1135E
2236.489	0.012	2242099	STOP	n/a	n/a	n/a	-999	17	[-999, -999, -999]	n/a	FR1	2	R1135E
2236.501	1.068	2242111	DISTRACT_END	n/a	n/a	n/a	-999	17	[0, 0, 0]	n/a	FR1	2	R1135E
2237.569	7.269	2243178	REC_START	n/a	n/a	n/a	-999	17	[0, 0, 0]	n/a	FR1	2	R1135E
2244.838	3.848	2250447	REC_WORD	7.269	n/a	SHELF	-999	17	[0, 0, 0]	n/a	FR1	2	R1135E
2248.686	18.892	2254295	REC_WORD	11.117	n/a	STEAK	-999	17	[0, 0, 0]	n/a	FR1	2	R1135E
2267.578	4.646	2273185	REC_END	n/a	n/a	n/a	-999	17	[0, 0, 0]	n/a	FR1	2	R1135E
2272.224	10.0	2277831	COUNTDOWN_START	n/a	n/a	n/a	-999	18	[0, 0, 0]	n/a	FR1	2	R1135E
2272.225	10.427	2277832	TRIAL	n/a	n/a	n/a	-999	18	[0, 0, 0]	n/a	FR1	2	R1135E
2282.652	0.008	2288258	COUNTDOWN_END	n/a	n/a	n/a	-999	18	[0, 0, 0]	n/a	FR1	2	R1135E
2282.66	1.6	2288266	ORIENT	n/a	n/a	n/a	-999	18	[0, 0, 0]	n/a	FR1	2	R1135E
2285.243	1.6	2290849	WORD	n/a	wordpools/wordpool_EN.txt	HORSE	1	18	[0, 0, 0]	n/a	FR1	2	R1135E
2287.861	1.6	2293467	WORD	n/a	wordpools/wordpool_EN.txt	BRICK	2	18	[0, 0, 0]	n/a	FR1	2	R1135E
2290.411	1.6	2296017	WORD	n/a	wordpools/wordpool_EN.txt	TEETH	3	18	[0, 0, 0]	n/a	FR1	2	R1135E
2292.795	1.6	2298401	WORD	n/a	wordpools/wordpool_EN.txt	SHRIMP	4	18	[0, 0, 0]	n/a	FR1	2	R1135E
2295.279	1.6	2300885	WORD	n/a	wordpools/wordpool_EN.txt	ZOO	5	18	[0, 0, 0]	n/a	FR1	2	R1135E
2297.713	1.6	2303318	WORD	n/a	wordpools/wordpool_EN.txt	SKI	6	18	[0, 0, 0]	n/a	FR1	2	R1135E
2300.313	1.6	2305918	WORD	n/a	wordpools/wordpool_EN.txt	GRAPE	7	18	[0, 0, 0]	n/a	FR1	2	R1135E
2302.797	1.6	2308402	WORD	n/a	wordpools/wordpool_EN.txt	BLUSH	8	18	[0, 0, 0]	n/a	FR1	2	R1135E
2305.33	1.6	2310935	WORD	n/a	wordpools/wordpool_EN.txt	MOON	9	18	[0, 0, 0]	n/a	FR1	2	R1135E
2307.764	1.6	2313369	WORD	n/a	wordpools/wordpool_EN.txt	SHIP	10	18	[0, 0, 0]	n/a	FR1	2	R1135E
2310.198	1.6	2315803	WORD	n/a	wordpools/wordpool_EN.txt	TRASH	11	18	[0, 0, 0]	n/a	FR1	2	R1135E
2312.815	1.6	2318419	WORD	n/a	wordpools/wordpool_EN.txt	BOMB	12	18	[0, 0, 0]	n/a	FR1	2	R1135E
2314.432	0.001	2320036	DISTRACT_START	n/a	n/a	n/a	-999	18	[0, 0, 0]	n/a	FR1	2	R1135E
2314.433	0.016	2320037	START	n/a	n/a	n/a	-999	18	[-999, -999, -999]	n/a	FR1	2	R1135E
2314.449	10.668	2320053	PROB	10.64	n/a	n/a	-999	18	[4, 2, 5]	11.0	FR1	2	R1135E
2325.117	16.697	2330721	PROB	16.697	n/a	n/a	-999	18	[3, 7, 9]	18.0	FR1	2	R1135E
2341.814	0.006	2347416	STOP	n/a	n/a	n/a	-999	18	[-999, -999, -999]	n/a	FR1	2	R1135E
2341.82	1.084	2347422	DISTRACT_END	n/a	n/a	n/a	-999	18	[0, 0, 0]	n/a	FR1	2	R1135E
2342.904	3.256	2348506	REC_START	n/a	n/a	n/a	-999	18	[0, 0, 0]	n/a	FR1	2	R1135E
2346.16	4.144	2351762	REC_WORD	3.256	n/a	SHIP	10	18	[0, 0, 0]	n/a	FR1	2	R1135E
2350.304	8.314	2355906	REC_WORD	7.4	n/a	TRASH	11	18	[0, 0, 0]	n/a	FR1	2	R1135E
2358.618	14.3	2364219	REC_WORD	15.714	n/a	ZOO	5	18	[0, 0, 0]	n/a	FR1	2	R1135E
2372.918	6.608	2378518	REC_END	n/a	n/a	n/a	-999	18	[0, 0, 0]	n/a	FR1	2	R1135E
2379.526	0.0	2385126	TRIAL	n/a	n/a	n/a	-999	19	[0, 0, 0]	n/a	FR1	2	R1135E
2379.526	10.0	2385126	COUNTDOWN_START	n/a	n/a	n/a	-999	19	[0, 0, 0]	n/a	FR1	2	R1135E
2389.954	0.008	2395553	COUNTDOWN_END	n/a	n/a	n/a	-999	19	[0, 0, 0]	n/a	FR1	2	R1135E
2389.962	1.6	2395561	ORIENT	n/a	n/a	n/a	-999	19	[0, 0, 0]	n/a	FR1	2	R1135E
2392.446	1.6	2398045	WORD	n/a	wordpools/wordpool_EN.txt	CLOWN	1	19	[0, 0, 0]	n/a	FR1	2	R1135E
2394.996	1.6	2400595	WORD	n/a	wordpools/wordpool_EN.txt	PLATE	2	19	[0, 0, 0]	n/a	FR1	2	R1135E
2397.512	1.6	2403111	WORD	n/a	wordpools/wordpool_EN.txt	GOLD	3	19	[0, 0, 0]	n/a	FR1	2	R1135E
2400.047	1.6	2405646	WORD	n/a	wordpools/wordpool_EN.txt	PANTS	4	19	[0, 0, 0]	n/a	FR1	2	R1135E
2402.53	1.6	2408128	WORD	n/a	wordpools/wordpool_EN.txt	SIGN	5	19	[0, 0, 0]	n/a	FR1	2	R1135E
2405.098	1.6	2410696	WORD	n/a	wordpools/wordpool_EN.txt	SCHOOL	6	19	[0, 0, 0]	n/a	FR1	2	R1135E
2407.565	1.6	2413163	WORD	n/a	wordpools/wordpool_EN.txt	PIG	7	19	[0, 0, 0]	n/a	FR1	2	R1135E
2409.982	1.6	2415580	WORD	n/a	wordpools/wordpool_EN.txt	WHALE	8	19	[0, 0, 0]	n/a	FR1	2	R1135E
2412.366	1.6	2417964	WORD	n/a	wordpools/wordpool_EN.txt	CAVE	9	19	[0, 0, 0]	n/a	FR1	2	R1135E
2414.8	1.6	2420398	WORD	n/a	wordpools/wordpool_EN.txt	CROWN	10	19	[0, 0, 0]	n/a	FR1	2	R1135E
2417.217	1.6	2422814	WORD	n/a	wordpools/wordpool_EN.txt	GLOVE	11	19	[0, 0, 0]	n/a	FR1	2	R1135E
2419.717	1.6	2425314	WORD	n/a	wordpools/wordpool_EN.txt	BEAR	12	19	[0, 0, 0]	n/a	FR1	2	R1135E
2421.334	0.001	2426931	DISTRACT_START	n/a	n/a	n/a	-999	19	[0, 0, 0]	n/a	FR1	2	R1135E
2421.335	0.016	2426932	START	n/a	n/a	n/a	-999	19	[-999, -999, -999]	n/a	FR1	2	R1135E
2421.351	12.785	2426948	PROB	12.765	n/a	n/a	-999	19	[6, 3, 4]	13.0	FR1	2	R1135E
2434.136	9.014	2439732	PROB	9.014	n/a	n/a	-999	19	[1, 3, 4]	8.0	FR1	2	R1135E
2443.15	0.005	2448746	STOP	n/a	n/a	n/a	-999	19	[-999, -999, -999]	n/a	FR1	2	R1135E
2443.155	1.151	2448751	DISTRACT_END	n/a	n/a	n/a	-999	19	[0, 0, 0]	n/a	FR1	2	R1135E
2444.306	2.233	2449902	REC_START	n/a	n/a	n/a	-999	19	[0, 0, 0]	n/a	FR1	2	R1135E
2446.539	27.776	2452134	REC_WORD	2.233	n/a	CLOWN	1	19	[0, 0, 0]	n/a	FR1	2	R1135E
2474.315	3.312	2479909	REC_END	n/a	n/a	n/a	-999	19	[0, 0, 0]	n/a	FR1	2	R1135E
2477.627	10.0	2483220	COUNTDOWN_START	n/a	n/a	n/a	-999	20	[0, 0, 0]	n/a	FR1	2	R1135E
2477.628	10.427	2483221	TRIAL	n/a	n/a	n/a	-999	20	[0, 0, 0]	n/a	FR1	2	R1135E
2488.055	0.008	2493648	COUNTDOWN_END	n/a	n/a	n/a	-999	20	[0, 0, 0]	n/a	FR1	2	R1135E
2488.063	1.6	2493656	ORIENT	n/a	n/a	n/a	-999	20	[0, 0, 0]	n/a	FR1	2	R1135E
2490.58	1.6	2496172	WORD	n/a	wordpools/wordpool_EN.txt	FOX	1	20	[0, 0, 0]	n/a	FR1	2	R1135E
2493.08	1.6	2498672	WORD	n/a	wordpools/wordpool_EN.txt	FARM	2	20	[0, 0, 0]	n/a	FR1	2	R1135E
2495.697	1.6	2501289	WORD	n/a	wordpools/wordpool_EN.txt	CROW	3	20	[0, 0, 0]	n/a	FR1	2	R1135E
2498.214	1.6	2503806	WORD	n/a	wordpools/wordpool_EN.txt	MUD	4	20	[0, 0, 0]	n/a	FR1	2	R1135E
2500.598	1.6	2506190	WORD	n/a	wordpools/wordpool_EN.txt	BAG	5	20	[0, 0, 0]	n/a	FR1	2	R1135E
2503.015	1.6	2508607	WORD	n/a	wordpools/wordpool_EN.txt	BRANCH	6	20	[0, 0, 0]	n/a	FR1	2	R1135E
2505.599	1.6	2511190	WORD	n/a	wordpools/wordpool_EN.txt	ELF	7	20	[0, 0, 0]	n/a	FR1	2	R1135E
2508.166	1.6	2513757	WORD	n/a	wordpools/wordpool_EN.txt	TOE	8	20	[0, 0, 0]	n/a	FR1	2	R1135E
2510.583	1.6	2516174	WORD	n/a	wordpools/wordpool_EN.txt	WEB	9	20	[0, 0, 0]	n/a	FR1	2	R1135E
2513.167	1.6	2518758	WORD	n/a	wordpools/wordpool_EN.txt	COW	10	20	[0, 0, 0]	n/a	FR1	2	R1135E
2515.601	1.6	2521192	WORD	n/a	wordpools/wordpool_EN.txt	CANE	11	20	[0, 0, 0]	n/a	FR1	2	R1135E
2518.018	1.6	2523609	WORD	n/a	wordpools/wordpool_EN.txt	VINE	12	20	[0, 0, 0]	n/a	FR1	2	R1135E
2519.635	0.0	2525226	DISTRACT_START	n/a	n/a	n/a	-999	20	[0, 0, 0]	n/a	FR1	2	R1135E
2519.635	0.016	2525226	START	n/a	n/a	n/a	-999	20	[-999, -999, -999]	n/a	FR1	2	R1135E
2519.651	14.835	2525241	PROB	14.806	n/a	n/a	-999	20	[4, 8, 9]	21.0	FR1	2	R1135E
2534.486	13.841	2540076	PROB	13.841	n/a	n/a	-999	20	[8, 5, 2]	15.0	FR1	2	R1135E
2548.327	0.013	2553916	STOP	n/a	n/a	n/a	-999	20	[-999, -999, -999]	n/a	FR1	2	R1135E
2548.34	1.2	2553929	DISTRACT_END	n/a	n/a	n/a	-999	20	[0, 0, 0]	n/a	FR1	2	R1135E
2549.54	4.126	2555128	REC_START	n/a	n/a	n/a	-999	20	[0, 0, 0]	n/a	FR1	2	R1135E
2553.666	5.554	2559254	REC_WORD	4.126	n/a	CLOWN	-999	20	[0, 0, 0]	n/a	FR1	2	R1135E
2559.22	20.328	2564808	REC_WORD	9.68	n/a	VINE	12	20	[0, 0, 0]	n/a	FR1	2	R1135E
2579.548	3.148	2585134	REC_END	n/a	n/a	n/a	-999	20	[0, 0, 0]	n/a	FR1	2	R1135E
2582.696	10.0	2588282	COUNTDOWN_START	n/a	n/a	n/a	-999	21	[0, 0, 0]	n/a	FR1	2	R1135E
2582.696	10.428	2588282	TRIAL	n/a	n/a	n/a	-999	21	[0, 0, 0]	n/a	FR1	2	R1135E
2593.124	0.007	2598710	COUNTDOWN_END	n/a	n/a	n/a	-999	21	[0, 0, 0]	n/a	FR1	2	R1135E
2593.131	1.6	2598717	ORIENT	n/a	n/a	n/a	-999	21	[0, 0, 0]	n/a	FR1	2	R1135E
2595.565	1.6	2601150	WORD	n/a	wordpools/wordpool_EN.txt	SWAMP	1	21	[0, 0, 0]	n/a	FR1	2	R1135E
2598.048	1.6	2603633	WORD	n/a	wordpools/wordpool_EN.txt	HEN	2	21	[0, 0, 0]	n/a	FR1	2	R1135E
2600.548	1.6	2606133	WORD	n/a	wordpools/wordpool_EN.txt	HOLE	3	21	[0, 0, 0]	n/a	FR1	2	R1135E
2603.049	1.6	2608634	WORD	n/a	wordpools/wordpool_EN.txt	OWL	4	21	[0, 0, 0]	n/a	FR1	2	R1135E
2605.633	1.6	2611218	WORD	n/a	wordpools/wordpool_EN.txt	BROOM	5	21	[0, 0, 0]	n/a	FR1	2	R1135E
2608.034	1.6	2613619	WORD	n/a	wordpools/wordpool_EN.txt	TAIL	6	21	[0, 0, 0]	n/a	FR1	2	R1135E
2610.484	1.6	2616068	WORD	n/a	wordpools/wordpool_EN.txt	EEL	7	21	[0, 0, 0]	n/a	FR1	2	R1135E
2612.951	1.6	2618535	WORD	n/a	wordpools/wordpool_EN.txt	YARD	8	21	[0, 0, 0]	n/a	FR1	2	R1135E
2615.352	1.6	2620936	WORD	n/a	wordpools/wordpool_EN.txt	BREAD	9	21	[0, 0, 0]	n/a	FR1	2	R1135E
2617.935	1.6	2623519	WORD	n/a	wordpools/wordpool_EN.txt	TOAST	10	21	[0, 0, 0]	n/a	FR1	2	R1135E
2620.352	1.6	2625936	WORD	n/a	wordpools/wordpool_EN.txt	PIE	11	21	[0, 0, 0]	n/a	FR1	2	R1135E
2622.869	1.6	2628453	WORD	n/a	wordpools/wordpool_EN.txt	PEN	12	21	[0, 0, 0]	n/a	FR1	2	R1135E
2624.485	0.001	2630068	DISTRACT_START	n/a	n/a	n/a	-999	21	[0, 0, 0]	n/a	FR1	2	R1135E
2624.486	0.016	2630069	START	n/a	n/a	n/a	-999	21	[-999, -999, -999]	n/a	FR1	2	R1135E
2624.502	10.536	2630085	PROB	10.516	n/a	n/a	-999	21	[5, 1, 4]	10.0	FR1	2	R1135E
2635.038	13.075	2640621	PROB	13.075	n/a	n/a	-999	21	[5, 7, 4]	16.0	FR1	2	R1135E
2648.113	0.011	2653695	STOP	n/a	n/a	n/a	-999	21	[-999, -999, -999]	n/a	FR1	2	R1135E
2648.124	1.201	2653706	DISTRACT_END	n/a	n/a	n/a	-999	21	[0, 0, 0]	n/a	FR1	2	R1135E
2649.325	1.486	2654907	REC_START	n/a	n/a	n/a	-999	21	[0, 0, 0]	n/a	FR1	2	R1135E
2650.811	6.48	2656393	REC_WORD	1.486	n/a	PEN	12	21	[0, 0, 0]	n/a	FR1	2	R1135E
2657.291	22.043	2662872	REC_WORD_VV	7.966	n/a	<>	-999	21	[0, 0, 0]	n/a	FR1	2	R1135E
2679.334	2.929	2684914	REC_END	n/a	n/a	n/a	-999	21	[0, 0, 0]	n/a	FR1	2	R1135E
2682.263	0.0	2687843	TRIAL	n/a	n/a	n/a	-999	22	[0, 0, 0]	n/a	FR1	2	R1135E
2682.263	10.0	2687843	COUNTDOWN_START	n/a	n/a	n/a	-999	22	[0, 0, 0]	n/a	FR1	2	R1135E
2692.691	0.007	2698270	COUNTDOWN_END	n/a	n/a	n/a	-999	22	[0, 0, 0]	n/a	FR1	2	R1135E
2692.698	1.6	2698277	ORIENT	n/a	n/a	n/a	-999	22	[0, 0, 0]	n/a	FR1	2	R1135E
2695.232	1.6	2700811	WORD	n/a	wordpools/wordpool_EN.txt	CAR	1	22	[0, 0, 0]	n/a	FR1	2	R1135E
2697.733	1.6	2703312	WORD	n/a	wordpools/wordpool_EN.txt	CLAY	2	22	[0, 0, 0]	n/a	FR1	2	R1135E
2700.166	1.6	2705744	WORD	n/a	wordpools/wordpool_EN.txt	PASTE	3	22	[0, 0, 0]	n/a	FR1	2	R1135E
2702.767	1.6	2708345	WORD	n/a	wordpools/wordpool_EN.txt	LEAF	4	22	[0, 0, 0]	n/a	FR1	2	R1135E
2705.184	1.6	2710762	WORD	n/a	wordpools/wordpool_EN.txt	ROOT	5	22	[0, 0, 0]	n/a	FR1	2	R1135E
2707.568	1.6	2713146	WORD	n/a	wordpools/wordpool_EN.txt	NEST	6	22	[0, 0, 0]	n/a	FR1	2	R1135E
2710.035	1.6	2715613	WORD	n/a	wordpools/wordpool_EN.txt	CRANE	7	22	[0, 0, 0]	n/a	FR1	2	R1135E
2712.569	1.6	2718147	WORD	n/a	wordpools/wordpool_EN.txt	SKUNK	8	22	[0, 0, 0]	n/a	FR1	2	R1135E
2715.186	1.6	2720763	WORD	n/a	wordpools/wordpool_EN.txt	SOAP	9	22	[0, 0, 0]	n/a	FR1	2	R1135E
2717.786	1.6	2723363	WORD	n/a	wordpools/wordpool_EN.txt	TRUCK	10	22	[0, 0, 0]	n/a	FR1	2	R1135E
2720.387	1.6	2725964	WORD	n/a	wordpools/wordpool_EN.txt	HOOF	11	22	[0, 0, 0]	n/a	FR1	2	R1135E
2722.97	1.6	2728547	WORD	n/a	wordpools/wordpool_EN.txt	TREE	12	22	[0, 0, 0]	n/a	FR1	2	R1135E
2724.587	0.001	2730164	DISTRACT_START	n/a	n/a	n/a	-999	22	[0, 0, 0]	n/a	FR1	2	R1135E
2724.588	0.016	2730165	START	n/a	n/a	n/a	-999	22	[-999, -999, -999]	n/a	FR1	2	R1135E
2724.604	6.868	2730181	PROB	6.84	n/a	n/a	-999	22	[1, 1, 9]	11.0	FR1	2	R1135E
2731.472	9.151	2737048	PROB	9.117	n/a	n/a	-999	22	[9, 9, 4]	22.0	FR1	2	R1135E
2740.623	12.391	2746199	PROB	12.391	n/a	n/a	-999	22	[7, 8, 1]	17.0	FR1	2	R1135E
2753.014	0.012	2758589	STOP	n/a	n/a	n/a	-999	22	[-999, -999, -999]	n/a	FR1	2	R1135E
2753.026	1.067	2758601	DISTRACT_END	n/a	n/a	n/a	-999	22	[0, 0, 0]	n/a	FR1	2	R1135E
2754.093	3.303	2759668	REC_START	n/a	n/a	n/a	-999	22	[0, 0, 0]	n/a	FR1	2	R1135E
2757.396	26.706	2762971	REC_WORD	3.303	n/a	TRAIL	-999	22	[0, 0, 0]	n/a	FR1	2	R1135E
2784.102	2.796	2789675	REC_END	n/a	n/a	n/a	-999	22	[0, 0, 0]	n/a	FR1	2	R1135E
2786.898	0.0	2792471	TRIAL	n/a	n/a	n/a	-999	23	[0, 0, 0]	n/a	FR1	2	R1135E
2786.898	10.0	2792471	COUNTDOWN_START	n/a	n/a	n/a	-999	23	[0, 0, 0]	n/a	FR1	2	R1135E
2797.326	0.007	2802898	COUNTDOWN_END	n/a	n/a	n/a	-999	23	[0, 0, 0]	n/a	FR1	2	R1135E
2797.333	1.6	2802905	ORIENT	n/a	n/a	n/a	-999	23	[0, 0, 0]	n/a	FR1	2	R1135E
2799.75	1.6	2805322	WORD	n/a	wordpools/wordpool_EN.txt	ROCK	1	23	[0, 0, 0]	n/a	FR1	2	R1135E
2802.284	1.6	2807856	WORD	n/a	wordpools/wordpool_EN.txt	BLOOM	2	23	[0, 0, 0]	n/a	FR1	2	R1135E
2804.718	1.6	2810289	WORD	n/a	wordpools/wordpool_EN.txt	STONE	3	23	[0, 0, 0]	n/a	FR1	2	R1135E
2807.252	1.6	2812823	WORD	n/a	wordpools/wordpool_EN.txt	FUDGE	4	23	[0, 0, 0]	n/a	FR1	2	R1135E
2809.636	1.6	2815207	WORD	n/a	wordpools/wordpool_EN.txt	FLAG	5	23	[0, 0, 0]	n/a	FR1	2	R1135E
2812.036	1.6	2817607	WORD	n/a	wordpools/wordpool_EN.txt	MAZE	6	23	[0, 0, 0]	n/a	FR1	2	R1135E
2814.436	1.6	2820007	WORD	n/a	wordpools/wordpool_EN.txt	FOG	7	23	[0, 0, 0]	n/a	FR1	2	R1135E
2816.987	1.6	2822558	WORD	n/a	wordpools/wordpool_EN.txt	SMOKE	8	23	[0, 0, 0]	n/a	FR1	2	R1135E
2819.536	1.6	2825106	WORD	n/a	wordpools/wordpool_EN.txt	DOCK	9	23	[0, 0, 0]	n/a	FR1	2	R1135E
2822.138	1.6	2827708	WORD	n/a	wordpools/wordpool_EN.txt	CONE	10	23	[0, 0, 0]	n/a	FR1	2	R1135E
2824.52	1.6	2830090	WORD	n/a	wordpools/wordpool_EN.txt	BOY	11	23	[0, 0, 0]	n/a	FR1	2	R1135E
2827.072	1.6	2832642	WORD	n/a	wordpools/wordpool_EN.txt	FORT	12	23	[0, 0, 0]	n/a	FR1	2	R1135E
2828.689	0.001	2834259	DISTRACT_START	n/a	n/a	n/a	-999	23	[0, 0, 0]	n/a	FR1	2	R1135E
2828.69	0.016	2834260	START	n/a	n/a	n/a	-999	23	[-999, -999, -999]	n/a	FR1	2	R1135E
2828.706	13.152	2834276	PROB	13.117	n/a	n/a	-999	23	[3, 2, 5]	10.0	FR1	2	R1135E
2841.858	7.577	2847427	PROB	7.577	n/a	n/a	-999	23	[2, 7, 1]	10.0	FR1	2	R1135E
2849.435	0.007	2855003	STOP	n/a	n/a	n/a	-999	23	[-999, -999, -999]	n/a	FR1	2	R1135E
2849.442	1.218	2855010	DISTRACT_END	n/a	n/a	n/a	-999	23	[0, 0, 0]	n/a	FR1	2	R1135E
2850.66	4.127	2856228	REC_START	n/a	n/a	n/a	-999	23	[0, 0, 0]	n/a	FR1	2	R1135E
2854.787	1.029	2860355	REC_WORD	4.127	n/a	CHILD	-999	23	[0, 0, 0]	n/a	FR1	2	R1135E
2855.816	7.901	2861384	REC_WORD	5.156	n/a	FORT	12	23	[0, 0, 0]	n/a	FR1	2	R1135E
2863.717	16.952	2869284	REC_WORD	13.057	n/a	KEY	-999	23	[0, 0, 0]	n/a	FR1	2	R1135E
2880.669	2.796	2886235	REC_END	n/a	n/a	n/a	-999	23	[0, 0, 0]	n/a	FR1	2	R1135E
2883.465	0.0	2889031	TRIAL	n/a	n/a	n/a	-999	24	[0, 0, 0]	n/a	FR1	2	R1135E
2883.465	10.0	2889031	COUNTDOWN_START	n/a	n/a	n/a	-999	24	[0, 0, 0]	n/a	FR1	2	R1135E
2893.893	0.007	2899458	COUNTDOWN_END	n/a	n/a	n/a	-999	24	[0, 0, 0]	n/a	FR1	2	R1135E
2893.9	1.6	2899465	ORIENT	n/a	n/a	n/a	-999	24	[0, 0, 0]	n/a	FR1	2	R1135E
2896.5	1.6	2902065	WORD	n/a	wordpools/wordpool_EN.txt	STICK	1	24	[0, 0, 0]	n/a	FR1	2	R1135E
2899.035	1.6	2904600	WORD	n/a	wordpools/wordpool_EN.txt	LAKE	2	24	[0, 0, 0]	n/a	FR1	2	R1135E
2901.468	1.6	2907033	WORD	n/a	wordpools/wordpool_EN.txt	CUBE	3	24	[0, 0, 0]	n/a	FR1	2	R1135E
2903.985	1.6	2909550	WORD	n/a	wordpools/wordpool_EN.txt	CHALK	4	24	[0, 0, 0]	n/a	FR1	2	R1135E
2906.586	1.6	2912150	WORD	n/a	wordpools/wordpool_EN.txt	GUARD	5	24	[0, 0, 0]	n/a	FR1	2	R1135E
2909.17	1.6	2914734	WORD	n/a	wordpools/wordpool_EN.txt	JAR	6	24	[0, 0, 0]	n/a	FR1	2	R1135E
2911.703	1.6	2917267	WORD	n/a	wordpools/wordpool_EN.txt	PALM	7	24	[0, 0, 0]	n/a	FR1	2	R1135E
2914.254	1.6	2919818	WORD	n/a	wordpools/wordpool_EN.txt	TENT	8	24	[0, 0, 0]	n/a	FR1	2	R1135E
2916.704	1.6	2922268	WORD	n/a	wordpools/wordpool_EN.txt	SNAKE	9	24	[0, 0, 0]	n/a	FR1	2	R1135E
2919.321	1.6	2924885	WORD	n/a	wordpools/wordpool_EN.txt	CLIFF	10	24	[0, 0, 0]	n/a	FR1	2	R1135E
2921.889	1.6	2927452	WORD	n/a	wordpools/wordpool_EN.txt	CUP	11	24	[0, 0, 0]	n/a	FR1	2	R1135E
2924.289	1.6	2929852	WORD	n/a	wordpools/wordpool_EN.txt	SINK	12	24	[0, 0, 0]	n/a	FR1	2	R1135E
2925.906	0.001	2931469	DISTRACT_START	n/a	n/a	n/a	-999	24	[0, 0, 0]	n/a	FR1	2	R1135E
2925.907	0.016	2931470	START	n/a	n/a	n/a	-999	24	[-999, -999, -999]	n/a	FR1	2	R1135E
2925.923	8.134	2931486	PROB	8.102	n/a	n/a	-999	24	[6, 1, 4]	11.0	FR1	2	R1135E
2934.057	8.552	2939620	PROB	8.525	n/a	n/a	-999	24	[4, 1, 9]	14.0	FR1	2	R1135E
2942.609	11.116	2948171	PROB	11.116	n/a	n/a	-999	24	[5, 7, 7]	19.0	FR1	2	R1135E
2953.725	0.019	2959286	STOP	n/a	n/a	n/a	-999	24	[-999, -999, -999]	n/a	FR1	2	R1135E
2953.744	1.118	2959305	DISTRACT_END	n/a	n/a	n/a	-999	24	[0, 0, 0]	n/a	FR1	2	R1135E
2954.862	2.116	2960423	REC_START	n/a	n/a	n/a	-999	24	[0, 0, 0]	n/a	FR1	2	R1135E
2956.978	27.893	2962539	REC_WORD	2.116	n/a	STICK	1	24	[0, 0, 0]	n/a	FR1	2	R1135E
2984.871	4.063	2990430	REC_END	n/a	n/a	n/a	-999	24	[0, 0, 0]	n/a	FR1	2	R1135E
2988.934	0.0	2994493	TRIAL	n/a	n/a	n/a	-999	25	[0, 0, 0]	n/a	FR1	2	R1135E
2988.934	10.0	2994493	COUNTDOWN_START	n/a	n/a	n/a	-999	25	[0, 0, 0]	n/a	FR1	2	R1135E
2999.362	0.007	3004920	COUNTDOWN_END	n/a	n/a	n/a	-999	25	[0, 0, 0]	n/a	FR1	2	R1135E
2999.369	1.6	3004927	ORIENT	n/a	n/a	n/a	-999	25	[0, 0, 0]	n/a	FR1	2	R1135E
3001.836	1.6	3007394	WORD	n/a	wordpools/wordpool_EN.txt	SAIL	1	25	[0, 0, 0]	n/a	FR1	2	R1135E
3004.37	1.6	3009928	WORD	n/a	wordpools/wordpool_EN.txt	STAR	2	25	[0, 0, 0]	n/a	FR1	2	R1135E
3006.77	1.6	3012328	WORD	n/a	wordpools/wordpool_EN.txt	FILM	3	25	[0, 0, 0]	n/a	FR1	2	R1135E
3009.204	1.6	3014762	WORD	n/a	wordpools/wordpool_EN.txt	PRINCE	4	25	[0, 0, 0]	n/a	FR1	2	R1135E
3011.754	1.6	3017311	WORD	n/a	wordpools/wordpool_EN.txt	JUDGE	5	25	[0, 0, 0]	n/a	FR1	2	R1135E
3014.188	1.6	3019745	WORD	n/a	wordpools/wordpool_EN.txt	BALL	6	25	[0, 0, 0]	n/a	FR1	2	R1135E
3016.588	1.6	3022145	WORD	n/a	wordpools/wordpool_EN.txt	BIRD	7	25	[0, 0, 0]	n/a	FR1	2	R1135E
3019.172	1.6	3024729	WORD	n/a	wordpools/wordpool_EN.txt	NET	8	25	[0, 0, 0]	n/a	FR1	2	R1135E
3021.723	1.6	3027280	WORD	n/a	wordpools/wordpool_EN.txt	CLOUD	9	25	[0, 0, 0]	n/a	FR1	2	R1135E
3024.24	1.6	3029797	WORD	n/a	wordpools/wordpool_EN.txt	INK	10	25	[0, 0, 0]	n/a	FR1	2	R1135E
3026.674	1.6	3032230	WORD	n/a	wordpools/wordpool_EN.txt	HEART	11	25	[0, 0, 0]	n/a	FR1	2	R1135E
3029.207	1.6	3034763	WORD	n/a	wordpools/wordpool_EN.txt	FLUTE	12	25	[0, 0, 0]	n/a	FR1	2	R1135E
3030.824	0.001	3036380	DISTRACT_START	n/a	n/a	n/a	-999	25	[0, 0, 0]	n/a	FR1	2	R1135E
3030.825	0.016	3036381	START	n/a	n/a	n/a	-999	25	[-999, -999, -999]	n/a	FR1	2	R1135E
3030.841	5.718	3036397	PROB	5.689	n/a	n/a	-999	25	[5, 1, 5]	11.0	FR1	2	R1135E
3036.559	16.947	3042115	PROB	16.947	n/a	n/a	-999	25	[6, 8, 6]	20.0	FR1	2	R1135E
3053.506	0.005	3059061	STOP	n/a	n/a	n/a	-999	25	[-999, -999, -999]	n/a	FR1	2	R1135E
3053.511	1.085	3059066	DISTRACT_END	n/a	n/a	n/a	-999	25	[0, 0, 0]	n/a	FR1	2	R1135E
3054.596	1.359	3060151	REC_START	n/a	n/a	n/a	-999	25	[0, 0, 0]	n/a	FR1	2	R1135E
3055.955	9.922	3061509	REC_WORD	1.359	n/a	INK	10	25	[0, 0, 0]	n/a	FR1	2	R1135E
3065.877	18.728	3071431	REC_WORD	11.281	n/a	CHALK	-999	25	[0, 0, 0]	n/a	FR1	2	R1135E
3084.605	9.93	3090158	REC_END	n/a	n/a	n/a	-999	25	[0, 0, 0]	n/a	FR1	2	R1135E
3094.535	0.0	3100087	SESS_END	n/a	n/a	n/a	-999	25	[0, 0, 0]	n/a	FR1	2	R1135E
