onset	duration	sample	trial_type	response_time	stim_file	item_name	serialpos	list	test	answer	experiment	session	subject
0.0	16.257	272828	SESS_START	n/a	n/a	n/a	-999	-999	[0, 0, 0]	n/a	FR1	0	R1084T
16.257	10.0	289084	COUNTDOWN_START	n/a	n/a	n/a	-999	-999	[0, 0, 0]	n/a	FR1	0	R1084T
26.685	3.874	299512	COUNTDOWN_END	n/a	n/a	n/a	-999	-999	[0, 0, 0]	n/a	FR1	0	R1084T
30.559	1.6	303385	PRACTICE_WORD	n/a	n/a	FLOOD	1	-1	[0, 0, 0]	n/a	FR1	0	R1084T
33.16	1.6	305986	PRACTICE_WORD	n/a	n/a	COTTON	2	-1	[0, 0, 0]	n/a	FR1	0	R1084T
35.577	1.6	308403	PRACTICE_WORD	n/a	n/a	WATCH	3	-1	[0, 0, 0]	n/a	FR1	0	R1084T
38.194	1.6	311020	PRACTICE_WORD	n/a	n/a	CHEST	4	-1	[0, 0, 0]	n/a	FR1	0	R1084T
40.645	1.6	313471	PRACTICE_WORD	n/a	n/a	BEAM	5	-1	[0, 0, 0]	n/a	FR1	0	R1084T
43.228	1.6	316054	PRACTICE_WORD	n/a	n/a	CAMEL	6	-1	[0, 0, 0]	n/a	FR1	0	R1084T
45.712	1.6	318538	PRACTICE_WORD	n/a	n/a	IRON	7	-1	[0, 0, 0]	n/a	FR1	0	R1084T
48.163	1.6	320989	PRACTICE_WORD	n/a	n/a	ATTIC	8	-1	[0, 0, 0]	n/a	FR1	0	R1084T
50.746	1.6	323571	PRACTICE_WORD	n/a	n/a	WAGON	9	-1	[0, 0, 0]	n/a	FR1	0	R1084T
53.247	1.6	326072	PRACTICE_WORD	n/a	n/a	RHINO	10	-1	[0, 0, 0]	n/a	FR1	0	R1084T
55.831	1.6	328656	PRACTICE_WORD	n/a	n/a	RING	11	-1	[0, 0, 0]	n/a	FR1	0	R1084T
58.398	1.6	331223	PRACTICE_WORD	n/a	n/a	TONGUE	12	-1	[0, 0, 0]	n/a	FR1	0	R1084T
60.014	0.0	332839	PRACTICE_DISTRACT_START	n/a	n/a	n/a	-999	-1	[0, 0, 0]	n/a	FR1	0	R1084T
60.014	0.017	332839	START	n/a	n/a	n/a	-999	-1	[-999, -999, -999]	n/a	FR1	0	R1084T
60.031	6.218	332856	PROB	6.187	n/a	n/a	-999	-1	[1, 6, 2]	9.0	FR1	0	R1084T
66.249	7.668	339074	PROB	7.641	n/a	n/a	-999	-1	[1, 9, 2]	10.0	FR1	0	R1084T
73.917	6.709	346741	PROB	6.709	n/a	n/a	-999	-1	[1, 4, 5]	10.0	FR1	0	R1084T
80.626	0.009	353450	STOP	n/a	n/a	n/a	-999	-1	[-999, -999, -999]	n/a	FR1	0	R1084T
80.635	0.603	353459	PRACTICE_DISTRACT_END	n/a	n/a	n/a	-999	-1	[0, 0, 0]	n/a	FR1	0	R1084T
81.238	30.514	354062	PRACTICE_REC_START	n/a	n/a	n/a	-999	-1	[0, 0, 0]	n/a	FR1	0	R1084T
111.752	17.241	384574	PRACTICE_REC_END	n/a	n/a	n/a	-999	-1	[0, 0, 0]	n/a	FR1	0	R1084T
128.993	0.0	401815	TRIAL	n/a	n/a	n/a	-999	1	[0, 0, 0]	n/a	FR1	0	R1084T
128.993	10.0	401815	COUNTDOWN_START	n/a	n/a	n/a	-999	1	[0, 0, 0]	n/a	FR1	0	R1084T
139.421	0.008	412242	COUNTDOWN_END	n/a	n/a	n/a	-999	1	[0, 0, 0]	n/a	FR1	0	R1084T
139.429	1.6	412250	ORIENT	n/a	n/a	n/a	-999	1	[0, 0, 0]	n/a	FR1	0	R1084T
141.962	1.6	414783	WORD	n/a	wordpools/wordpool_EN.txt	LIP	1	1	[0, 0, 0]	n/a	FR1	0	R1084T
144.547	1.6	417368	WORD	n/a	wordpools/wordpool_EN.txt	STORE	2	1	[0, 0, 0]	n/a	FR1	0	R1084T
147.114	1.6	419935	WORD	n/a	wordpools/wordpool_EN.txt	SHIRT	3	1	[0, 0, 0]	n/a	FR1	0	R1084T
149.664	1.6	422485	WORD	n/a	wordpools/wordpool_EN.txt	RIB	4	1	[0, 0, 0]	n/a	FR1	0	R1084T
152.198	1.6	425018	WORD	n/a	wordpools/wordpool_EN.txt	MULE	5	1	[0, 0, 0]	n/a	FR1	0	R1084T
154.649	1.6	427469	WORD	n/a	wordpools/wordpool_EN.txt	BOWL	6	1	[0, 0, 0]	n/a	FR1	0	R1084T
157.232	1.6	430052	WORD	n/a	wordpools/wordpool_EN.txt	BREAD	7	1	[0, 0, 0]	n/a	FR1	0	R1084T
159.733	1.6	432553	WORD	n/a	wordpools/wordpool_EN.txt	CHAIR	8	1	[0, 0, 0]	n/a	FR1	0	R1084T
162.3	1.6	435120	WORD	n/a	wordpools/wordpool_EN.txt	BEAN	9	1	[0, 0, 0]	n/a	FR1	0	R1084T
164.884	1.6	437704	WORD	n/a	wordpools/wordpool_EN.txt	PANTS	10	1	[0, 0, 0]	n/a	FR1	0	R1084T
167.284	1.6	440104	WORD	n/a	wordpools/wordpool_EN.txt	BARN	11	1	[0, 0, 0]	n/a	FR1	0	R1084T
169.852	1.6	442672	WORD	n/a	wordpools/wordpool_EN.txt	STOVE	12	1	[0, 0, 0]	n/a	FR1	0	R1084T
171.468	0.001	444288	DISTRACT_START	n/a	n/a	n/a	-999	1	[0, 0, 0]	n/a	FR1	0	R1084T
171.469	0.016	444289	START	n/a	n/a	n/a	-999	1	[-999, -999, -999]	n/a	FR1	0	R1084T
171.485	4.901	444305	PROB	4.869	n/a	n/a	-999	1	[3, 2, 1]	6.0	FR1	0	R1084T
176.386	5.768	449205	PROB	5.736	n/a	n/a	-999	1	[1, 5, 2]	8.0	FR1	0	R1084T
182.154	4.816	454973	PROB	4.783	n/a	n/a	-999	1	[9, 1, 4]	14.0	FR1	0	R1084T
186.97	4.552	459789	PROB	4.552	n/a	n/a	-999	1	[3, 2, 9]	14.0	FR1	0	R1084T
191.522	0.017	464341	STOP	n/a	n/a	n/a	-999	1	[-999, -999, -999]	n/a	FR1	0	R1084T
191.539	1.121	464358	DISTRACT_END	n/a	n/a	n/a	-999	1	[0, 0, 0]	n/a	FR1	0	R1084T
192.66	13.137	465479	REC_START	n/a	n/a	n/a	-999	1	[0, 0, 0]	n/a	FR1	0	R1084T
205.797	9.065	478615	REC_WORD	13.137	n/a	LIP	1	1	[0, 0, 0]	n/a	FR1	0	R1084T
214.862	0.678	487679	REC_WORD	22.202	n/a	CHEST	-999	1	[0, 0, 0]	n/a	FR1	0	R1084T
215.54	7.127	488357	REC_WORD	22.88	n/a	IRON	-999	1	[0, 0, 0]	n/a	FR1	0	R1084T
222.667	14.08	495484	REC_END	n/a	n/a	n/a	-999	1	[0, 0, 0]	n/a	FR1	0	R1084T
236.747	0.0	509563	TRIAL	n/a	n/a	n/a	-999	2	[0, 0, 0]	n/a	FR1	0	R1084T
236.747	10.0	509563	COUNTDOWN_START	n/a	n/a	n/a	-999	2	[0, 0, 0]	n/a	FR1	0	R1084T
247.175	0.007	519991	COUNTDOWN_END	n/a	n/a	n/a	-999	2	[0, 0, 0]	n/a	FR1	0	R1084T
247.182	1.6	519998	ORIENT	n/a	n/a	n/a	-999	2	[0, 0, 0]	n/a	FR1	0	R1084T
249.733	1.6	522549	WORD	n/a	wordpools/wordpool_EN.txt	GLOVE	1	2	[0, 0, 0]	n/a	FR1	0	R1084T
252.133	1.6	524949	WORD	n/a	wordpools/wordpool_EN.txt	PIPE	2	2	[0, 0, 0]	n/a	FR1	0	R1084T
254.75	1.6	527565	WORD	n/a	wordpools/wordpool_EN.txt	FAN	3	2	[0, 0, 0]	n/a	FR1	0	R1084T
257.334	1.6	530149	WORD	n/a	wordpools/wordpool_EN.txt	PURSE	4	2	[0, 0, 0]	n/a	FR1	0	R1084T
259.967	1.6	532782	WORD	n/a	wordpools/wordpool_EN.txt	BAND	5	2	[0, 0, 0]	n/a	FR1	0	R1084T
262.402	1.6	535217	WORD	n/a	wordpools/wordpool_EN.txt	PIN	6	2	[0, 0, 0]	n/a	FR1	0	R1084T
264.902	1.6	537717	WORD	n/a	wordpools/wordpool_EN.txt	WAND	7	2	[0, 0, 0]	n/a	FR1	0	R1084T
267.286	1.6	540101	WORD	n/a	wordpools/wordpool_EN.txt	TOOL	8	2	[0, 0, 0]	n/a	FR1	0	R1084T
269.72	1.6	542535	WORD	n/a	wordpools/wordpool_EN.txt	THUMB	9	2	[0, 0, 0]	n/a	FR1	0	R1084T
272.203	1.6	545018	WORD	n/a	wordpools/wordpool_EN.txt	YARD	10	2	[0, 0, 0]	n/a	FR1	0	R1084T
274.704	1.6	547518	WORD	n/a	wordpools/wordpool_EN.txt	VEST	11	2	[0, 0, 0]	n/a	FR1	0	R1084T
277.321	1.6	550135	WORD	n/a	wordpools/wordpool_EN.txt	DESK	12	2	[0, 0, 0]	n/a	FR1	0	R1084T
278.937	0.001	551751	DISTRACT_START	n/a	n/a	n/a	-999	2	[0, 0, 0]	n/a	FR1	0	R1084T
278.938	0.016	551752	START	n/a	n/a	n/a	-999	2	[-999, -999, -999]	n/a	FR1	0	R1084T
278.954	3.868	551768	PROB	3.832	n/a	n/a	-999	2	[1, 3, 1]	5.0	FR1	0	R1084T
282.822	3.417	555636	PROB	3.396	n/a	n/a	-999	2	[5, 5, 7]	17.0	FR1	0	R1084T
286.239	3.634	559053	PROB	3.611	n/a	n/a	-999	2	[3, 4, 5]	12.0	FR1	0	R1084T
289.873	5.568	562687	PROB	5.537	n/a	n/a	-999	2	[8, 9, 6]	23.0	FR1	0	R1084T
295.441	5.241	568254	PROB	5.241	n/a	n/a	-999	2	[3, 3, 8]	14.0	FR1	0	R1084T
300.682	0.01	573495	STOP	n/a	n/a	n/a	-999	2	[-999, -999, -999]	n/a	FR1	0	R1084T
300.692	1.051	573505	DISTRACT_END	n/a	n/a	n/a	-999	2	[0, 0, 0]	n/a	FR1	0	R1084T
301.743	1.46	574556	REC_START	n/a	n/a	n/a	-999	2	[0, 0, 0]	n/a	FR1	0	R1084T
303.203	1.526	576016	REC_WORD	1.46	n/a	GLOVE	1	2	[0, 0, 0]	n/a	FR1	0	R1084T
304.729	0.906	577542	REC_WORD	2.986	n/a	PIPE	2	2	[0, 0, 0]	n/a	FR1	0	R1084T
305.635	1.475	578448	REC_WORD	3.892	n/a	PAN	-999	2	[0, 0, 0]	n/a	FR1	0	R1084T
307.11	12.386	579923	REC_WORD	5.367	n/a	BAND	5	2	[0, 0, 0]	n/a	FR1	0	R1084T
319.496	12.257	592308	REC_WORD	17.753	n/a	PIN	6	2	[0, 0, 0]	n/a	FR1	0	R1084T
331.753	4.045	604565	REC_END	n/a	n/a	n/a	-999	2	[0, 0, 0]	n/a	FR1	0	R1084T
335.798	10.0	608609	COUNTDOWN_START	n/a	n/a	n/a	-999	3	[0, 0, 0]	n/a	FR1	0	R1084T
335.799	10.427	608610	TRIAL	n/a	n/a	n/a	-999	3	[0, 0, 0]	n/a	FR1	0	R1084T
346.226	0.007	619037	COUNTDOWN_END	n/a	n/a	n/a	-999	3	[0, 0, 0]	n/a	FR1	0	R1084T
346.233	1.6	619044	ORIENT	n/a	n/a	n/a	-999	3	[0, 0, 0]	n/a	FR1	0	R1084T
348.667	1.6	621478	WORD	n/a	wordpools/wordpool_EN.txt	FARM	1	3	[0, 0, 0]	n/a	FR1	0	R1084T
351.151	1.6	623962	WORD	n/a	wordpools/wordpool_EN.txt	LAKE	2	3	[0, 0, 0]	n/a	FR1	0	R1084T
353.618	1.6	626429	WORD	n/a	wordpools/wordpool_EN.txt	SNOW	3	3	[0, 0, 0]	n/a	FR1	0	R1084T
356.235	1.6	629045	WORD	n/a	wordpools/wordpool_EN.txt	RAKE	4	3	[0, 0, 0]	n/a	FR1	0	R1084T
358.619	1.6	631429	WORD	n/a	wordpools/wordpool_EN.txt	CALF	5	3	[0, 0, 0]	n/a	FR1	0	R1084T
361.136	1.6	633946	WORD	n/a	wordpools/wordpool_EN.txt	SPRING	6	3	[0, 0, 0]	n/a	FR1	0	R1084T
363.77	1.6	636580	WORD	n/a	wordpools/wordpool_EN.txt	GRASS	7	3	[0, 0, 0]	n/a	FR1	0	R1084T
366.304	1.6	639114	WORD	n/a	wordpools/wordpool_EN.txt	SKUNK	8	3	[0, 0, 0]	n/a	FR1	0	R1084T
368.704	1.6	641514	WORD	n/a	wordpools/wordpool_EN.txt	WOOD	9	3	[0, 0, 0]	n/a	FR1	0	R1084T
371.238	1.6	644048	WORD	n/a	wordpools/wordpool_EN.txt	SIGN	10	3	[0, 0, 0]	n/a	FR1	0	R1084T
373.872	1.6	646682	WORD	n/a	wordpools/wordpool_EN.txt	ELF	11	3	[0, 0, 0]	n/a	FR1	0	R1084T
376.256	1.6	649065	WORD	n/a	wordpools/wordpool_EN.txt	MOTH	12	3	[0, 0, 0]	n/a	FR1	0	R1084T
377.873	0.001	650682	DISTRACT_START	n/a	n/a	n/a	-999	3	[0, 0, 0]	n/a	FR1	0	R1084T
377.874	0.015	650683	START	n/a	n/a	n/a	-999	3	[-999, -999, -999]	n/a	FR1	0	R1084T
377.889	6.05	650698	PROB	6.017	n/a	n/a	-999	3	[7, 2, 9]	18.0	FR1	0	R1084T
383.939	3.335	656748	PROB	3.311	n/a	n/a	-999	3	[5, 6, 2]	13.0	FR1	0	R1084T
387.274	3.784	660083	PROB	3.76	n/a	n/a	-999	3	[1, 2, 9]	12.0	FR1	0	R1084T
391.058	4.301	663867	PROB	4.28	n/a	n/a	-999	3	[8, 3, 8]	19.0	FR1	0	R1084T
395.359	3.658	668168	PROB	3.658	n/a	n/a	-999	3	[2, 1, 4]	7.0	FR1	0	R1084T
399.017	0.009	671825	STOP	n/a	n/a	n/a	-999	3	[-999, -999, -999]	n/a	FR1	0	R1084T
399.026	1.168	671834	DISTRACT_END	n/a	n/a	n/a	-999	3	[0, 0, 0]	n/a	FR1	0	R1084T
400.194	4.101	673002	REC_START	n/a	n/a	n/a	-999	3	[0, 0, 0]	n/a	FR1	0	R1084T
404.295	2.172	677103	REC_WORD	4.101	n/a	SNAKE	-999	3	[0, 0, 0]	n/a	FR1	0	R1084T
406.467	1.74	679275	REC_WORD	6.273	n/a	RAKE	4	3	[0, 0, 0]	n/a	FR1	0	R1084T
408.207	1.442	681015	REC_WORD	8.013	n/a	GRASS	7	3	[0, 0, 0]	n/a	FR1	0	R1084T
409.649	14.994	682457	REC_WORD	9.455	n/a	FARM	1	3	[0, 0, 0]	n/a	FR1	0	R1084T
424.643	5.56	697450	REC_WORD	24.449	n/a	GRASS	7	3	[0, 0, 0]	n/a	FR1	0	R1084T
430.203	2.18	703010	REC_END	n/a	n/a	n/a	-999	3	[0, 0, 0]	n/a	FR1	0	R1084T
432.383	10.0	705190	COUNTDOWN_START	n/a	n/a	n/a	-999	4	[0, 0, 0]	n/a	FR1	0	R1084T
432.383	10.428	705190	TRIAL	n/a	n/a	n/a	-999	4	[0, 0, 0]	n/a	FR1	0	R1084T
442.811	0.007	715617	COUNTDOWN_END	n/a	n/a	n/a	-999	4	[0, 0, 0]	n/a	FR1	0	R1084T
442.818	1.6	715624	ORIENT	n/a	n/a	n/a	-999	4	[0, 0, 0]	n/a	FR1	0	R1084T
445.301	1.6	718107	WORD	n/a	wordpools/wordpool_EN.txt	NEST	1	4	[0, 0, 0]	n/a	FR1	0	R1084T
447.719	1.6	720525	WORD	n/a	wordpools/wordpool_EN.txt	CAKE	2	4	[0, 0, 0]	n/a	FR1	0	R1084T
450.202	1.6	723008	WORD	n/a	wordpools/wordpool_EN.txt	CHEEK	3	4	[0, 0, 0]	n/a	FR1	0	R1084T
452.786	1.6	725592	WORD	n/a	wordpools/wordpool_EN.txt	FACE	4	4	[0, 0, 0]	n/a	FR1	0	R1084T
455.303	1.6	728109	WORD	n/a	wordpools/wordpool_EN.txt	FORK	5	4	[0, 0, 0]	n/a	FR1	0	R1084T
457.72	1.6	730525	WORD	n/a	wordpools/wordpool_EN.txt	CUP	6	4	[0, 0, 0]	n/a	FR1	0	R1084T
460.104	1.6	732909	WORD	n/a	wordpools/wordpool_EN.txt	MOOSE	7	4	[0, 0, 0]	n/a	FR1	0	R1084T
462.521	1.6	735326	WORD	n/a	wordpools/wordpool_EN.txt	AXE	8	4	[0, 0, 0]	n/a	FR1	0	R1084T
465.138	1.6	737943	WORD	n/a	wordpools/wordpool_EN.txt	TOAST	9	4	[0, 0, 0]	n/a	FR1	0	R1084T
467.689	1.6	740494	WORD	n/a	wordpools/wordpool_EN.txt	HEN	10	4	[0, 0, 0]	n/a	FR1	0	R1084T
470.123	1.6	742928	WORD	n/a	wordpools/wordpool_EN.txt	FRUIT	11	4	[0, 0, 0]	n/a	FR1	0	R1084T
472.656	1.6	745461	WORD	n/a	wordpools/wordpool_EN.txt	PALM	12	4	[0, 0, 0]	n/a	FR1	0	R1084T
474.273	0.001	747078	DISTRACT_START	n/a	n/a	n/a	-999	4	[0, 0, 0]	n/a	FR1	0	R1084T
474.274	0.016	747079	START	n/a	n/a	n/a	-999	4	[-999, -999, -999]	n/a	FR1	0	R1084T
474.29	4.501	747095	PROB	4.472	n/a	n/a	-999	4	[8, 3, 2]	13.0	FR1	0	R1084T
478.791	3.584	751595	PROB	3.563	n/a	n/a	-999	4	[9, 2, 5]	16.0	FR1	0	R1084T
482.375	3.667	755179	PROB	3.642	n/a	n/a	-999	4	[2, 5, 1]	8.0	FR1	0	R1084T
486.042	3.017	758846	PROB	2.984	n/a	n/a	-999	4	[6, 1, 8]	15.0	FR1	0	R1084T
489.059	3.134	761863	PROB	3.111	n/a	n/a	-999	4	[2, 7, 4]	13.0	FR1	0	R1084T
492.193	7.721	764997	PROB	7.721	n/a	n/a	-999	4	[9, 9, 4]	23.0	FR1	0	R1084T
499.914	0.014	772717	STOP	n/a	n/a	n/a	-999	4	[-999, -999, -999]	n/a	FR1	0	R1084T
499.928	1.218	772731	DISTRACT_END	n/a	n/a	n/a	-999	4	[0, 0, 0]	n/a	FR1	0	R1084T
501.146	6.509	773949	REC_START	n/a	n/a	n/a	-999	4	[0, 0, 0]	n/a	FR1	0	R1084T
507.655	17.929	780458	REC_WORD	6.509	n/a	FRUIT	11	4	[0, 0, 0]	n/a	FR1	0	R1084T
525.584	5.572	798386	REC_WORD	24.438	n/a	REST	-999	4	[0, 0, 0]	n/a	FR1	0	R1084T
531.156	21.698	803958	REC_END	n/a	n/a	n/a	-999	4	[0, 0, 0]	n/a	FR1	0	R1084T
552.854	10.0	825655	COUNTDOWN_START	n/a	n/a	n/a	-999	5	[0, 0, 0]	n/a	FR1	0	R1084T
552.855	10.427	825656	TRIAL	n/a	n/a	n/a	-999	5	[0, 0, 0]	n/a	FR1	0	R1084T
563.282	0.008	836082	COUNTDOWN_END	n/a	n/a	n/a	-999	5	[0, 0, 0]	n/a	FR1	0	R1084T
563.29	1.6	836090	ORIENT	n/a	n/a	n/a	-999	5	[0, 0, 0]	n/a	FR1	0	R1084T
565.873	1.6	838673	WORD	n/a	wordpools/wordpool_EN.txt	SEAT	1	5	[0, 0, 0]	n/a	FR1	0	R1084T
568.457	1.6	841257	WORD	n/a	wordpools/wordpool_EN.txt	ROOF	2	5	[0, 0, 0]	n/a	FR1	0	R1084T
571.058	1.6	843858	WORD	n/a	wordpools/wordpool_EN.txt	HAND	3	5	[0, 0, 0]	n/a	FR1	0	R1084T
573.525	1.6	846325	WORD	n/a	wordpools/wordpool_EN.txt	BADGE	4	5	[0, 0, 0]	n/a	FR1	0	R1084T
576.042	1.6	848842	WORD	n/a	wordpools/wordpool_EN.txt	DIME	5	5	[0, 0, 0]	n/a	FR1	0	R1084T
578.442	1.6	851242	WORD	n/a	wordpools/wordpool_EN.txt	MAT	6	5	[0, 0, 0]	n/a	FR1	0	R1084T
580.876	1.6	853675	WORD	n/a	wordpools/wordpool_EN.txt	STICK	7	5	[0, 0, 0]	n/a	FR1	0	R1084T
583.477	1.6	856276	WORD	n/a	wordpools/wordpool_EN.txt	KITE	8	5	[0, 0, 0]	n/a	FR1	0	R1084T
586.009	1.6	858808	WORD	n/a	wordpools/wordpool_EN.txt	SMILE	9	5	[0, 0, 0]	n/a	FR1	0	R1084T
588.478	1.6	861277	WORD	n/a	wordpools/wordpool_EN.txt	SCHOOL	10	5	[0, 0, 0]	n/a	FR1	0	R1084T
590.911	1.6	863710	WORD	n/a	wordpools/wordpool_EN.txt	CANE	11	5	[0, 0, 0]	n/a	FR1	0	R1084T
593.295	1.6	866094	WORD	n/a	wordpools/wordpool_EN.txt	COUCH	12	5	[0, 0, 0]	n/a	FR1	0	R1084T
594.912	0.001	867711	DISTRACT_START	n/a	n/a	n/a	-999	5	[0, 0, 0]	n/a	FR1	0	R1084T
594.913	0.016	867712	START	n/a	n/a	n/a	-999	5	[-999, -999, -999]	n/a	FR1	0	R1084T
594.929	5.567	867728	PROB	5.545	n/a	n/a	-999	5	[6, 1, 5]	12.0	FR1	0	R1084T
600.496	3.918	873294	PROB	3.882	n/a	n/a	-999	5	[5, 9, 1]	15.0	FR1	0	R1084T
604.414	2.934	877212	PROB	2.908	n/a	n/a	-999	5	[7, 4, 1]	12.0	FR1	0	R1084T
607.348	3.8	880146	PROB	3.774	n/a	n/a	-999	5	[3, 2, 4]	9.0	FR1	0	R1084T
611.148	4.366	883946	PROB	4.366	n/a	n/a	-999	5	[3, 1, 2]	6.0	FR1	0	R1084T
615.514	0.018	888312	STOP	n/a	n/a	n/a	-999	5	[-999, -999, -999]	n/a	FR1	0	R1084T
615.532	1.051	888330	DISTRACT_END	n/a	n/a	n/a	-999	5	[0, 0, 0]	n/a	FR1	0	R1084T
616.583	2.246	889381	REC_START	n/a	n/a	n/a	-999	5	[0, 0, 0]	n/a	FR1	0	R1084T
618.829	27.766	891627	REC_WORD	2.246	n/a	SCHOOL	10	5	[0, 0, 0]	n/a	FR1	0	R1084T
646.595	16.979	919391	REC_END	n/a	n/a	n/a	-999	5	[0, 0, 0]	n/a	FR1	0	R1084T
663.574	0.0	936369	TRIAL	n/a	n/a	n/a	-999	6	[0, 0, 0]	n/a	FR1	0	R1084T
663.574	10.0	936369	COUNTDOWN_START	n/a	n/a	n/a	-999	6	[0, 0, 0]	n/a	FR1	0	R1084T
674.002	0.007	946797	COUNTDOWN_END	n/a	n/a	n/a	-999	6	[0, 0, 0]	n/a	FR1	0	R1084T
674.009	1.6	946804	ORIENT	n/a	n/a	n/a	-999	6	[0, 0, 0]	n/a	FR1	0	R1084T
676.543	1.6	949338	WORD	n/a	wordpools/wordpool_EN.txt	NET	1	6	[0, 0, 0]	n/a	FR1	0	R1084T
679.044	1.6	951839	WORD	n/a	wordpools/wordpool_EN.txt	MILK	2	6	[0, 0, 0]	n/a	FR1	0	R1084T
681.611	1.6	954405	WORD	n/a	wordpools/wordpool_EN.txt	CASH	3	6	[0, 0, 0]	n/a	FR1	0	R1084T
684.01	1.6	956804	WORD	n/a	wordpools/wordpool_EN.txt	GOLD	4	6	[0, 0, 0]	n/a	FR1	0	R1084T
686.562	1.6	959356	WORD	n/a	wordpools/wordpool_EN.txt	STEAK	5	6	[0, 0, 0]	n/a	FR1	0	R1084T
688.978	1.6	961772	WORD	n/a	wordpools/wordpool_EN.txt	GRAPE	6	6	[0, 0, 0]	n/a	FR1	0	R1084T
691.396	1.6	964190	WORD	n/a	wordpools/wordpool_EN.txt	CORN	7	6	[0, 0, 0]	n/a	FR1	0	R1084T
693.78	1.6	966574	WORD	n/a	wordpools/wordpool_EN.txt	CLOTH	8	6	[0, 0, 0]	n/a	FR1	0	R1084T
696.247	1.6	969041	WORD	n/a	wordpools/wordpool_EN.txt	FILM	9	6	[0, 0, 0]	n/a	FR1	0	R1084T
698.647	1.6	971441	WORD	n/a	wordpools/wordpool_EN.txt	PIG	10	6	[0, 0, 0]	n/a	FR1	0	R1084T
701.148	1.6	973941	WORD	n/a	wordpools/wordpool_EN.txt	BEAK	11	6	[0, 0, 0]	n/a	FR1	0	R1084T
703.715	1.6	976508	WORD	n/a	wordpools/wordpool_EN.txt	PEARL	12	6	[0, 0, 0]	n/a	FR1	0	R1084T
705.332	0.001	978125	DISTRACT_START	n/a	n/a	n/a	-999	6	[0, 0, 0]	n/a	FR1	0	R1084T
705.333	0.016	978126	START	n/a	n/a	n/a	-999	6	[-999, -999, -999]	n/a	FR1	0	R1084T
705.349	6.034	978142	PROB	6.005	n/a	n/a	-999	6	[7, 3, 8]	18.0	FR1	0	R1084T
711.383	2.801	984176	PROB	2.779	n/a	n/a	-999	6	[8, 1, 2]	11.0	FR1	0	R1084T
714.184	3.9	986977	PROB	3.874	n/a	n/a	-999	6	[3, 8, 7]	18.0	FR1	0	R1084T
718.084	3.834	990877	PROB	3.798	n/a	n/a	-999	6	[1, 7, 4]	12.0	FR1	0	R1084T
721.918	4.019	994710	PROB	4.019	n/a	n/a	-999	6	[9, 3, 9]	21.0	FR1	0	R1084T
725.937	0.014	998729	STOP	n/a	n/a	n/a	-999	6	[-999, -999, -999]	n/a	FR1	0	R1084T
725.951	1.034	998743	DISTRACT_END	n/a	n/a	n/a	-999	6	[0, 0, 0]	n/a	FR1	0	R1084T
726.985	1.658	999777	REC_START	n/a	n/a	n/a	-999	6	[0, 0, 0]	n/a	FR1	0	R1084T
728.643	0.908	1001435	REC_WORD	1.658	n/a	MILK	2	6	[0, 0, 0]	n/a	FR1	0	R1084T
729.551	8.637	1002343	REC_WORD	2.566	n/a	CASH	3	6	[0, 0, 0]	n/a	FR1	0	R1084T
738.188	10.005	1010980	REC_WORD	11.203	n/a	GOLD	4	6	[0, 0, 0]	n/a	FR1	0	R1084T
748.193	8.803	1020984	REC_WORD	21.208	n/a	CASH	3	6	[0, 0, 0]	n/a	FR1	0	R1084T
756.996	5.546	1029787	REC_END	n/a	n/a	n/a	-999	6	[0, 0, 0]	n/a	FR1	0	R1084T
762.542	10.0	1035332	COUNTDOWN_START	n/a	n/a	n/a	-999	7	[0, 0, 0]	n/a	FR1	0	R1084T
762.543	10.427	1035333	TRIAL	n/a	n/a	n/a	-999	7	[0, 0, 0]	n/a	FR1	0	R1084T
772.97	0.007	1045760	COUNTDOWN_END	n/a	n/a	n/a	-999	7	[0, 0, 0]	n/a	FR1	0	R1084T
772.977	1.6	1045767	ORIENT	n/a	n/a	n/a	-999	7	[0, 0, 0]	n/a	FR1	0	R1084T
775.361	1.6	1048151	WORD	n/a	wordpools/wordpool_EN.txt	FORT	1	7	[0, 0, 0]	n/a	FR1	0	R1084T
777.795	1.6	1050585	WORD	n/a	wordpools/wordpool_EN.txt	ZOO	2	7	[0, 0, 0]	n/a	FR1	0	R1084T
780.362	1.6	1053152	WORD	n/a	wordpools/wordpool_EN.txt	SHARK	3	7	[0, 0, 0]	n/a	FR1	0	R1084T
782.829	1.6	1055618	WORD	n/a	wordpools/wordpool_EN.txt	ROCK	4	7	[0, 0, 0]	n/a	FR1	0	R1084T
785.33	1.6	1058119	WORD	n/a	wordpools/wordpool_EN.txt	SAIL	5	7	[0, 0, 0]	n/a	FR1	0	R1084T
787.797	1.6	1060586	WORD	n/a	wordpools/wordpool_EN.txt	BEACH	6	7	[0, 0, 0]	n/a	FR1	0	R1084T
790.364	1.6	1063153	WORD	n/a	wordpools/wordpool_EN.txt	FLAG	7	7	[0, 0, 0]	n/a	FR1	0	R1084T
792.814	1.6	1065603	WORD	n/a	wordpools/wordpool_EN.txt	FUR	8	7	[0, 0, 0]	n/a	FR1	0	R1084T
795.232	1.6	1068021	WORD	n/a	wordpools/wordpool_EN.txt	DOG	9	7	[0, 0, 0]	n/a	FR1	0	R1084T
797.632	1.6	1070421	WORD	n/a	wordpools/wordpool_EN.txt	FLEA	10	7	[0, 0, 0]	n/a	FR1	0	R1084T
800.133	1.6	1072922	WORD	n/a	wordpools/wordpool_EN.txt	JAIL	11	7	[0, 0, 0]	n/a	FR1	0	R1084T
802.55	1.6	1075338	WORD	n/a	wordpools/wordpool_EN.txt	TRASH	12	7	[0, 0, 0]	n/a	FR1	0	R1084T
804.167	0.0	1076955	DISTRACT_START	n/a	n/a	n/a	-999	7	[0, 0, 0]	n/a	FR1	0	R1084T
804.167	0.016	1076955	START	n/a	n/a	n/a	-999	7	[-999, -999, -999]	n/a	FR1	0	R1084T
804.183	21.067	1076971	PROB	21.067	n/a	n/a	-999	7	[3, 8, 9]	20.0	FR1	0	R1084T
825.25	0.004	1098037	STOP	n/a	n/a	n/a	-999	7	[-999, -999, -999]	n/a	FR1	0	R1084T
825.254	1.168	1098041	DISTRACT_END	n/a	n/a	n/a	-999	7	[0, 0, 0]	n/a	FR1	0	R1084T
826.422	1.455	1099209	REC_START	n/a	n/a	n/a	-999	7	[0, 0, 0]	n/a	FR1	0	R1084T
827.877	0.608	1100664	REC_WORD	1.455	n/a	FUR	8	7	[0, 0, 0]	n/a	FR1	0	R1084T
828.485	0.468	1101272	REC_WORD	2.063	n/a	DOG	9	7	[0, 0, 0]	n/a	FR1	0	R1084T
828.953	0.669	1101740	REC_WORD	2.531	n/a	FLEA	10	7	[0, 0, 0]	n/a	FR1	0	R1084T
829.622	0.583	1102409	REC_WORD	3.2	n/a	JAIL	11	7	[0, 0, 0]	n/a	FR1	0	R1084T
830.205	8.697	1102992	REC_WORD	3.783	n/a	ZOO	2	7	[0, 0, 0]	n/a	FR1	0	R1084T
838.902	17.531	1111689	REC_WORD	12.48	n/a	ZOO	2	7	[0, 0, 0]	n/a	FR1	0	R1084T
856.433	3.294	1129219	REC_END	n/a	n/a	n/a	-999	7	[0, 0, 0]	n/a	FR1	0	R1084T
859.727	0.0	1132513	TRIAL	n/a	n/a	n/a	-999	8	[0, 0, 0]	n/a	FR1	0	R1084T
859.727	10.0	1132513	COUNTDOWN_START	n/a	n/a	n/a	-999	8	[0, 0, 0]	n/a	FR1	0	R1084T
870.155	0.007	1142940	COUNTDOWN_END	n/a	n/a	n/a	-999	8	[0, 0, 0]	n/a	FR1	0	R1084T
870.162	1.6	1142947	ORIENT	n/a	n/a	n/a	-999	8	[0, 0, 0]	n/a	FR1	0	R1084T
872.646	1.6	1145431	WORD	n/a	wordpools/wordpool_EN.txt	WOLF	1	8	[0, 0, 0]	n/a	FR1	0	R1084T
875.079	1.6	1147864	WORD	n/a	wordpools/wordpool_EN.txt	SHEEP	2	8	[0, 0, 0]	n/a	FR1	0	R1084T
877.58	1.6	1150365	WORD	n/a	wordpools/wordpool_EN.txt	RUG	3	8	[0, 0, 0]	n/a	FR1	0	R1084T
880.064	1.6	1152849	WORD	n/a	wordpools/wordpool_EN.txt	SPARK	4	8	[0, 0, 0]	n/a	FR1	0	R1084T
882.614	1.6	1155399	WORD	n/a	wordpools/wordpool_EN.txt	SUN	5	8	[0, 0, 0]	n/a	FR1	0	R1084T
885.013	1.6	1157797	WORD	n/a	wordpools/wordpool_EN.txt	CONE	6	8	[0, 0, 0]	n/a	FR1	0	R1084T
887.382	1.6	1160166	WORD	n/a	wordpools/wordpool_EN.txt	ICE	7	8	[0, 0, 0]	n/a	FR1	0	R1084T
889.799	1.6	1162583	WORD	n/a	wordpools/wordpool_EN.txt	WHALE	8	8	[0, 0, 0]	n/a	FR1	0	R1084T
892.216	1.6	1165000	WORD	n/a	wordpools/wordpool_EN.txt	NAIL	9	8	[0, 0, 0]	n/a	FR1	0	R1084T
894.816	1.6	1167600	WORD	n/a	wordpools/wordpool_EN.txt	CLIFF	10	8	[0, 0, 0]	n/a	FR1	0	R1084T
897.25	1.6	1170034	WORD	n/a	wordpools/wordpool_EN.txt	JEEP	11	8	[0, 0, 0]	n/a	FR1	0	R1084T
899.817	1.6	1172601	WORD	n/a	wordpools/wordpool_EN.txt	CROW	12	8	[0, 0, 0]	n/a	FR1	0	R1084T
901.434	0.001	1174218	DISTRACT_START	n/a	n/a	n/a	-999	8	[0, 0, 0]	n/a	FR1	0	R1084T
901.435	0.016	1174219	START	n/a	n/a	n/a	-999	8	[-999, -999, -999]	n/a	FR1	0	R1084T
901.451	4.651	1174235	PROB	4.615	n/a	n/a	-999	8	[1, 9, 2]	12.0	FR1	0	R1084T
906.102	4.2	1178885	PROB	4.172	n/a	n/a	-999	8	[7, 2, 6]	15.0	FR1	0	R1084T
910.302	4.935	1183085	PROB	4.908	n/a	n/a	-999	8	[7, 5, 7]	19.0	FR1	0	R1084T
915.237	5.267	1188020	PROB	5.237	n/a	n/a	-999	8	[5, 3, 8]	16.0	FR1	0	R1084T
920.504	3.594	1193287	PROB	3.594	n/a	n/a	-999	8	[3, 7, 3]	13.0	FR1	0	R1084T
924.098	0.007	1196880	STOP	n/a	n/a	n/a	-999	8	[-999, -999, -999]	n/a	FR1	0	R1084T
924.105	1.118	1196887	DISTRACT_END	n/a	n/a	n/a	-999	8	[0, 0, 0]	n/a	FR1	0	R1084T
925.223	1.947	1198005	REC_START	n/a	n/a	n/a	-999	8	[0, 0, 0]	n/a	FR1	0	R1084T
927.17	0.882	1199952	REC_WORD	1.947	n/a	WOLF	1	8	[0, 0, 0]	n/a	FR1	0	R1084T
928.052	4.966	1200834	REC_WORD	2.829	n/a	SHEEP	2	8	[0, 0, 0]	n/a	FR1	0	R1084T
933.018	9.399	1205800	REC_WORD	7.795	n/a	RUG	3	8	[0, 0, 0]	n/a	FR1	0	R1084T
942.417	12.816	1215199	REC_WORD	17.194	n/a	ZOO	-999	8	[0, 0, 0]	n/a	FR1	0	R1084T
955.233	9.946	1228014	REC_END	n/a	n/a	n/a	-999	8	[0, 0, 0]	n/a	FR1	0	R1084T
965.179	0.0	1237959	TRIAL	n/a	n/a	n/a	-999	9	[0, 0, 0]	n/a	FR1	0	R1084T
965.179	10.0	1237959	COUNTDOWN_START	n/a	n/a	n/a	-999	9	[0, 0, 0]	n/a	FR1	0	R1084T
975.607	0.007	1248387	COUNTDOWN_END	n/a	n/a	n/a	-999	9	[0, 0, 0]	n/a	FR1	0	R1084T
975.614	1.6	1248394	ORIENT	n/a	n/a	n/a	-999	9	[0, 0, 0]	n/a	FR1	0	R1084T
978.014	1.6	1250794	WORD	n/a	wordpools/wordpool_EN.txt	CLAY	1	9	[0, 0, 0]	n/a	FR1	0	R1084T
980.615	1.6	1253395	WORD	n/a	wordpools/wordpool_EN.txt	INK	2	9	[0, 0, 0]	n/a	FR1	0	R1084T
983.182	1.6	1255962	WORD	n/a	wordpools/wordpool_EN.txt	CHIN	3	9	[0, 0, 0]	n/a	FR1	0	R1084T
985.616	1.6	1258395	WORD	n/a	wordpools/wordpool_EN.txt	BANK	4	9	[0, 0, 0]	n/a	FR1	0	R1084T
988.05	1.6	1260829	WORD	n/a	wordpools/wordpool_EN.txt	PEACH	5	9	[0, 0, 0]	n/a	FR1	0	R1084T
990.584	1.6	1263363	WORD	n/a	wordpools/wordpool_EN.txt	STOOL	6	9	[0, 0, 0]	n/a	FR1	0	R1084T
993.051	1.6	1265830	WORD	n/a	wordpools/wordpool_EN.txt	BENCH	7	9	[0, 0, 0]	n/a	FR1	0	R1084T
995.468	1.6	1268247	WORD	n/a	wordpools/wordpool_EN.txt	THREAD	8	9	[0, 0, 0]	n/a	FR1	0	R1084T
998.001	1.6	1270780	WORD	n/a	wordpools/wordpool_EN.txt	LAMP	9	9	[0, 0, 0]	n/a	FR1	0	R1084T
1000.486	1.6	1273265	WORD	n/a	wordpools/wordpool_EN.txt	SOAP	10	9	[0, 0, 0]	n/a	FR1	0	R1084T
1003.036	1.6	1275815	WORD	n/a	wordpools/wordpool_EN.txt	FLUTE	11	9	[0, 0, 0]	n/a	FR1	0	R1084T
1005.42	1.6	1278198	WORD	n/a	wordpools/wordpool_EN.txt	PASTE	12	9	[0, 0, 0]	n/a	FR1	0	R1084T
1007.037	0.001	1279815	DISTRACT_START	n/a	n/a	n/a	-999	9	[0, 0, 0]	n/a	FR1	0	R1084T
1007.038	0.015	1279816	START	n/a	n/a	n/a	-999	9	[-999, -999, -999]	n/a	FR1	0	R1084T
1007.053	5.768	1279831	PROB	5.733	n/a	n/a	-999	9	[9, 7, 6]	22.0	FR1	0	R1084T
1012.821	8.752	1285599	PROB	8.725	n/a	n/a	-999	9	[8, 8, 6]	22.0	FR1	0	R1084T
1021.573	4.366	1294351	PROB	4.333	n/a	n/a	-999	9	[9, 6, 7]	22.0	FR1	0	R1084T
1025.939	8.263	1298716	PROB	8.263	n/a	n/a	-999	9	[7, 3, 4]	14.0	FR1	0	R1084T
1034.202	0.006	1306979	STOP	n/a	n/a	n/a	-999	9	[-999, -999, -999]	n/a	FR1	0	R1084T
1034.208	1.218	1306985	DISTRACT_END	n/a	n/a	n/a	-999	9	[0, 0, 0]	n/a	FR1	0	R1084T
1035.426	30.0	1308203	REC_START	n/a	n/a	n/a	-999	9	[0, 0, 0]	n/a	FR1	0	R1084T
1065.426	0.01	1338202	REC_WORD_VV	30.0	n/a	<>	-999	9	[0, 0, 0]	n/a	FR1	0	R1084T
1065.436	11.93	1338212	REC_END	n/a	n/a	n/a	-999	9	[0, 0, 0]	n/a	FR1	0	R1084T
1077.366	0.0	1350141	TRIAL	n/a	n/a	n/a	-999	10	[0, 0, 0]	n/a	FR1	0	R1084T
1077.366	10.0	1350141	COUNTDOWN_START	n/a	n/a	n/a	-999	10	[0, 0, 0]	n/a	FR1	0	R1084T
1087.794	0.007	1360568	COUNTDOWN_END	n/a	n/a	n/a	-999	10	[0, 0, 0]	n/a	FR1	0	R1084T
1087.801	1.6	1360575	ORIENT	n/a	n/a	n/a	-999	10	[0, 0, 0]	n/a	FR1	0	R1084T
1090.235	1.6	1363009	WORD	n/a	wordpools/wordpool_EN.txt	GUARD	1	10	[0, 0, 0]	n/a	FR1	0	R1084T
1092.719	1.6	1365493	WORD	n/a	wordpools/wordpool_EN.txt	FENCE	2	10	[0, 0, 0]	n/a	FR1	0	R1084T
1095.32	1.6	1368094	WORD	n/a	wordpools/wordpool_EN.txt	DOLL	3	10	[0, 0, 0]	n/a	FR1	0	R1084T
1097.72	1.6	1370494	WORD	n/a	wordpools/wordpool_EN.txt	BAT	4	10	[0, 0, 0]	n/a	FR1	0	R1084T
1100.237	1.6	1373011	WORD	n/a	wordpools/wordpool_EN.txt	LEG	5	10	[0, 0, 0]	n/a	FR1	0	R1084T
1102.621	1.6	1375395	WORD	n/a	wordpools/wordpool_EN.txt	HORN	6	10	[0, 0, 0]	n/a	FR1	0	R1084T
1105.071	1.6	1377845	WORD	n/a	wordpools/wordpool_EN.txt	OAR	7	10	[0, 0, 0]	n/a	FR1	0	R1084T
1107.472	1.6	1380245	WORD	n/a	wordpools/wordpool_EN.txt	FOOT	8	10	[0, 0, 0]	n/a	FR1	0	R1084T
1109.971	1.6	1382744	WORD	n/a	wordpools/wordpool_EN.txt	BOY	9	10	[0, 0, 0]	n/a	FR1	0	R1084T
1112.456	1.6	1385229	WORD	n/a	wordpools/wordpool_EN.txt	SOCK	10	10	[0, 0, 0]	n/a	FR1	0	R1084T
1114.856	1.6	1387629	WORD	n/a	wordpools/wordpool_EN.txt	LOCK	11	10	[0, 0, 0]	n/a	FR1	0	R1084T
1117.307	1.6	1390080	WORD	n/a	wordpools/wordpool_EN.txt	PEN	12	10	[0, 0, 0]	n/a	FR1	0	R1084T
1118.924	0.001	1391697	DISTRACT_START	n/a	n/a	n/a	-999	10	[0, 0, 0]	n/a	FR1	0	R1084T
1118.925	0.014	1391698	START	n/a	n/a	n/a	-999	10	[-999, -999, -999]	n/a	FR1	0	R1084T
1118.939	6.035	1391712	PROB	6.014	n/a	n/a	-999	10	[7, 5, 9]	21.0	FR1	0	R1084T
1124.974	4.118	1397747	PROB	4.084	n/a	n/a	-999	10	[4, 6, 5]	15.0	FR1	0	R1084T
1129.092	3.084	1401864	PROB	3.062	n/a	n/a	-999	10	[1, 6, 6]	13.0	FR1	0	R1084T
1132.176	4.351	1404948	PROB	4.322	n/a	n/a	-999	10	[2, 7, 7]	16.0	FR1	0	R1084T
1136.527	3.907	1409299	PROB	3.907	n/a	n/a	-999	10	[2, 4, 8]	14.0	FR1	0	R1084T
1140.434	0.01	1413206	STOP	n/a	n/a	n/a	-999	10	[-999, -999, -999]	n/a	FR1	0	R1084T
1140.444	1.151	1413216	DISTRACT_END	n/a	n/a	n/a	-999	10	[0, 0, 0]	n/a	FR1	0	R1084T
1141.595	2.977	1414367	REC_START	n/a	n/a	n/a	-999	10	[0, 0, 0]	n/a	FR1	0	R1084T
1144.572	0.84	1417344	REC_WORD	2.977	n/a	FOOT	8	10	[0, 0, 0]	n/a	FR1	0	R1084T
1145.412	1.022	1418184	REC_WORD	3.817	n/a	SOCK	10	10	[0, 0, 0]	n/a	FR1	0	R1084T
1146.434	25.171	1419206	REC_WORD	4.839	n/a	DOLL	3	10	[0, 0, 0]	n/a	FR1	0	R1084T
1171.605	2.695	1444375	REC_END	n/a	n/a	n/a	-999	10	[0, 0, 0]	n/a	FR1	0	R1084T
1174.3	10.0	1447070	COUNTDOWN_START	n/a	n/a	n/a	-999	11	[0, 0, 0]	n/a	FR1	0	R1084T
1174.301	10.427	1447071	TRIAL	n/a	n/a	n/a	-999	11	[0, 0, 0]	n/a	FR1	0	R1084T
1184.728	0.008	1457498	COUNTDOWN_END	n/a	n/a	n/a	-999	11	[0, 0, 0]	n/a	FR1	0	R1084T
1184.736	1.6	1457506	ORIENT	n/a	n/a	n/a	-999	11	[0, 0, 0]	n/a	FR1	0	R1084T
1187.269	1.6	1460039	WORD	n/a	wordpools/wordpool_EN.txt	TANK	1	11	[0, 0, 0]	n/a	FR1	0	R1084T
1189.653	1.6	1462422	WORD	n/a	wordpools/wordpool_EN.txt	HOSE	2	11	[0, 0, 0]	n/a	FR1	0	R1084T
1192.154	1.6	1464923	WORD	n/a	wordpools/wordpool_EN.txt	BOMB	3	11	[0, 0, 0]	n/a	FR1	0	R1084T
1194.654	1.6	1467423	WORD	n/a	wordpools/wordpool_EN.txt	COIN	4	11	[0, 0, 0]	n/a	FR1	0	R1084T
1197.155	1.6	1469924	WORD	n/a	wordpools/wordpool_EN.txt	PLANE	5	11	[0, 0, 0]	n/a	FR1	0	R1084T
1199.705	1.6	1472474	WORD	n/a	wordpools/wordpool_EN.txt	BRICK	6	11	[0, 0, 0]	n/a	FR1	0	R1084T
1202.289	1.6	1475058	WORD	n/a	wordpools/wordpool_EN.txt	PLATE	7	11	[0, 0, 0]	n/a	FR1	0	R1084T
1204.739	1.6	1477508	WORD	n/a	wordpools/wordpool_EN.txt	SQUARE	8	11	[0, 0, 0]	n/a	FR1	0	R1084T
1207.123	1.6	1479892	WORD	n/a	wordpools/wordpool_EN.txt	MOON	9	11	[0, 0, 0]	n/a	FR1	0	R1084T
1209.74	1.6	1482508	WORD	n/a	wordpools/wordpool_EN.txt	SHEET	10	11	[0, 0, 0]	n/a	FR1	0	R1084T
1212.191	1.6	1484959	WORD	n/a	wordpools/wordpool_EN.txt	ARK	11	11	[0, 0, 0]	n/a	FR1	0	R1084T
1214.691	1.6	1487459	WORD	n/a	wordpools/wordpool_EN.txt	TRAIN	12	11	[0, 0, 0]	n/a	FR1	0	R1084T
1216.308	0.001	1489076	DISTRACT_START	n/a	n/a	n/a	-999	11	[0, 0, 0]	n/a	FR1	0	R1084T
1216.309	0.016	1489077	START	n/a	n/a	n/a	-999	11	[-999, -999, -999]	n/a	FR1	0	R1084T
1216.325	4.616	1489093	PROB	4.581	n/a	n/a	-999	11	[2, 4, 1]	7.0	FR1	0	R1084T
1220.941	6.503	1493709	PROB	6.477	n/a	n/a	-999	11	[6, 3, 8]	17.0	FR1	0	R1084T
1227.444	3.817	1500212	PROB	3.79	n/a	n/a	-999	11	[1, 6, 6]	13.0	FR1	0	R1084T
1231.261	4.967	1504028	PROB	4.933	n/a	n/a	-999	11	[9, 2, 6]	17.0	FR1	0	R1084T
1236.228	6.27	1508995	PROB	6.27	n/a	n/a	-999	11	[6, 6, 9]	21.0	FR1	0	R1084T
1242.498	0.015	1515265	STOP	n/a	n/a	n/a	-999	11	[-999, -999, -999]	n/a	FR1	0	R1084T
1242.513	1.084	1515280	DISTRACT_END	n/a	n/a	n/a	-999	11	[0, 0, 0]	n/a	FR1	0	R1084T
1243.597	3.262	1516364	REC_START	n/a	n/a	n/a	-999	11	[0, 0, 0]	n/a	FR1	0	R1084T
1246.859	1.876	1519626	REC_WORD	3.262	n/a	MOON	9	11	[0, 0, 0]	n/a	FR1	0	R1084T
1248.735	0.949	1521501	REC_WORD	5.138	n/a	SHEEP	-999	11	[0, 0, 0]	n/a	FR1	0	R1084T
1249.684	23.171	1522450	REC_WORD	6.087	n/a	ROCK	-999	11	[0, 0, 0]	n/a	FR1	0	R1084T
1272.855	0.752	1545620	REC_WORD	29.258	n/a	ARK	11	11	[0, 0, 0]	n/a	FR1	0	R1084T
1273.607	2.645	1546372	REC_END	n/a	n/a	n/a	-999	11	[0, 0, 0]	n/a	FR1	0	R1084T
1276.252	10.0	1549017	COUNTDOWN_START	n/a	n/a	n/a	-999	12	[0, 0, 0]	n/a	FR1	0	R1084T
1276.253	10.427	1549018	TRIAL	n/a	n/a	n/a	-999	12	[0, 0, 0]	n/a	FR1	0	R1084T
1286.68	0.008	1559445	COUNTDOWN_END	n/a	n/a	n/a	-999	12	[0, 0, 0]	n/a	FR1	0	R1084T
1286.688	1.6	1559453	ORIENT	n/a	n/a	n/a	-999	12	[0, 0, 0]	n/a	FR1	0	R1084T
1289.271	1.6	1562035	WORD	n/a	wordpools/wordpool_EN.txt	COW	1	12	[0, 0, 0]	n/a	FR1	0	R1084T
1291.805	1.6	1564569	WORD	n/a	wordpools/wordpool_EN.txt	STAR	2	12	[0, 0, 0]	n/a	FR1	0	R1084T
1294.322	1.6	1567086	WORD	n/a	wordpools/wordpool_EN.txt	HOUSE	3	12	[0, 0, 0]	n/a	FR1	0	R1084T
1296.806	1.6	1569570	WORD	n/a	wordpools/wordpool_EN.txt	DRESS	4	12	[0, 0, 0]	n/a	FR1	0	R1084T
1299.39	1.6	1572154	WORD	n/a	wordpools/wordpool_EN.txt	BRIDGE	5	12	[0, 0, 0]	n/a	FR1	0	R1084T
1301.972	1.6	1574736	WORD	n/a	wordpools/wordpool_EN.txt	GATE	6	12	[0, 0, 0]	n/a	FR1	0	R1084T
1304.474	1.6	1577238	WORD	n/a	wordpools/wordpool_EN.txt	STONE	7	12	[0, 0, 0]	n/a	FR1	0	R1084T
1306.99	1.6	1579754	WORD	n/a	wordpools/wordpool_EN.txt	FOX	8	12	[0, 0, 0]	n/a	FR1	0	R1084T
1309.475	1.6	1582238	WORD	n/a	wordpools/wordpool_EN.txt	TIE	9	12	[0, 0, 0]	n/a	FR1	0	R1084T
1311.909	1.6	1584672	WORD	n/a	wordpools/wordpool_EN.txt	SKY	10	12	[0, 0, 0]	n/a	FR1	0	R1084T
1314.443	1.6	1587206	WORD	n/a	wordpools/wordpool_EN.txt	PEA	11	12	[0, 0, 0]	n/a	FR1	0	R1084T
1316.876	1.6	1589639	WORD	n/a	wordpools/wordpool_EN.txt	HILL	12	12	[0, 0, 0]	n/a	FR1	0	R1084T
1318.493	0.001	1591256	DISTRACT_START	n/a	n/a	n/a	-999	12	[0, 0, 0]	n/a	FR1	0	R1084T
1318.494	0.016	1591257	START	n/a	n/a	n/a	-999	12	[-999, -999, -999]	n/a	FR1	0	R1084T
1318.51	7.001	1591273	PROB	6.98	n/a	n/a	-999	12	[7, 5, 4]	16.0	FR1	0	R1084T
1325.511	5.068	1598274	PROB	5.035	n/a	n/a	-999	12	[1, 6, 1]	8.0	FR1	0	R1084T
1330.579	5.034	1603341	PROB	5.007	n/a	n/a	-999	12	[2, 9, 9]	20.0	FR1	0	R1084T
1335.613	4.837	1608375	PROB	4.837	n/a	n/a	-999	12	[4, 6, 3]	13.0	FR1	0	R1084T
1340.45	0.014	1613212	STOP	n/a	n/a	n/a	-999	12	[-999, -999, -999]	n/a	FR1	0	R1084T
1340.464	1.051	1613226	DISTRACT_END	n/a	n/a	n/a	-999	12	[0, 0, 0]	n/a	FR1	0	R1084T
1341.515	2.287	1614277	REC_START	n/a	n/a	n/a	-999	12	[0, 0, 0]	n/a	FR1	0	R1084T
1343.802	0.569	1616564	REC_WORD	2.287	n/a	COW	1	12	[0, 0, 0]	n/a	FR1	0	R1084T
1344.371	1.238	1617133	REC_WORD	2.856	n/a	STAR	2	12	[0, 0, 0]	n/a	FR1	0	R1084T
1345.609	5.948	1618371	REC_WORD	4.094	n/a	TIE	9	12	[0, 0, 0]	n/a	FR1	0	R1084T
1351.557	19.968	1624318	REC_WORD	10.042	n/a	POLE	-999	12	[0, 0, 0]	n/a	FR1	0	R1084T
1371.525	3.262	1644285	REC_END	n/a	n/a	n/a	-999	12	[0, 0, 0]	n/a	FR1	0	R1084T
1374.787	10.0	1647547	COUNTDOWN_START	n/a	n/a	n/a	-999	13	[0, 0, 0]	n/a	FR1	0	R1084T
1374.787	10.428	1647547	TRIAL	n/a	n/a	n/a	-999	13	[0, 0, 0]	n/a	FR1	0	R1084T
1385.215	0.007	1657975	COUNTDOWN_END	n/a	n/a	n/a	-999	13	[0, 0, 0]	n/a	FR1	0	R1084T
1385.222	1.6	1657982	ORIENT	n/a	n/a	n/a	-999	13	[0, 0, 0]	n/a	FR1	0	R1084T
1387.706	1.6	1660466	WORD	n/a	wordpools/wordpool_EN.txt	NOSE	1	13	[0, 0, 0]	n/a	FR1	0	R1084T
1390.306	1.6	1663066	WORD	n/a	wordpools/wordpool_EN.txt	TAIL	2	13	[0, 0, 0]	n/a	FR1	0	R1084T
1392.69	1.6	1665449	WORD	n/a	wordpools/wordpool_EN.txt	PIT	3	13	[0, 0, 0]	n/a	FR1	0	R1084T
1395.107	1.6	1667866	WORD	n/a	wordpools/wordpool_EN.txt	PRINCE	4	13	[0, 0, 0]	n/a	FR1	0	R1084T
1397.624	1.6	1670383	WORD	n/a	wordpools/wordpool_EN.txt	MOUSE	5	13	[0, 0, 0]	n/a	FR1	0	R1084T
1400.075	1.6	1672834	WORD	n/a	wordpools/wordpool_EN.txt	SHIELD	6	13	[0, 0, 0]	n/a	FR1	0	R1084T
1402.559	1.6	1675318	WORD	n/a	wordpools/wordpool_EN.txt	ARM	7	13	[0, 0, 0]	n/a	FR1	0	R1084T
1405.059	1.6	1677818	WORD	n/a	wordpools/wordpool_EN.txt	TOE	8	13	[0, 0, 0]	n/a	FR1	0	R1084T
1407.543	1.6	1680302	WORD	n/a	wordpools/wordpool_EN.txt	WALL	9	13	[0, 0, 0]	n/a	FR1	0	R1084T
1410.127	1.6	1682886	WORD	n/a	wordpools/wordpool_EN.txt	SPEAR	10	13	[0, 0, 0]	n/a	FR1	0	R1084T
1412.51	1.6	1685268	WORD	n/a	wordpools/wordpool_EN.txt	HOOF	11	13	[0, 0, 0]	n/a	FR1	0	R1084T
1415.01	1.6	1687768	WORD	n/a	wordpools/wordpool_EN.txt	LAWN	12	13	[0, 0, 0]	n/a	FR1	0	R1084T
1416.611	0.001	1689369	DISTRACT_START	n/a	n/a	n/a	-999	13	[0, 0, 0]	n/a	FR1	0	R1084T
1416.612	0.016	1689370	START	n/a	n/a	n/a	-999	13	[-999, -999, -999]	n/a	FR1	0	R1084T
1416.628	8.235	1689386	PROB	8.206	n/a	n/a	-999	13	[8, 8, 3]	19.0	FR1	0	R1084T
1424.863	6.116	1697621	PROB	6.082	n/a	n/a	-999	13	[7, 5, 7]	19.0	FR1	0	R1084T
1430.979	4.069	1703737	PROB	4.038	n/a	n/a	-999	13	[7, 2, 9]	18.0	FR1	0	R1084T
1435.048	3.474	1707805	PROB	3.474	n/a	n/a	-999	13	[1, 2, 1]	4.0	FR1	0	R1084T
1438.522	0.01	1711279	STOP	n/a	n/a	n/a	-999	13	[-999, -999, -999]	n/a	FR1	0	R1084T
1438.532	1.068	1711289	DISTRACT_END	n/a	n/a	n/a	-999	13	[0, 0, 0]	n/a	FR1	0	R1084T
1439.6	4.992	1712357	REC_START	n/a	n/a	n/a	-999	13	[0, 0, 0]	n/a	FR1	0	R1084T
1444.592	1.194	1717349	REC_WORD	4.992	n/a	NOSE	1	13	[0, 0, 0]	n/a	FR1	0	R1084T
1445.786	0.613	1718543	REC_WORD	6.186	n/a	TAIL	2	13	[0, 0, 0]	n/a	FR1	0	R1084T
1446.399	23.211	1719156	REC_WORD	6.799	n/a	PIT	3	13	[0, 0, 0]	n/a	FR1	0	R1084T
1469.61	16.997	1742366	REC_END	n/a	n/a	n/a	-999	13	[0, 0, 0]	n/a	FR1	0	R1084T
1486.607	0.0	1759362	TRIAL	n/a	n/a	n/a	-999	14	[0, 0, 0]	n/a	FR1	0	R1084T
1486.607	10.0	1759362	COUNTDOWN_START	n/a	n/a	n/a	-999	14	[0, 0, 0]	n/a	FR1	0	R1084T
1497.035	0.007	1769789	COUNTDOWN_END	n/a	n/a	n/a	-999	14	[0, 0, 0]	n/a	FR1	0	R1084T
1497.042	1.6	1769796	ORIENT	n/a	n/a	n/a	-999	14	[0, 0, 0]	n/a	FR1	0	R1084T
1499.426	1.6	1772180	WORD	n/a	wordpools/wordpool_EN.txt	SLEEVE	1	14	[0, 0, 0]	n/a	FR1	0	R1084T
1501.927	1.6	1774681	WORD	n/a	wordpools/wordpool_EN.txt	DITCH	2	14	[0, 0, 0]	n/a	FR1	0	R1084T
1504.394	1.6	1777148	WORD	n/a	wordpools/wordpool_EN.txt	VINE	3	14	[0, 0, 0]	n/a	FR1	0	R1084T
1506.977	1.6	1779731	WORD	n/a	wordpools/wordpool_EN.txt	BUSH	4	14	[0, 0, 0]	n/a	FR1	0	R1084T
1509.378	1.6	1782132	WORD	n/a	wordpools/wordpool_EN.txt	SNAIL	5	14	[0, 0, 0]	n/a	FR1	0	R1084T
1511.862	1.6	1784616	WORD	n/a	wordpools/wordpool_EN.txt	WHEEL	6	14	[0, 0, 0]	n/a	FR1	0	R1084T
1514.312	1.6	1787065	WORD	n/a	wordpools/wordpool_EN.txt	BIRD	7	14	[0, 0, 0]	n/a	FR1	0	R1084T
1516.696	1.6	1789449	WORD	n/a	wordpools/wordpool_EN.txt	EAR	8	14	[0, 0, 0]	n/a	FR1	0	R1084T
1519.113	1.6	1791866	WORD	n/a	wordpools/wordpool_EN.txt	SWAMP	9	14	[0, 0, 0]	n/a	FR1	0	R1084T
1521.497	1.6	1794250	WORD	n/a	wordpools/wordpool_EN.txt	HOLE	10	14	[0, 0, 0]	n/a	FR1	0	R1084T
1523.98	1.6	1796733	WORD	n/a	wordpools/wordpool_EN.txt	EEL	11	14	[0, 0, 0]	n/a	FR1	0	R1084T
1526.598	1.6	1799351	WORD	n/a	wordpools/wordpool_EN.txt	CRANE	12	14	[0, 0, 0]	n/a	FR1	0	R1084T
1528.215	0.001	1800968	DISTRACT_START	n/a	n/a	n/a	-999	14	[0, 0, 0]	n/a	FR1	0	R1084T
1528.216	0.016	1800969	START	n/a	n/a	n/a	-999	14	[-999, -999, -999]	n/a	FR1	0	R1084T
1528.232	5.634	1800985	PROB	5.602	n/a	n/a	-999	14	[7, 4, 2]	13.0	FR1	0	R1084T
1533.866	7.501	1806618	PROB	7.472	n/a	n/a	-999	14	[7, 7, 4]	18.0	FR1	0	R1084T
1541.367	3.501	1814119	PROB	3.467	n/a	n/a	-999	14	[3, 1, 5]	9.0	FR1	0	R1084T
1544.868	4.886	1817620	PROB	4.886	n/a	n/a	-999	14	[7, 4, 9]	20.0	FR1	0	R1084T
1549.754	0.015	1822506	STOP	n/a	n/a	n/a	-999	14	[-999, -999, -999]	n/a	FR1	0	R1084T
1549.769	1.134	1822521	DISTRACT_END	n/a	n/a	n/a	-999	14	[0, 0, 0]	n/a	FR1	0	R1084T
1550.903	5.171	1823655	REC_START	n/a	n/a	n/a	-999	14	[0, 0, 0]	n/a	FR1	0	R1084T
1556.074	2.186	1828825	REC_WORD	5.171	n/a	SNAIL	5	14	[0, 0, 0]	n/a	FR1	0	R1084T
1558.26	1.102	1831011	REC_WORD	7.357	n/a	EAR	8	14	[0, 0, 0]	n/a	FR1	0	R1084T
1559.362	21.551	1832113	REC_WORD	8.459	n/a	PIT	-999	14	[0, 0, 0]	n/a	FR1	0	R1084T
1580.913	3.312	1853663	REC_END	n/a	n/a	n/a	-999	14	[0, 0, 0]	n/a	FR1	0	R1084T
1584.225	10.0	1856975	COUNTDOWN_START	n/a	n/a	n/a	-999	15	[0, 0, 0]	n/a	FR1	0	R1084T
1584.225	10.428	1856975	TRIAL	n/a	n/a	n/a	-999	15	[0, 0, 0]	n/a	FR1	0	R1084T
1594.653	0.007	1867402	COUNTDOWN_END	n/a	n/a	n/a	-999	15	[0, 0, 0]	n/a	FR1	0	R1084T
1594.66	1.6	1867409	ORIENT	n/a	n/a	n/a	-999	15	[0, 0, 0]	n/a	FR1	0	R1084T
1597.211	1.6	1869960	WORD	n/a	wordpools/wordpool_EN.txt	ROPE	1	15	[0, 0, 0]	n/a	FR1	0	R1084T
1599.778	1.6	1872527	WORD	n/a	wordpools/wordpool_EN.txt	DUCK	2	15	[0, 0, 0]	n/a	FR1	0	R1084T
1602.178	1.6	1874927	WORD	n/a	wordpools/wordpool_EN.txt	SNAKE	3	15	[0, 0, 0]	n/a	FR1	0	R1084T
1604.629	1.6	1877378	WORD	n/a	wordpools/wordpool_EN.txt	TENT	4	15	[0, 0, 0]	n/a	FR1	0	R1084T
1607.112	1.6	1879861	WORD	n/a	wordpools/wordpool_EN.txt	MAZE	5	15	[0, 0, 0]	n/a	FR1	0	R1084T
1609.496	1.6	1882245	WORD	n/a	wordpools/wordpool_EN.txt	HAWK	6	15	[0, 0, 0]	n/a	FR1	0	R1084T
1612.012	1.6	1884761	WORD	n/a	wordpools/wordpool_EN.txt	WEED	7	15	[0, 0, 0]	n/a	FR1	0	R1084T
1614.397	1.6	1887145	WORD	n/a	wordpools/wordpool_EN.txt	OWL	8	15	[0, 0, 0]	n/a	FR1	0	R1084T
1616.848	1.6	1889596	WORD	n/a	wordpools/wordpool_EN.txt	DEER	9	15	[0, 0, 0]	n/a	FR1	0	R1084T
1619.398	1.6	1892146	WORD	n/a	wordpools/wordpool_EN.txt	BROOM	10	15	[0, 0, 0]	n/a	FR1	0	R1084T
1621.898	1.6	1894646	WORD	n/a	wordpools/wordpool_EN.txt	ROAD	11	15	[0, 0, 0]	n/a	FR1	0	R1084T
1624.316	1.6	1897064	WORD	n/a	wordpools/wordpool_EN.txt	DOCK	12	15	[0, 0, 0]	n/a	FR1	0	R1084T
1625.932	0.001	1898680	DISTRACT_START	n/a	n/a	n/a	-999	15	[0, 0, 0]	n/a	FR1	0	R1084T
1625.933	0.015	1898681	START	n/a	n/a	n/a	-999	15	[-999, -999, -999]	n/a	FR1	0	R1084T
1625.948	5.702	1898696	PROB	5.67	n/a	n/a	-999	15	[6, 4, 5]	15.0	FR1	0	R1084T
1631.65	4.984	1904398	PROB	4.952	n/a	n/a	-999	15	[8, 2, 4]	14.0	FR1	0	R1084T
1636.634	5.068	1909381	PROB	5.032	n/a	n/a	-999	15	[9, 2, 6]	17.0	FR1	0	R1084T
1641.702	5.62	1914449	PROB	5.62	n/a	n/a	-999	15	[2, 8, 2]	12.0	FR1	0	R1084T
1647.322	0.014	1920069	STOP	n/a	n/a	n/a	-999	15	[-999, -999, -999]	n/a	FR1	0	R1084T
1647.336	1.168	1920083	DISTRACT_END	n/a	n/a	n/a	-999	15	[0, 0, 0]	n/a	FR1	0	R1084T
1648.504	4.07	1921251	REC_START	n/a	n/a	n/a	-999	15	[0, 0, 0]	n/a	FR1	0	R1084T
1652.574	2.894	1925321	REC_WORD	4.07	n/a	SNAIL	-999	15	[0, 0, 0]	n/a	FR1	0	R1084T
1655.468	23.046	1928214	REC_WORD	6.964	n/a	PEEL	-999	15	[0, 0, 0]	n/a	FR1	0	R1084T
1678.514	2.579	1951259	REC_END	n/a	n/a	n/a	-999	15	[0, 0, 0]	n/a	FR1	0	R1084T
1681.093	0.0	1953838	TRIAL	n/a	n/a	n/a	-999	16	[0, 0, 0]	n/a	FR1	0	R1084T
1681.093	10.0	1953838	COUNTDOWN_START	n/a	n/a	n/a	-999	16	[0, 0, 0]	n/a	FR1	0	R1084T
1691.521	0.007	1964266	COUNTDOWN_END	n/a	n/a	n/a	-999	16	[0, 0, 0]	n/a	FR1	0	R1084T
1691.528	1.6	1964273	ORIENT	n/a	n/a	n/a	-999	16	[0, 0, 0]	n/a	FR1	0	R1084T
1694.128	1.6	1966873	WORD	n/a	wordpools/wordpool_EN.txt	RAIN	1	16	[0, 0, 0]	n/a	FR1	0	R1084T
1696.579	1.6	1969323	WORD	n/a	wordpools/wordpool_EN.txt	SKI	2	16	[0, 0, 0]	n/a	FR1	0	R1084T
1699.029	1.6	1971773	WORD	n/a	wordpools/wordpool_EN.txt	DRUM	3	16	[0, 0, 0]	n/a	FR1	0	R1084T
1701.413	1.6	1974157	WORD	n/a	wordpools/wordpool_EN.txt	CAR	4	16	[0, 0, 0]	n/a	FR1	0	R1084T
1703.813	1.6	1976557	WORD	n/a	wordpools/wordpool_EN.txt	CROWN	5	16	[0, 0, 0]	n/a	FR1	0	R1084T
1706.297	1.6	1979041	WORD	n/a	wordpools/wordpool_EN.txt	STAIR	6	16	[0, 0, 0]	n/a	FR1	0	R1084T
1708.881	1.6	1981625	WORD	n/a	wordpools/wordpool_EN.txt	KEY	7	16	[0, 0, 0]	n/a	FR1	0	R1084T
1711.498	1.6	1984242	WORD	n/a	wordpools/wordpool_EN.txt	DOOR	8	16	[0, 0, 0]	n/a	FR1	0	R1084T
1714.115	1.6	1986859	WORD	n/a	wordpools/wordpool_EN.txt	CHIEF	9	16	[0, 0, 0]	n/a	FR1	0	R1084T
1716.682	1.6	1989425	WORD	n/a	wordpools/wordpool_EN.txt	WAVE	10	16	[0, 0, 0]	n/a	FR1	0	R1084T
1719.15	1.6	1991893	WORD	n/a	wordpools/wordpool_EN.txt	TOY	11	16	[0, 0, 0]	n/a	FR1	0	R1084T
1721.533	1.6	1994276	WORD	n/a	wordpools/wordpool_EN.txt	BLOOM	12	16	[0, 0, 0]	n/a	FR1	0	R1084T
1723.15	0.001	1995893	DISTRACT_START	n/a	n/a	n/a	-999	16	[0, 0, 0]	n/a	FR1	0	R1084T
1723.151	0.016	1995894	START	n/a	n/a	n/a	-999	16	[-999, -999, -999]	n/a	FR1	0	R1084T
1723.167	5.868	1995910	PROB	5.834	n/a	n/a	-999	16	[3, 5, 4]	12.0	FR1	0	R1084T
1729.035	4.517	2001778	PROB	4.495	n/a	n/a	-999	16	[6, 1, 4]	11.0	FR1	0	R1084T
1733.552	3.301	2006295	PROB	3.266	n/a	n/a	-999	16	[2, 5, 2]	9.0	FR1	0	R1084T
1736.853	3.734	2009595	PROB	3.701	n/a	n/a	-999	16	[1, 4, 2]	7.0	FR1	0	R1084T
1740.587	15.079	2013329	PROB	15.079	n/a	n/a	-999	16	[9, 4, 3]	16.0	FR1	0	R1084T
1755.666	0.007	2028408	STOP	n/a	n/a	n/a	-999	16	[-999, -999, -999]	n/a	FR1	0	R1084T
1755.673	1.184	2028415	DISTRACT_END	n/a	n/a	n/a	-999	16	[0, 0, 0]	n/a	FR1	0	R1084T
1756.857	9.977	2029598	REC_START	n/a	n/a	n/a	-999	16	[0, 0, 0]	n/a	FR1	0	R1084T
1766.834	1.813	2039575	REC_WORD	9.977	n/a	SNAIL	-999	16	[0, 0, 0]	n/a	FR1	0	R1084T
1768.647	4.886	2041388	REC_WORD	11.79	n/a	SKY	-999	16	[0, 0, 0]	n/a	FR1	0	R1084T
1773.533	13.334	2046274	REC_WORD	16.676	n/a	RAIN	1	16	[0, 0, 0]	n/a	FR1	0	R1084T
1786.867	3.429	2059607	REC_END	n/a	n/a	n/a	-999	16	[0, 0, 0]	n/a	FR1	0	R1084T
1790.296	0.0	2063036	TRIAL	n/a	n/a	n/a	-999	17	[0, 0, 0]	n/a	FR1	0	R1084T
1790.296	10.0	2063036	COUNTDOWN_START	n/a	n/a	n/a	-999	17	[0, 0, 0]	n/a	FR1	0	R1084T
1800.724	0.007	2073463	COUNTDOWN_END	n/a	n/a	n/a	-999	17	[0, 0, 0]	n/a	FR1	0	R1084T
1800.731	1.6	2073470	ORIENT	n/a	n/a	n/a	-999	17	[0, 0, 0]	n/a	FR1	0	R1084T
1803.248	1.6	2075987	WORD	n/a	wordpools/wordpool_EN.txt	GLASS	1	17	[0, 0, 0]	n/a	FR1	0	R1084T
1805.699	1.6	2078438	WORD	n/a	wordpools/wordpool_EN.txt	FOG	2	17	[0, 0, 0]	n/a	FR1	0	R1084T
1808.182	1.6	2080921	WORD	n/a	wordpools/wordpool_EN.txt	TRAY	3	17	[0, 0, 0]	n/a	FR1	0	R1084T
1810.616	1.6	2083355	WORD	n/a	wordpools/wordpool_EN.txt	FUDGE	4	17	[0, 0, 0]	n/a	FR1	0	R1084T
1813.083	1.6	2085822	WORD	n/a	wordpools/wordpool_EN.txt	STEAM	5	17	[0, 0, 0]	n/a	FR1	0	R1084T
1815.617	1.6	2088356	WORD	n/a	wordpools/wordpool_EN.txt	JET	6	17	[0, 0, 0]	n/a	FR1	0	R1084T
1818.067	1.6	2090805	WORD	n/a	wordpools/wordpool_EN.txt	LAND	7	17	[0, 0, 0]	n/a	FR1	0	R1084T
1820.518	1.6	2093256	WORD	n/a	wordpools/wordpool_EN.txt	SALT	8	17	[0, 0, 0]	n/a	FR1	0	R1084T
1822.951	1.6	2095689	WORD	n/a	wordpools/wordpool_EN.txt	FLAME	9	17	[0, 0, 0]	n/a	FR1	0	R1084T
1825.369	1.6	2098107	WORD	n/a	wordpools/wordpool_EN.txt	CLOUD	10	17	[0, 0, 0]	n/a	FR1	0	R1084T
1827.853	1.6	2100591	WORD	n/a	wordpools/wordpool_EN.txt	SHIP	11	17	[0, 0, 0]	n/a	FR1	0	R1084T
1830.453	1.6	2103191	WORD	n/a	wordpools/wordpool_EN.txt	SPONGE	12	17	[0, 0, 0]	n/a	FR1	0	R1084T
1832.07	0.0	2104808	DISTRACT_START	n/a	n/a	n/a	-999	17	[0, 0, 0]	n/a	FR1	0	R1084T
1832.07	0.017	2104808	START	n/a	n/a	n/a	-999	17	[-999, -999, -999]	n/a	FR1	0	R1084T
1832.087	6.818	2104825	PROB	6.787	n/a	n/a	-999	17	[6, 2, 6]	14.0	FR1	0	R1084T
1838.905	5.967	2111642	PROB	5.945	n/a	n/a	-999	17	[5, 5, 6]	16.0	FR1	0	R1084T
1844.872	6.201	2117609	PROB	6.17	n/a	n/a	-999	17	[3, 6, 5]	14.0	FR1	0	R1084T
1851.073	4.969	2123810	PROB	4.969	n/a	n/a	-999	17	[2, 1, 5]	8.0	FR1	0	R1084T
1856.042	0.016	2128779	STOP	n/a	n/a	n/a	-999	17	[-999, -999, -999]	n/a	FR1	0	R1084T
1856.058	1.134	2128795	DISTRACT_END	n/a	n/a	n/a	-999	17	[0, 0, 0]	n/a	FR1	0	R1084T
1857.192	14.537	2129929	REC_START	n/a	n/a	n/a	-999	17	[0, 0, 0]	n/a	FR1	0	R1084T
1871.729	0.864	2144465	REC_WORD	14.537	n/a	SNAIL	-999	17	[0, 0, 0]	n/a	FR1	0	R1084T
1872.593	1.253	2145329	REC_WORD	15.401	n/a	SKY	-999	17	[0, 0, 0]	n/a	FR1	0	R1084T
1873.846	13.356	2146582	REC_WORD	16.654	n/a	FALL	-999	17	[0, 0, 0]	n/a	FR1	0	R1084T
1887.202	5.996	2159937	REC_END	n/a	n/a	n/a	-999	17	[0, 0, 0]	n/a	FR1	0	R1084T
1893.198	10.0	2165933	COUNTDOWN_START	n/a	n/a	n/a	-999	18	[0, 0, 0]	n/a	FR1	0	R1084T
1893.198	10.428	2165933	TRIAL	n/a	n/a	n/a	-999	18	[0, 0, 0]	n/a	FR1	0	R1084T
1903.626	0.007	2176360	COUNTDOWN_END	n/a	n/a	n/a	-999	18	[0, 0, 0]	n/a	FR1	0	R1084T
1903.633	1.6	2176367	ORIENT	n/a	n/a	n/a	-999	18	[0, 0, 0]	n/a	FR1	0	R1084T
1906.083	1.6	2178817	WORD	n/a	wordpools/wordpool_EN.txt	WORM	1	18	[0, 0, 0]	n/a	FR1	0	R1084T
1908.567	1.6	2181301	WORD	n/a	wordpools/wordpool_EN.txt	EGG	2	18	[0, 0, 0]	n/a	FR1	0	R1084T
1911.017	1.6	2183751	WORD	n/a	wordpools/wordpool_EN.txt	HOOK	3	18	[0, 0, 0]	n/a	FR1	0	R1084T
1913.401	1.6	2186135	WORD	n/a	wordpools/wordpool_EN.txt	WING	4	18	[0, 0, 0]	n/a	FR1	0	R1084T
1915.934	1.6	2188668	WORD	n/a	wordpools/wordpool_EN.txt	FISH	5	18	[0, 0, 0]	n/a	FR1	0	R1084T
1918.302	1.6	2191036	WORD	n/a	wordpools/wordpool_EN.txt	STORM	6	18	[0, 0, 0]	n/a	FR1	0	R1084T
1920.886	1.6	2193619	WORD	n/a	wordpools/wordpool_EN.txt	SEA	7	18	[0, 0, 0]	n/a	FR1	0	R1084T
1923.437	1.6	2196170	WORD	n/a	wordpools/wordpool_EN.txt	WEB	8	18	[0, 0, 0]	n/a	FR1	0	R1084T
1925.986	1.6	2198719	WORD	n/a	wordpools/wordpool_EN.txt	SHRIMP	9	18	[0, 0, 0]	n/a	FR1	0	R1084T
1928.588	1.6	2201321	WORD	n/a	wordpools/wordpool_EN.txt	SHELL	10	18	[0, 0, 0]	n/a	FR1	0	R1084T
1931.205	1.6	2203938	WORD	n/a	wordpools/wordpool_EN.txt	CUBE	11	18	[0, 0, 0]	n/a	FR1	0	R1084T
1933.705	1.6	2206438	WORD	n/a	wordpools/wordpool_EN.txt	BOAT	12	18	[0, 0, 0]	n/a	FR1	0	R1084T
1935.322	0.001	2208055	DISTRACT_START	n/a	n/a	n/a	-999	18	[0, 0, 0]	n/a	FR1	0	R1084T
1935.323	0.016	2208056	START	n/a	n/a	n/a	-999	18	[-999, -999, -999]	n/a	FR1	0	R1084T
1935.339	5.167	2208072	PROB	5.135	n/a	n/a	-999	18	[6, 6, 2]	14.0	FR1	0	R1084T
1940.506	5.802	2213238	PROB	5.776	n/a	n/a	-999	18	[8, 6, 8]	22.0	FR1	0	R1084T
1946.308	9.246	2219040	PROB	9.246	n/a	n/a	-999	18	[7, 8, 5]	20.0	FR1	0	R1084T
1955.554	0.005	2228286	STOP	n/a	n/a	n/a	-999	18	[-999, -999, -999]	n/a	FR1	0	R1084T
1955.559	1.118	2228291	DISTRACT_END	n/a	n/a	n/a	-999	18	[0, 0, 0]	n/a	FR1	0	R1084T
1956.677	3.836	2229409	REC_START	n/a	n/a	n/a	-999	18	[0, 0, 0]	n/a	FR1	0	R1084T
1960.513	1.099	2233244	REC_WORD	3.836	n/a	HOOK	3	18	[0, 0, 0]	n/a	FR1	0	R1084T
1961.612	1.247	2234343	REC_WORD	4.935	n/a	WING	4	18	[0, 0, 0]	n/a	FR1	0	R1084T
1962.859	1.241	2235590	REC_WORD	6.182	n/a	FISH	5	18	[0, 0, 0]	n/a	FR1	0	R1084T
1964.1	5.013	2236831	REC_WORD	7.423	n/a	CUBE	11	18	[0, 0, 0]	n/a	FR1	0	R1084T
1969.113	17.574	2241844	REC_WORD	12.436	n/a	SHRIMP	9	18	[0, 0, 0]	n/a	FR1	0	R1084T
1986.687	3.462	2259417	REC_END	n/a	n/a	n/a	-999	18	[0, 0, 0]	n/a	FR1	0	R1084T
1990.149	0.0	2262879	TRIAL	n/a	n/a	n/a	-999	19	[0, 0, 0]	n/a	FR1	0	R1084T
1990.149	10.0	2262879	COUNTDOWN_START	n/a	n/a	n/a	-999	19	[0, 0, 0]	n/a	FR1	0	R1084T
2000.577	0.007	2273306	COUNTDOWN_END	n/a	n/a	n/a	-999	19	[0, 0, 0]	n/a	FR1	0	R1084T
2000.584	1.6	2273313	ORIENT	n/a	n/a	n/a	-999	19	[0, 0, 0]	n/a	FR1	0	R1084T
2002.967	1.6	2275696	WORD	n/a	wordpools/wordpool_EN.txt	POLE	1	19	[0, 0, 0]	n/a	FR1	0	R1084T
2005.518	1.6	2278247	WORD	n/a	wordpools/wordpool_EN.txt	HORSE	2	19	[0, 0, 0]	n/a	FR1	0	R1084T
2008.001	1.6	2280730	WORD	n/a	wordpools/wordpool_EN.txt	BALL	3	19	[0, 0, 0]	n/a	FR1	0	R1084T
2010.502	1.6	2283231	WORD	n/a	wordpools/wordpool_EN.txt	APE	4	19	[0, 0, 0]	n/a	FR1	0	R1084T
2013.07	1.6	2285799	WORD	n/a	wordpools/wordpool_EN.txt	CORD	5	19	[0, 0, 0]	n/a	FR1	0	R1084T
2015.487	1.6	2288216	WORD	n/a	wordpools/wordpool_EN.txt	MAP	6	19	[0, 0, 0]	n/a	FR1	0	R1084T
2018.037	1.6	2290766	WORD	n/a	wordpools/wordpool_EN.txt	MAIL	7	19	[0, 0, 0]	n/a	FR1	0	R1084T
2020.571	1.6	2293299	WORD	n/a	wordpools/wordpool_EN.txt	TOAD	8	19	[0, 0, 0]	n/a	FR1	0	R1084T
2023.038	1.6	2295766	WORD	n/a	wordpools/wordpool_EN.txt	TEETH	9	19	[0, 0, 0]	n/a	FR1	0	R1084T
2025.572	1.6	2298300	WORD	n/a	wordpools/wordpool_EN.txt	BEAR	10	19	[0, 0, 0]	n/a	FR1	0	R1084T
2028.106	1.6	2300834	WORD	n/a	wordpools/wordpool_EN.txt	CAT	11	19	[0, 0, 0]	n/a	FR1	0	R1084T
2030.706	1.6	2303434	WORD	n/a	wordpools/wordpool_EN.txt	JUDGE	12	19	[0, 0, 0]	n/a	FR1	0	R1084T
2032.323	0.001	2305051	DISTRACT_START	n/a	n/a	n/a	-999	19	[0, 0, 0]	n/a	FR1	0	R1084T
2032.324	0.016	2305052	START	n/a	n/a	n/a	-999	19	[-999, -999, -999]	n/a	FR1	0	R1084T
2032.34	8.151	2305068	PROB	8.118	n/a	n/a	-999	19	[4, 3, 7]	14.0	FR1	0	R1084T
2040.491	4.868	2313218	PROB	4.839	n/a	n/a	-999	19	[2, 3, 9]	14.0	FR1	0	R1084T
2045.359	6.134	2318086	PROB	6.099	n/a	n/a	-999	19	[1, 9, 7]	17.0	FR1	0	R1084T
2051.493	5.989	2324220	PROB	5.989	n/a	n/a	-999	19	[3, 7, 5]	15.0	FR1	0	R1084T
2057.482	0.012	2330209	STOP	n/a	n/a	n/a	-999	19	[-999, -999, -999]	n/a	FR1	0	R1084T
2057.494	1.101	2330221	DISTRACT_END	n/a	n/a	n/a	-999	19	[0, 0, 0]	n/a	FR1	0	R1084T
2058.595	2.045	2331322	REC_START	n/a	n/a	n/a	-999	19	[0, 0, 0]	n/a	FR1	0	R1084T
2060.64	1.495	2333366	REC_WORD	2.045	n/a	TOAD	8	19	[0, 0, 0]	n/a	FR1	0	R1084T
2062.135	1.753	2334861	REC_WORD	3.54	n/a	TEETH	9	19	[0, 0, 0]	n/a	FR1	0	R1084T
2063.888	4.153	2336614	REC_WORD	5.293	n/a	BAT	-999	19	[0, 0, 0]	n/a	FR1	0	R1084T
2068.041	20.564	2340767	REC_WORD	9.446	n/a	TEAR	-999	19	[0, 0, 0]	n/a	FR1	0	R1084T
2088.605	3.212	2361330	REC_END	n/a	n/a	n/a	-999	19	[0, 0, 0]	n/a	FR1	0	R1084T
2091.817	0.0	2364542	TRIAL	n/a	n/a	n/a	-999	20	[0, 0, 0]	n/a	FR1	0	R1084T
2091.817	10.0	2364542	COUNTDOWN_START	n/a	n/a	n/a	-999	20	[0, 0, 0]	n/a	FR1	0	R1084T
2102.245	0.007	2374969	COUNTDOWN_END	n/a	n/a	n/a	-999	20	[0, 0, 0]	n/a	FR1	0	R1084T
2102.252	1.6	2374976	ORIENT	n/a	n/a	n/a	-999	20	[0, 0, 0]	n/a	FR1	0	R1084T
2104.653	1.6	2377377	WORD	n/a	wordpools/wordpool_EN.txt	POND	1	20	[0, 0, 0]	n/a	FR1	0	R1084T
2107.27	1.6	2379994	WORD	n/a	wordpools/wordpool_EN.txt	STRAW	2	20	[0, 0, 0]	n/a	FR1	0	R1084T
2109.721	1.6	2382445	WORD	n/a	wordpools/wordpool_EN.txt	SLUSH	3	20	[0, 0, 0]	n/a	FR1	0	R1084T
2112.271	1.6	2384995	WORD	n/a	wordpools/wordpool_EN.txt	CAGE	4	20	[0, 0, 0]	n/a	FR1	0	R1084T
2114.888	1.6	2387612	WORD	n/a	wordpools/wordpool_EN.txt	VASE	5	20	[0, 0, 0]	n/a	FR1	0	R1084T
2117.422	1.6	2390146	WORD	n/a	wordpools/wordpool_EN.txt	SINK	6	20	[0, 0, 0]	n/a	FR1	0	R1084T
2119.971	1.6	2392695	WORD	n/a	wordpools/wordpool_EN.txt	JAR	7	20	[0, 0, 0]	n/a	FR1	0	R1084T
2122.356	1.6	2395079	WORD	n/a	wordpools/wordpool_EN.txt	SEAL	8	20	[0, 0, 0]	n/a	FR1	0	R1084T
2124.939	1.6	2397662	WORD	n/a	wordpools/wordpool_EN.txt	GEESE	9	20	[0, 0, 0]	n/a	FR1	0	R1084T
2127.507	1.6	2400230	WORD	n/a	wordpools/wordpool_EN.txt	HAT	10	20	[0, 0, 0]	n/a	FR1	0	R1084T
2130.058	1.6	2402781	WORD	n/a	wordpools/wordpool_EN.txt	BOX	11	20	[0, 0, 0]	n/a	FR1	0	R1084T
2132.641	1.6	2405364	WORD	n/a	wordpools/wordpool_EN.txt	PET	12	20	[0, 0, 0]	n/a	FR1	0	R1084T
2134.258	0.001	2406981	DISTRACT_START	n/a	n/a	n/a	-999	20	[0, 0, 0]	n/a	FR1	0	R1084T
2134.259	0.016	2406982	START	n/a	n/a	n/a	-999	20	[-999, -999, -999]	n/a	FR1	0	R1084T
2134.275	14.319	2406998	PROB	14.295	n/a	n/a	-999	20	[9, 8, 9]	25.0	FR1	0	R1084T
2148.594	8.375	2421316	PROB	8.375	n/a	n/a	-999	20	[3, 6, 4]	13.0	FR1	0	R1084T
2156.969	0.009	2429691	STOP	n/a	n/a	n/a	-999	20	[-999, -999, -999]	n/a	FR1	0	R1084T
2156.978	1.102	2429700	DISTRACT_END	n/a	n/a	n/a	-999	20	[0, 0, 0]	n/a	FR1	0	R1084T
2158.08	1.917	2430802	REC_START	n/a	n/a	n/a	-999	20	[0, 0, 0]	n/a	FR1	0	R1084T
2159.997	4.653	2432719	REC_WORD	1.917	n/a	POLE	-999	20	[0, 0, 0]	n/a	FR1	0	R1084T
2164.65	23.44	2437371	REC_WORD	6.57	n/a	SEAL	8	20	[0, 0, 0]	n/a	FR1	0	R1084T
2188.09	8.763	2460810	REC_END	n/a	n/a	n/a	-999	20	[0, 0, 0]	n/a	FR1	0	R1084T
2196.853	0.0	2469573	TRIAL	n/a	n/a	n/a	-999	21	[0, 0, 0]	n/a	FR1	0	R1084T
2196.853	10.0	2469573	COUNTDOWN_START	n/a	n/a	n/a	-999	21	[0, 0, 0]	n/a	FR1	0	R1084T
2207.281	0.007	2480000	COUNTDOWN_END	n/a	n/a	n/a	-999	21	[0, 0, 0]	n/a	FR1	0	R1084T
2207.288	1.6	2480007	ORIENT	n/a	n/a	n/a	-999	21	[0, 0, 0]	n/a	FR1	0	R1084T
2209.872	1.6	2482591	WORD	n/a	wordpools/wordpool_EN.txt	ANT	1	21	[0, 0, 0]	n/a	FR1	0	R1084T
2212.289	1.6	2485008	WORD	n/a	wordpools/wordpool_EN.txt	RAT	2	21	[0, 0, 0]	n/a	FR1	0	R1084T
2214.673	1.6	2487392	WORD	n/a	wordpools/wordpool_EN.txt	PEAR	3	21	[0, 0, 0]	n/a	FR1	0	R1084T
2217.173	1.6	2489892	WORD	n/a	wordpools/wordpool_EN.txt	BRANCH	4	21	[0, 0, 0]	n/a	FR1	0	R1084T
2219.724	1.6	2492443	WORD	n/a	wordpools/wordpool_EN.txt	CAVE	5	21	[0, 0, 0]	n/a	FR1	0	R1084T
2222.258	1.6	2494977	WORD	n/a	wordpools/wordpool_EN.txt	MOLE	6	21	[0, 0, 0]	n/a	FR1	0	R1084T
2224.691	1.6	2497409	WORD	n/a	wordpools/wordpool_EN.txt	HEART	7	21	[0, 0, 0]	n/a	FR1	0	R1084T
2227.275	1.6	2499993	WORD	n/a	wordpools/wordpool_EN.txt	SLIME	8	21	[0, 0, 0]	n/a	FR1	0	R1084T
2229.659	1.6	2502377	WORD	n/a	wordpools/wordpool_EN.txt	FOOD	9	21	[0, 0, 0]	n/a	FR1	0	R1084T
2232.209	1.6	2504927	WORD	n/a	wordpools/wordpool_EN.txt	BEE	10	21	[0, 0, 0]	n/a	FR1	0	R1084T
2234.826	1.6	2507544	WORD	n/a	wordpools/wordpool_EN.txt	BED	11	21	[0, 0, 0]	n/a	FR1	0	R1084T
2237.46	1.6	2510178	WORD	n/a	wordpools/wordpool_EN.txt	PLANT	12	21	[0, 0, 0]	n/a	FR1	0	R1084T
2239.077	0.001	2511795	DISTRACT_START	n/a	n/a	n/a	-999	21	[0, 0, 0]	n/a	FR1	0	R1084T
2239.078	0.016	2511796	START	n/a	n/a	n/a	-999	21	[-999, -999, -999]	n/a	FR1	0	R1084T
2239.094	5.751	2511812	PROB	5.724	n/a	n/a	-999	21	[1, 3, 6]	10.0	FR1	0	R1084T
2244.845	5.301	2517562	PROB	5.277	n/a	n/a	-999	21	[6, 9, 5]	20.0	FR1	0	R1084T
2250.146	3.017	2522863	PROB	2.984	n/a	n/a	-999	21	[3, 4, 1]	8.0	FR1	0	R1084T
2253.163	5.068	2525880	PROB	5.047	n/a	n/a	-999	21	[7, 6, 2]	15.0	FR1	0	R1084T
2258.231	3.195	2530948	PROB	3.195	n/a	n/a	-999	21	[2, 2, 3]	7.0	FR1	0	R1084T
2261.426	0.005	2534143	STOP	n/a	n/a	n/a	-999	21	[-999, -999, -999]	n/a	FR1	0	R1084T
2261.431	1.185	2534148	DISTRACT_END	n/a	n/a	n/a	-999	21	[0, 0, 0]	n/a	FR1	0	R1084T
2262.616	0.837	2535333	REC_START	n/a	n/a	n/a	-999	21	[0, 0, 0]	n/a	FR1	0	R1084T
2263.453	0.639	2536170	REC_WORD	0.837	n/a	ANT	1	21	[0, 0, 0]	n/a	FR1	0	R1084T
2264.092	2.908	2536808	REC_WORD	1.476	n/a	FOOD	9	21	[0, 0, 0]	n/a	FR1	0	R1084T
2267.0	25.626	2539716	REC_WORD	4.384	n/a	RAT	2	21	[0, 0, 0]	n/a	FR1	0	R1084T
2292.626	3.145	2565341	REC_END	n/a	n/a	n/a	-999	21	[0, 0, 0]	n/a	FR1	0	R1084T
2295.771	10.0	2568486	COUNTDOWN_START	n/a	n/a	n/a	-999	22	[0, 0, 0]	n/a	FR1	0	R1084T
2295.771	10.428	2568486	TRIAL	n/a	n/a	n/a	-999	22	[0, 0, 0]	n/a	FR1	0	R1084T
2306.199	0.007	2578913	COUNTDOWN_END	n/a	n/a	n/a	-999	22	[0, 0, 0]	n/a	FR1	0	R1084T
2306.206	1.6	2578920	ORIENT	n/a	n/a	n/a	-999	22	[0, 0, 0]	n/a	FR1	0	R1084T
2308.773	1.6	2581487	WORD	n/a	wordpools/wordpool_EN.txt	MOUTH	1	22	[0, 0, 0]	n/a	FR1	0	R1084T
2311.157	1.6	2583871	WORD	n/a	wordpools/wordpool_EN.txt	ROSE	2	22	[0, 0, 0]	n/a	FR1	0	R1084T
2313.691	1.6	2586405	WORD	n/a	wordpools/wordpool_EN.txt	FLOOR	3	22	[0, 0, 0]	n/a	FR1	0	R1084T
2316.308	1.6	2589022	WORD	n/a	wordpools/wordpool_EN.txt	PARK	4	22	[0, 0, 0]	n/a	FR1	0	R1084T
2318.908	1.6	2591622	WORD	n/a	wordpools/wordpool_EN.txt	SHOE	5	22	[0, 0, 0]	n/a	FR1	0	R1084T
2321.426	1.6	2594140	WORD	n/a	wordpools/wordpool_EN.txt	BOOT	6	22	[0, 0, 0]	n/a	FR1	0	R1084T
2323.843	1.6	2596557	WORD	n/a	wordpools/wordpool_EN.txt	CLOWN	7	22	[0, 0, 0]	n/a	FR1	0	R1084T
2326.243	1.6	2598956	WORD	n/a	wordpools/wordpool_EN.txt	SUIT	8	22	[0, 0, 0]	n/a	FR1	0	R1084T
2328.627	1.6	2601340	WORD	n/a	wordpools/wordpool_EN.txt	CAPE	9	22	[0, 0, 0]	n/a	FR1	0	R1084T
2331.061	1.6	2603774	WORD	n/a	wordpools/wordpool_EN.txt	JUICE	10	22	[0, 0, 0]	n/a	FR1	0	R1084T
2333.494	1.6	2606207	WORD	n/a	wordpools/wordpool_EN.txt	WORLD	11	22	[0, 0, 0]	n/a	FR1	0	R1084T
2336.078	1.6	2608791	WORD	n/a	wordpools/wordpool_EN.txt	BAG	12	22	[0, 0, 0]	n/a	FR1	0	R1084T
2337.695	0.001	2610408	DISTRACT_START	n/a	n/a	n/a	-999	22	[0, 0, 0]	n/a	FR1	0	R1084T
2337.696	0.016	2610409	START	n/a	n/a	n/a	-999	22	[-999, -999, -999]	n/a	FR1	0	R1084T
2337.712	4.134	2610425	PROB	4.106	n/a	n/a	-999	22	[1, 2, 2]	5.0	FR1	0	R1084T
2341.846	3.234	2614559	PROB	3.204	n/a	n/a	-999	22	[2, 2, 1]	5.0	FR1	0	R1084T
2345.08	4.301	2617792	PROB	4.266	n/a	n/a	-999	22	[6, 9, 9]	25.0	FR1	0	R1084T
2349.381	3.65	2622093	PROB	3.628	n/a	n/a	-999	22	[2, 4, 7]	13.0	FR1	0	R1084T
2353.031	3.151	2625743	PROB	3.115	n/a	n/a	-999	22	[9, 6, 6]	21.0	FR1	0	R1084T
2356.182	1.787	2628894	PROB	1.787	n/a	n/a	-999	22	[5, 5, 1]	11.0	FR1	0	R1084T
2357.969	0.012	2630681	STOP	n/a	n/a	n/a	-999	22	[-999, -999, -999]	n/a	FR1	0	R1084T
2357.981	1.069	2630693	DISTRACT_END	n/a	n/a	n/a	-999	22	[0, 0, 0]	n/a	FR1	0	R1084T
2359.05	6.525	2631762	REC_START	n/a	n/a	n/a	-999	22	[0, 0, 0]	n/a	FR1	0	R1084T
2365.575	3.379	2638286	REC_WORD	6.525	n/a	WORLD	11	22	[0, 0, 0]	n/a	FR1	0	R1084T
2368.954	8.453	2641665	REC_WORD	9.904	n/a	ANT	-999	22	[0, 0, 0]	n/a	FR1	0	R1084T
2377.407	11.653	2650118	REC_WORD	18.357	n/a	FACE	-999	22	[0, 0, 0]	n/a	FR1	0	R1084T
2389.06	1.894	2661770	REC_END	n/a	n/a	n/a	-999	22	[0, 0, 0]	n/a	FR1	0	R1084T
2390.954	0.0	2663664	TRIAL	n/a	n/a	n/a	-999	23	[0, 0, 0]	n/a	FR1	0	R1084T
2390.954	10.0	2663664	COUNTDOWN_START	n/a	n/a	n/a	-999	23	[0, 0, 0]	n/a	FR1	0	R1084T
2401.382	0.008	2674092	COUNTDOWN_END	n/a	n/a	n/a	-999	23	[0, 0, 0]	n/a	FR1	0	R1084T
2401.39	1.6	2674100	ORIENT	n/a	n/a	n/a	-999	23	[0, 0, 0]	n/a	FR1	0	R1084T
2403.874	1.6	2676584	WORD	n/a	wordpools/wordpool_EN.txt	ROOT	1	23	[0, 0, 0]	n/a	FR1	0	R1084T
2406.357	1.6	2679066	WORD	n/a	wordpools/wordpool_EN.txt	TREE	2	23	[0, 0, 0]	n/a	FR1	0	R1084T
2408.841	1.6	2681550	WORD	n/a	wordpools/wordpool_EN.txt	POOL	3	23	[0, 0, 0]	n/a	FR1	0	R1084T
2411.342	1.6	2684051	WORD	n/a	wordpools/wordpool_EN.txt	DART	4	23	[0, 0, 0]	n/a	FR1	0	R1084T
2413.909	1.6	2686618	WORD	n/a	wordpools/wordpool_EN.txt	RICE	5	23	[0, 0, 0]	n/a	FR1	0	R1084T
2416.376	1.6	2689085	WORD	n/a	wordpools/wordpool_EN.txt	LEAF	6	23	[0, 0, 0]	n/a	FR1	0	R1084T
2418.976	1.6	2691685	WORD	n/a	wordpools/wordpool_EN.txt	OAK	7	23	[0, 0, 0]	n/a	FR1	0	R1084T
2421.444	1.6	2694153	WORD	n/a	wordpools/wordpool_EN.txt	STEM	8	23	[0, 0, 0]	n/a	FR1	0	R1084T
2423.844	1.6	2696553	WORD	n/a	wordpools/wordpool_EN.txt	SEED	9	23	[0, 0, 0]	n/a	FR1	0	R1084T
2426.328	1.6	2699036	WORD	n/a	wordpools/wordpool_EN.txt	LAMB	10	23	[0, 0, 0]	n/a	FR1	0	R1084T
2428.929	1.6	2701637	WORD	n/a	wordpools/wordpool_EN.txt	MUG	11	23	[0, 0, 0]	n/a	FR1	0	R1084T
2431.379	1.6	2704087	WORD	n/a	wordpools/wordpool_EN.txt	TEA	12	23	[0, 0, 0]	n/a	FR1	0	R1084T
2432.995	0.0	2705703	DISTRACT_START	n/a	n/a	n/a	-999	23	[0, 0, 0]	n/a	FR1	0	R1084T
2432.995	0.017	2705703	START	n/a	n/a	n/a	-999	23	[-999, -999, -999]	n/a	FR1	0	R1084T
2433.012	9.819	2705720	PROB	9.798	n/a	n/a	-999	23	[2, 4, 6]	12.0	FR1	0	R1084T
2442.831	4.551	2715539	PROB	4.531	n/a	n/a	-999	23	[1, 7, 2]	10.0	FR1	0	R1084T
2447.382	4.201	2720089	PROB	4.18	n/a	n/a	-999	23	[5, 5, 8]	18.0	FR1	0	R1084T
2451.583	4.587	2724290	PROB	4.587	n/a	n/a	-999	23	[3, 4, 8]	15.0	FR1	0	R1084T
2456.17	0.013	2728877	STOP	n/a	n/a	n/a	-999	23	[-999, -999, -999]	n/a	FR1	0	R1084T
2456.183	1.035	2728890	DISTRACT_END	n/a	n/a	n/a	-999	23	[0, 0, 0]	n/a	FR1	0	R1084T
2457.218	0.743	2729925	REC_START	n/a	n/a	n/a	-999	23	[0, 0, 0]	n/a	FR1	0	R1084T
2457.961	1.476	2730668	REC_WORD	0.743	n/a	POOL	3	23	[0, 0, 0]	n/a	FR1	0	R1084T
2459.437	4.085	2732144	REC_WORD	2.219	n/a	DART	4	23	[0, 0, 0]	n/a	FR1	0	R1084T
2463.522	1.799	2736229	REC_WORD	6.304	n/a	ICE	-999	23	[0, 0, 0]	n/a	FR1	0	R1084T
2465.321	21.907	2738028	REC_WORD	8.103	n/a	RUG	-999	23	[0, 0, 0]	n/a	FR1	0	R1084T
2487.228	4.662	2759933	REC_END	n/a	n/a	n/a	-999	23	[0, 0, 0]	n/a	FR1	0	R1084T
2491.89	10.0	2764595	COUNTDOWN_START	n/a	n/a	n/a	-999	24	[0, 0, 0]	n/a	FR1	0	R1084T
2491.89	10.428	2764595	TRIAL	n/a	n/a	n/a	-999	24	[0, 0, 0]	n/a	FR1	0	R1084T
2502.318	0.007	2775023	COUNTDOWN_END	n/a	n/a	n/a	-999	24	[0, 0, 0]	n/a	FR1	0	R1084T
2502.325	1.6	2775030	ORIENT	n/a	n/a	n/a	-999	24	[0, 0, 0]	n/a	FR1	0	R1084T
2504.809	1.6	2777514	WORD	n/a	wordpools/wordpool_EN.txt	BRUSH	1	24	[0, 0, 0]	n/a	FR1	0	R1084T
2507.309	1.6	2780013	WORD	n/a	wordpools/wordpool_EN.txt	MUD	2	24	[0, 0, 0]	n/a	FR1	0	R1084T
2509.86	1.6	2782564	WORD	n/a	wordpools/wordpool_EN.txt	PHONE	3	24	[0, 0, 0]	n/a	FR1	0	R1084T
2512.344	1.6	2785048	WORD	n/a	wordpools/wordpool_EN.txt	CHALK	4	24	[0, 0, 0]	n/a	FR1	0	R1084T
2514.943	1.6	2787647	WORD	n/a	wordpools/wordpool_EN.txt	SMOKE	5	24	[0, 0, 0]	n/a	FR1	0	R1084T
2517.528	1.6	2790232	WORD	n/a	wordpools/wordpool_EN.txt	BATH	6	24	[0, 0, 0]	n/a	FR1	0	R1084T
2519.912	1.6	2792616	WORD	n/a	wordpools/wordpool_EN.txt	FOAM	7	24	[0, 0, 0]	n/a	FR1	0	R1084T
2522.496	1.6	2795200	WORD	n/a	wordpools/wordpool_EN.txt	FROG	8	24	[0, 0, 0]	n/a	FR1	0	R1084T
2524.961	1.6	2797665	WORD	n/a	wordpools/wordpool_EN.txt	STRING	9	24	[0, 0, 0]	n/a	FR1	0	R1084T
2527.48	1.6	2800183	WORD	n/a	wordpools/wordpool_EN.txt	BOARD	10	24	[0, 0, 0]	n/a	FR1	0	R1084T
2529.897	1.6	2802600	WORD	n/a	wordpools/wordpool_EN.txt	PIE	11	24	[0, 0, 0]	n/a	FR1	0	R1084T
2532.464	1.6	2805167	WORD	n/a	wordpools/wordpool_EN.txt	TOOTH	12	24	[0, 0, 0]	n/a	FR1	0	R1084T
2534.081	0.001	2806784	DISTRACT_START	n/a	n/a	n/a	-999	24	[0, 0, 0]	n/a	FR1	0	R1084T
2534.082	0.016	2806785	START	n/a	n/a	n/a	-999	24	[-999, -999, -999]	n/a	FR1	0	R1084T
2534.098	4.2	2806801	PROB	4.168	n/a	n/a	-999	24	[1, 1, 3]	5.0	FR1	0	R1084T
2538.298	4.268	2811001	PROB	4.24	n/a	n/a	-999	24	[6, 6, 3]	15.0	FR1	0	R1084T
2542.566	3.217	2815269	PROB	3.188	n/a	n/a	-999	24	[7, 2, 3]	12.0	FR1	0	R1084T
2545.783	4.834	2818486	PROB	4.811	n/a	n/a	-999	24	[7, 4, 9]	20.0	FR1	0	R1084T
2550.617	7.777	2823319	PROB	7.777	n/a	n/a	-999	24	[2, 7, 9]	18.0	FR1	0	R1084T
2558.394	0.008	2831096	STOP	n/a	n/a	n/a	-999	24	[-999, -999, -999]	n/a	FR1	0	R1084T
2558.402	1.151	2831104	DISTRACT_END	n/a	n/a	n/a	-999	24	[0, 0, 0]	n/a	FR1	0	R1084T
2559.553	2.833	2832255	REC_START	n/a	n/a	n/a	-999	24	[0, 0, 0]	n/a	FR1	0	R1084T
2562.386	9.006	2835088	REC_WORD	2.833	n/a	TOOTH	12	24	[0, 0, 0]	n/a	FR1	0	R1084T
2571.392	8.97	2844093	REC_WORD	11.839	n/a	BRUSH	1	24	[0, 0, 0]	n/a	FR1	0	R1084T
2580.362	9.201	2853063	REC_WORD	20.809	n/a	SCHOOL	-999	24	[0, 0, 0]	n/a	FR1	0	R1084T
2589.563	6.263	2862263	REC_END	n/a	n/a	n/a	-999	24	[0, 0, 0]	n/a	FR1	0	R1084T
2595.826	0.0	2868526	TRIAL	n/a	n/a	n/a	-999	25	[0, 0, 0]	n/a	FR1	0	R1084T
2595.826	10.0	2868526	COUNTDOWN_START	n/a	n/a	n/a	-999	25	[0, 0, 0]	n/a	FR1	0	R1084T
2606.254	0.007	2878954	COUNTDOWN_END	n/a	n/a	n/a	-999	25	[0, 0, 0]	n/a	FR1	0	R1084T
2606.261	1.6	2878961	ORIENT	n/a	n/a	n/a	-999	25	[0, 0, 0]	n/a	FR1	0	R1084T
2608.811	1.6	2881510	WORD	n/a	wordpools/wordpool_EN.txt	CLOCK	1	25	[0, 0, 0]	n/a	FR1	0	R1084T
2611.312	1.6	2884011	WORD	n/a	wordpools/wordpool_EN.txt	SPOON	2	25	[0, 0, 0]	n/a	FR1	0	R1084T
2613.696	1.6	2886395	WORD	n/a	wordpools/wordpool_EN.txt	SWORD	3	25	[0, 0, 0]	n/a	FR1	0	R1084T
2616.313	1.6	2889012	WORD	n/a	wordpools/wordpool_EN.txt	VAN	4	25	[0, 0, 0]	n/a	FR1	0	R1084T
2618.945	1.6	2891644	WORD	n/a	wordpools/wordpool_EN.txt	BOOK	5	25	[0, 0, 0]	n/a	FR1	0	R1084T
2621.547	1.6	2894246	WORD	n/a	wordpools/wordpool_EN.txt	ROOM	6	25	[0, 0, 0]	n/a	FR1	0	R1084T
2624.064	1.6	2896763	WORD	n/a	wordpools/wordpool_EN.txt	STREET	7	25	[0, 0, 0]	n/a	FR1	0	R1084T
2626.698	1.6	2899397	WORD	n/a	wordpools/wordpool_EN.txt	BLUSH	8	25	[0, 0, 0]	n/a	FR1	0	R1084T
2629.082	1.6	2901780	WORD	n/a	wordpools/wordpool_EN.txt	SOUP	9	25	[0, 0, 0]	n/a	FR1	0	R1084T
2631.615	1.6	2904313	WORD	n/a	wordpools/wordpool_EN.txt	TRUCK	10	25	[0, 0, 0]	n/a	FR1	0	R1084T
2634.233	1.6	2906931	WORD	n/a	wordpools/wordpool_EN.txt	GOAT	11	25	[0, 0, 0]	n/a	FR1	0	R1084T
2636.75	1.6	2909448	WORD	n/a	wordpools/wordpool_EN.txt	CART	12	25	[0, 0, 0]	n/a	FR1	0	R1084T
2638.367	0.001	2911065	DISTRACT_START	n/a	n/a	n/a	-999	25	[0, 0, 0]	n/a	FR1	0	R1084T
2638.368	0.015	2911066	START	n/a	n/a	n/a	-999	25	[-999, -999, -999]	n/a	FR1	0	R1084T
2638.383	6.518	2911081	PROB	6.483	n/a	n/a	-999	25	[5, 6, 2]	13.0	FR1	0	R1084T
2644.901	4.651	2917599	PROB	4.629	n/a	n/a	-999	25	[3, 8, 4]	15.0	FR1	0	R1084T
2649.552	3.466	2922249	PROB	3.441	n/a	n/a	-999	25	[6, 6, 1]	13.0	FR1	0	R1084T
2653.018	5.135	2925715	PROB	5.112	n/a	n/a	-999	25	[8, 7, 2]	17.0	FR1	0	R1084T
2658.153	4.353	2930850	PROB	4.353	n/a	n/a	-999	25	[4, 1, 6]	11.0	FR1	0	R1084T
2662.506	0.015	2935203	STOP	n/a	n/a	n/a	-999	25	[-999, -999, -999]	n/a	FR1	0	R1084T
2662.521	1.184	2935218	DISTRACT_END	n/a	n/a	n/a	-999	25	[0, 0, 0]	n/a	FR1	0	R1084T
2663.705	3.123	2936402	REC_START	n/a	n/a	n/a	-999	25	[0, 0, 0]	n/a	FR1	0	R1084T
2666.828	0.636	2939525	REC_WORD	3.123	n/a	BOOK	5	25	[0, 0, 0]	n/a	FR1	0	R1084T
2667.464	4.58	2940161	REC_WORD	3.759	n/a	ROOM	6	25	[0, 0, 0]	n/a	FR1	0	R1084T
2672.044	19.367	2944740	REC_WORD	8.339	n/a	STORE	-999	25	[0, 0, 0]	n/a	FR1	0	R1084T
2691.411	2.305	2964106	REC_WORD	27.706	n/a	CLOSET	-999	25	[0, 0, 0]	n/a	FR1	0	R1084T
2693.716	7.046	2966411	REC_END	n/a	n/a	n/a	-999	25	[0, 0, 0]	n/a	FR1	0	R1084T
2700.762	0.0	2973457	SESS_END	n/a	n/a	n/a	-999	25	[0, 0, 0]	n/a	FR1	0	R1084T
