onset	duration	sample	trial_type	response_time	stim_file	item_name	serialpos	list	test	answer	experiment	session	subject
0.0	18.012	1121312	SESS_START	n/a	n/a	n/a	-999	-999	[0, 0, 0]	n/a	FR1	0	R1142N
18.012	10.0	1139323	COUNTDOWN_START	n/a	n/a	n/a	-999	-999	[0, 0, 0]	n/a	FR1	0	R1142N
28.44	3.724	1149751	COUNTDOWN_END	n/a	n/a	n/a	-999	-999	[0, 0, 0]	n/a	FR1	0	R1142N
32.164	1.6	1153475	PRACTICE_WORD	n/a	n/a	CHEST	1	-1	[0, 0, 0]	n/a	FR1	0	R1142N
34.665	1.6	1155976	PRACTICE_WORD	n/a	n/a	FLOOD	2	-1	[0, 0, 0]	n/a	FR1	0	R1142N
37.082	1.6	1158392	PRACTICE_WORD	n/a	n/a	IRON	3	-1	[0, 0, 0]	n/a	FR1	0	R1142N
39.532	1.6	1160842	PRACTICE_WORD	n/a	n/a	BEAM	4	-1	[0, 0, 0]	n/a	FR1	0	R1142N
41.983	1.6	1163293	PRACTICE_WORD	n/a	n/a	CAMEL	5	-1	[0, 0, 0]	n/a	FR1	0	R1142N
44.483	1.6	1165793	PRACTICE_WORD	n/a	n/a	ATTIC	6	-1	[0, 0, 0]	n/a	FR1	0	R1142N
46.983	1.6	1168293	PRACTICE_WORD	n/a	n/a	RING	7	-1	[0, 0, 0]	n/a	FR1	0	R1142N
49.417	1.6	1170727	PRACTICE_WORD	n/a	n/a	TONGUE	8	-1	[0, 0, 0]	n/a	FR1	0	R1142N
51.968	1.6	1173278	PRACTICE_WORD	n/a	n/a	WATCH	9	-1	[0, 0, 0]	n/a	FR1	0	R1142N
54.418	1.6	1175728	PRACTICE_WORD	n/a	n/a	COTTON	10	-1	[0, 0, 0]	n/a	FR1	0	R1142N
56.902	1.6	1178212	PRACTICE_WORD	n/a	n/a	RHINO	11	-1	[0, 0, 0]	n/a	FR1	0	R1142N
59.502	1.6	1180812	PRACTICE_WORD	n/a	n/a	WAGON	12	-1	[0, 0, 0]	n/a	FR1	0	R1142N
61.119	0.001	1182429	PRACTICE_DISTRACT_START	n/a	n/a	n/a	-999	-1	[0, 0, 0]	n/a	FR1	0	R1142N
61.12	0.016	1182430	START	n/a	n/a	n/a	-999	-1	[-999, -999, -999]	n/a	FR1	0	R1142N
61.136	31.775	1182446	PROB	31.775	n/a	n/a	-999	-1	[1, 6, 6]	13.0	FR1	0	R1142N
92.911	0.014	1214219	STOP	n/a	n/a	n/a	-999	-1	[-999, -999, -999]	n/a	FR1	0	R1142N
92.925	0.602	1214233	PRACTICE_DISTRACT_END	n/a	n/a	n/a	-999	-1	[0, 0, 0]	n/a	FR1	0	R1142N
93.527	30.515	1214835	PRACTICE_REC_START	n/a	n/a	n/a	-999	-1	[0, 0, 0]	n/a	FR1	0	R1142N
124.042	41.261	1245349	PRACTICE_REC_END	n/a	n/a	n/a	-999	-1	[0, 0, 0]	n/a	FR1	0	R1142N
165.303	0.0	1286609	TRIAL	n/a	n/a	n/a	-999	1	[0, 0, 0]	n/a	FR1	0	R1142N
165.303	10.0	1286609	COUNTDOWN_START	n/a	n/a	n/a	-999	1	[0, 0, 0]	n/a	FR1	0	R1142N
175.731	0.007	1297036	COUNTDOWN_END	n/a	n/a	n/a	-999	1	[0, 0, 0]	n/a	FR1	0	R1142N
175.738	1.6	1297043	ORIENT	n/a	n/a	n/a	-999	1	[0, 0, 0]	n/a	FR1	0	R1142N
178.155	1.6	1299460	WORD	n/a	wordpools/wordpool_EN.txt	DOCK	1	1	[0, 0, 0]	n/a	FR1	0	R1142N
180.655	1.6	1301960	WORD	n/a	wordpools/wordpool_EN.txt	FOAM	2	1	[0, 0, 0]	n/a	FR1	0	R1142N
183.139	1.6	1304444	WORD	n/a	wordpools/wordpool_EN.txt	DRESS	3	1	[0, 0, 0]	n/a	FR1	0	R1142N
185.757	1.6	1307062	WORD	n/a	wordpools/wordpool_EN.txt	HOLE	4	1	[0, 0, 0]	n/a	FR1	0	R1142N
188.157	1.6	1309462	WORD	n/a	wordpools/wordpool_EN.txt	SALT	5	1	[0, 0, 0]	n/a	FR1	0	R1142N
190.757	1.6	1312062	WORD	n/a	wordpools/wordpool_EN.txt	JAR	6	1	[0, 0, 0]	n/a	FR1	0	R1142N
193.258	1.6	1314563	WORD	n/a	wordpools/wordpool_EN.txt	ROSE	7	1	[0, 0, 0]	n/a	FR1	0	R1142N
195.775	1.6	1317079	WORD	n/a	wordpools/wordpool_EN.txt	BEAK	8	1	[0, 0, 0]	n/a	FR1	0	R1142N
198.375	1.6	1319679	WORD	n/a	wordpools/wordpool_EN.txt	SPOON	9	1	[0, 0, 0]	n/a	FR1	0	R1142N
200.959	1.6	1322263	WORD	n/a	wordpools/wordpool_EN.txt	SINK	10	1	[0, 0, 0]	n/a	FR1	0	R1142N
203.493	1.6	1324797	WORD	n/a	wordpools/wordpool_EN.txt	BATH	11	1	[0, 0, 0]	n/a	FR1	0	R1142N
206.093	1.6	1327397	WORD	n/a	wordpools/wordpool_EN.txt	THREAD	12	1	[0, 0, 0]	n/a	FR1	0	R1142N
207.71	0.001	1329014	DISTRACT_START	n/a	n/a	n/a	-999	1	[0, 0, 0]	n/a	FR1	0	R1142N
207.711	0.016	1329015	START	n/a	n/a	n/a	-999	1	[-999, -999, -999]	n/a	FR1	0	R1142N
207.727	11.852	1329031	PROB	11.824	n/a	n/a	-999	1	[9, 3, 8]	20.0	FR1	0	R1142N
219.579	6.634	1340883	PROB	6.604	n/a	n/a	-999	1	[9, 7, 1]	9.0	FR1	0	R1142N
226.213	7.978	1347516	PROB	7.978	n/a	n/a	-999	1	[6, 5, 9]	20.0	FR1	0	R1142N
234.191	0.007	1355494	STOP	n/a	n/a	n/a	-999	1	[-999, -999, -999]	n/a	FR1	0	R1142N
234.198	1.121	1355501	DISTRACT_END	n/a	n/a	n/a	-999	1	[0, 0, 0]	n/a	FR1	0	R1142N
235.319	4.629	1356622	REC_START	n/a	n/a	n/a	-999	1	[0, 0, 0]	n/a	FR1	0	R1142N
239.948	0.925	1361251	REC_WORD	4.629	n/a	FOAM	2	1	[0, 0, 0]	n/a	FR1	0	R1142N
240.873	1.281	1362176	REC_WORD_VV	5.554	n/a	<>	-999	1	[0, 0, 0]	n/a	FR1	0	R1142N
242.154	1.011	1363457	REC_WORD	6.835	n/a	RISK	-999	1	[0, 0, 0]	n/a	FR1	0	R1142N
243.165	3.373	1364468	REC_WORD	7.846	n/a	ROSE	7	1	[0, 0, 0]	n/a	FR1	0	R1142N
246.538	2.365	1367841	REC_WORD	11.219	n/a	DOCK	1	1	[0, 0, 0]	n/a	FR1	0	R1142N
248.903	4.205	1370205	REC_WORD	13.584	n/a	LOVE	-999	1	[0, 0, 0]	n/a	FR1	0	R1142N
253.108	3.384	1374410	REC_WORD	17.789	n/a	WAGON	-999	1	[0, 0, 0]	n/a	FR1	0	R1142N
256.492	3.158	1377794	REC_WORD	21.173	n/a	SINK	10	1	[0, 0, 0]	n/a	FR1	0	R1142N
259.65	2.723	1380952	REC_WORD	24.331	n/a	ROSE	7	1	[0, 0, 0]	n/a	FR1	0	R1142N
262.373	2.953	1383675	REC_WORD_VV	27.054	n/a	<>	-999	1	[0, 0, 0]	n/a	FR1	0	R1142N
265.326	3.628	1386628	REC_END	n/a	n/a	n/a	-999	1	[0, 0, 0]	n/a	FR1	0	R1142N
268.954	0.0	1390256	TRIAL	n/a	n/a	n/a	-999	2	[0, 0, 0]	n/a	FR1	0	R1142N
268.954	10.0	1390256	COUNTDOWN_START	n/a	n/a	n/a	-999	2	[0, 0, 0]	n/a	FR1	0	R1142N
279.382	0.007	1400683	COUNTDOWN_END	n/a	n/a	n/a	-999	2	[0, 0, 0]	n/a	FR1	0	R1142N
279.389	1.6	1400690	ORIENT	n/a	n/a	n/a	-999	2	[0, 0, 0]	n/a	FR1	0	R1142N
281.822	1.6	1403123	WORD	n/a	wordpools/wordpool_EN.txt	CORN	1	2	[0, 0, 0]	n/a	FR1	0	R1142N
284.223	1.6	1405524	WORD	n/a	wordpools/wordpool_EN.txt	SMILE	2	2	[0, 0, 0]	n/a	FR1	0	R1142N
286.757	1.6	1408058	WORD	n/a	wordpools/wordpool_EN.txt	SKY	3	2	[0, 0, 0]	n/a	FR1	0	R1142N
289.357	1.6	1410658	WORD	n/a	wordpools/wordpool_EN.txt	VASE	4	2	[0, 0, 0]	n/a	FR1	0	R1142N
291.741	1.6	1413042	WORD	n/a	wordpools/wordpool_EN.txt	BOWL	5	2	[0, 0, 0]	n/a	FR1	0	R1142N
294.191	1.6	1415492	WORD	n/a	wordpools/wordpool_EN.txt	BAND	6	2	[0, 0, 0]	n/a	FR1	0	R1142N
296.742	1.6	1418043	WORD	n/a	wordpools/wordpool_EN.txt	OAR	7	2	[0, 0, 0]	n/a	FR1	0	R1142N
299.159	1.6	1420460	WORD	n/a	wordpools/wordpool_EN.txt	CHAIR	8	2	[0, 0, 0]	n/a	FR1	0	R1142N
301.709	1.6	1423009	WORD	n/a	wordpools/wordpool_EN.txt	STEAK	9	2	[0, 0, 0]	n/a	FR1	0	R1142N
304.259	1.6	1425559	WORD	n/a	wordpools/wordpool_EN.txt	BENCH	10	2	[0, 0, 0]	n/a	FR1	0	R1142N
306.677	1.6	1427977	WORD	n/a	wordpools/wordpool_EN.txt	LAMP	11	2	[0, 0, 0]	n/a	FR1	0	R1142N
309.194	1.6	1430494	WORD	n/a	wordpools/wordpool_EN.txt	HOOK	12	2	[0, 0, 0]	n/a	FR1	0	R1142N
310.811	0.001	1432111	DISTRACT_START	n/a	n/a	n/a	-999	2	[0, 0, 0]	n/a	FR1	0	R1142N
310.812	0.015	1432112	START	n/a	n/a	n/a	-999	2	[-999, -999, -999]	n/a	FR1	0	R1142N
310.827	8.002	1432127	PROB	7.98	n/a	n/a	-999	2	[5, 1, 3]	9.0	FR1	0	R1142N
318.829	5.95	1440129	PROB	5.922	n/a	n/a	-999	2	[2, 1, 5]	11.0	FR1	0	R1142N
324.779	6.156	1446079	PROB	6.156	n/a	n/a	-999	2	[2, 2, 8]	12.0	FR1	0	R1142N
330.935	0.012	1452234	STOP	n/a	n/a	n/a	-999	2	[-999, -999, -999]	n/a	FR1	0	R1142N
330.947	1.034	1452246	DISTRACT_END	n/a	n/a	n/a	-999	2	[0, 0, 0]	n/a	FR1	0	R1142N
331.981	4.835	1453280	REC_START	n/a	n/a	n/a	-999	2	[0, 0, 0]	n/a	FR1	0	R1142N
336.816	0.23	1458115	REC_WORD_VV	4.835	n/a	<>	-999	2	[0, 0, 0]	n/a	FR1	0	R1142N
337.046	1.473	1458345	REC_WORD	5.065	n/a	OAR	7	2	[0, 0, 0]	n/a	FR1	0	R1142N
338.519	1.239	1459818	REC_WORD	6.538	n/a	WAGON	-999	2	[0, 0, 0]	n/a	FR1	0	R1142N
339.758	1.366	1461057	REC_WORD	7.777	n/a	RISK	-999	2	[0, 0, 0]	n/a	FR1	0	R1142N
341.124	2.183	1462423	REC_WORD	9.143	n/a	CORN	1	2	[0, 0, 0]	n/a	FR1	0	R1142N
343.307	2.066	1464606	REC_WORD	11.326	n/a	BOWL	5	2	[0, 0, 0]	n/a	FR1	0	R1142N
345.373	6.175	1466672	REC_WORD	13.392	n/a	HUSK	-999	2	[0, 0, 0]	n/a	FR1	0	R1142N
351.548	7.89	1472847	REC_WORD	19.567	n/a	CORN	1	2	[0, 0, 0]	n/a	FR1	0	R1142N
359.438	2.556	1480736	REC_WORD	27.457	n/a	CORN	1	2	[0, 0, 0]	n/a	FR1	0	R1142N
361.994	5.259	1483292	REC_END	n/a	n/a	n/a	-999	2	[0, 0, 0]	n/a	FR1	0	R1142N
367.253	0.0	1488551	TRIAL	n/a	n/a	n/a	-999	3	[0, 0, 0]	n/a	FR1	0	R1142N
367.253	10.0	1488551	COUNTDOWN_START	n/a	n/a	n/a	-999	3	[0, 0, 0]	n/a	FR1	0	R1142N
377.681	0.007	1498979	COUNTDOWN_END	n/a	n/a	n/a	-999	3	[0, 0, 0]	n/a	FR1	0	R1142N
377.688	1.6	1498986	ORIENT	n/a	n/a	n/a	-999	3	[0, 0, 0]	n/a	FR1	0	R1142N
380.073	1.6	1501370	WORD	n/a	wordpools/wordpool_EN.txt	AXE	1	3	[0, 0, 0]	n/a	FR1	0	R1142N
382.506	1.6	1503803	WORD	n/a	wordpools/wordpool_EN.txt	ICE	2	3	[0, 0, 0]	n/a	FR1	0	R1142N
385.106	1.6	1506403	WORD	n/a	wordpools/wordpool_EN.txt	PLATE	3	3	[0, 0, 0]	n/a	FR1	0	R1142N
387.607	1.6	1508904	WORD	n/a	wordpools/wordpool_EN.txt	SHEET	4	3	[0, 0, 0]	n/a	FR1	0	R1142N
390.14	1.6	1511437	WORD	n/a	wordpools/wordpool_EN.txt	JAIL	5	3	[0, 0, 0]	n/a	FR1	0	R1142N
392.641	1.6	1513938	WORD	n/a	wordpools/wordpool_EN.txt	FILM	6	3	[0, 0, 0]	n/a	FR1	0	R1142N
395.124	1.6	1516421	WORD	n/a	wordpools/wordpool_EN.txt	MOOSE	7	3	[0, 0, 0]	n/a	FR1	0	R1142N
397.725	1.6	1519022	WORD	n/a	wordpools/wordpool_EN.txt	ROOT	8	3	[0, 0, 0]	n/a	FR1	0	R1142N
400.108	1.6	1521405	WORD	n/a	wordpools/wordpool_EN.txt	CROWN	9	3	[0, 0, 0]	n/a	FR1	0	R1142N
402.642	1.6	1523939	WORD	n/a	wordpools/wordpool_EN.txt	NAIL	10	3	[0, 0, 0]	n/a	FR1	0	R1142N
405.276	1.6	1526573	WORD	n/a	wordpools/wordpool_EN.txt	TOOL	11	3	[0, 0, 0]	n/a	FR1	0	R1142N
407.81	1.6	1529106	WORD	n/a	wordpools/wordpool_EN.txt	SEED	12	3	[0, 0, 0]	n/a	FR1	0	R1142N
409.427	0.001	1530723	DISTRACT_START	n/a	n/a	n/a	-999	3	[0, 0, 0]	n/a	FR1	0	R1142N
409.428	0.016	1530724	START	n/a	n/a	n/a	-999	3	[-999, -999, -999]	n/a	FR1	0	R1142N
409.444	11.602	1530740	PROB	11.579	n/a	n/a	-999	3	[3, 4, 8]	17.0	FR1	0	R1142N
421.046	10.929	1542342	PROB	10.929	n/a	n/a	-999	3	[1, 9, 2]	12.0	FR1	0	R1142N
431.975	0.006	1553271	STOP	n/a	n/a	n/a	-999	3	[-999, -999, -999]	n/a	FR1	0	R1142N
431.981	1.117	1553277	DISTRACT_END	n/a	n/a	n/a	-999	3	[0, 0, 0]	n/a	FR1	0	R1142N
433.098	2.297	1554393	REC_START	n/a	n/a	n/a	-999	3	[0, 0, 0]	n/a	FR1	0	R1142N
435.395	0.984	1556690	REC_WORD	2.297	n/a	AXE	1	3	[0, 0, 0]	n/a	FR1	0	R1142N
436.379	1.99	1557674	REC_WORD	3.281	n/a	CROWN	9	3	[0, 0, 0]	n/a	FR1	0	R1142N
438.369	2.449	1559664	REC_WORD	5.271	n/a	SEED	12	3	[0, 0, 0]	n/a	FR1	0	R1142N
440.818	2.79	1562113	REC_WORD	7.72	n/a	WATER	-999	3	[0, 0, 0]	n/a	FR1	0	R1142N
443.608	3.31	1564903	REC_WORD	10.51	n/a	ROSE	-999	3	[0, 0, 0]	n/a	FR1	0	R1142N
446.918	9.117	1568213	REC_WORD	13.82	n/a	OIL	-999	3	[0, 0, 0]	n/a	FR1	0	R1142N
456.035	7.073	1577330	REC_WORD	22.937	n/a	OAR	-999	3	[0, 0, 0]	n/a	FR1	0	R1142N
463.108	4.395	1584402	REC_END	n/a	n/a	n/a	-999	3	[0, 0, 0]	n/a	FR1	0	R1142N
467.503	0.0	1588797	TRIAL	n/a	n/a	n/a	-999	4	[0, 0, 0]	n/a	FR1	0	R1142N
467.503	10.0	1588797	COUNTDOWN_START	n/a	n/a	n/a	-999	4	[0, 0, 0]	n/a	FR1	0	R1142N
477.931	0.007	1599225	COUNTDOWN_END	n/a	n/a	n/a	-999	4	[0, 0, 0]	n/a	FR1	0	R1142N
477.938	1.6	1599232	ORIENT	n/a	n/a	n/a	-999	4	[0, 0, 0]	n/a	FR1	0	R1142N
480.472	1.6	1601766	WORD	n/a	wordpools/wordpool_EN.txt	SNOW	1	4	[0, 0, 0]	n/a	FR1	0	R1142N
482.906	1.6	1604200	WORD	n/a	wordpools/wordpool_EN.txt	BLOOM	2	4	[0, 0, 0]	n/a	FR1	0	R1142N
485.473	1.6	1606766	WORD	n/a	wordpools/wordpool_EN.txt	FLAME	3	4	[0, 0, 0]	n/a	FR1	0	R1142N
488.041	1.6	1609334	WORD	n/a	wordpools/wordpool_EN.txt	FOG	4	4	[0, 0, 0]	n/a	FR1	0	R1142N
490.523	1.6	1611816	WORD	n/a	wordpools/wordpool_EN.txt	CLOUD	5	4	[0, 0, 0]	n/a	FR1	0	R1142N
493.058	1.6	1614351	WORD	n/a	wordpools/wordpool_EN.txt	PIT	6	4	[0, 0, 0]	n/a	FR1	0	R1142N
495.624	1.6	1616917	WORD	n/a	wordpools/wordpool_EN.txt	POND	7	4	[0, 0, 0]	n/a	FR1	0	R1142N
498.125	1.6	1619418	WORD	n/a	wordpools/wordpool_EN.txt	CROW	8	4	[0, 0, 0]	n/a	FR1	0	R1142N
500.575	1.6	1621868	WORD	n/a	wordpools/wordpool_EN.txt	LAKE	9	4	[0, 0, 0]	n/a	FR1	0	R1142N
503.043	1.6	1624336	WORD	n/a	wordpools/wordpool_EN.txt	MAT	10	4	[0, 0, 0]	n/a	FR1	0	R1142N
505.543	1.6	1626836	WORD	n/a	wordpools/wordpool_EN.txt	CUBE	11	4	[0, 0, 0]	n/a	FR1	0	R1142N
508.028	1.6	1629321	WORD	n/a	wordpools/wordpool_EN.txt	JEEP	12	4	[0, 0, 0]	n/a	FR1	0	R1142N
509.643	0.001	1630936	DISTRACT_START	n/a	n/a	n/a	-999	4	[0, 0, 0]	n/a	FR1	0	R1142N
509.644	0.016	1630937	START	n/a	n/a	n/a	-999	4	[-999, -999, -999]	n/a	FR1	0	R1142N
509.66	6.901	1630953	PROB	6.867	n/a	n/a	-999	4	[1, 2, 5]	8.0	FR1	0	R1142N
516.561	10.335	1637853	PROB	10.31	n/a	n/a	-999	4	[5, 5, 6]	16.0	FR1	0	R1142N
526.896	13.407	1648188	PROB	13.407	n/a	n/a	-999	4	[2, 9, 4]	15.0	FR1	0	R1142N
540.303	0.012	1661594	STOP	n/a	n/a	n/a	-999	4	[-999, -999, -999]	n/a	FR1	0	R1142N
540.315	1.201	1661606	DISTRACT_END	n/a	n/a	n/a	-999	4	[0, 0, 0]	n/a	FR1	0	R1142N
541.516	3.239	1662807	REC_START	n/a	n/a	n/a	-999	4	[0, 0, 0]	n/a	FR1	0	R1142N
544.755	2.538	1666046	REC_WORD	3.239	n/a	CROW	8	4	[0, 0, 0]	n/a	FR1	0	R1142N
547.293	3.316	1668584	REC_WORD	5.777	n/a	RISK	-999	4	[0, 0, 0]	n/a	FR1	0	R1142N
550.609	1.967	1671900	REC_WORD	9.093	n/a	ROSE	-999	4	[0, 0, 0]	n/a	FR1	0	R1142N
552.576	2.837	1673867	REC_WORD	11.06	n/a	BROOM	-999	4	[0, 0, 0]	n/a	FR1	0	R1142N
555.413	1.0	1676704	REC_WORD_VV	13.897	n/a	<>	-999	4	[0, 0, 0]	n/a	FR1	0	R1142N
556.413	2.335	1677704	REC_WORD_VV	14.897	n/a	<>	-999	4	[0, 0, 0]	n/a	FR1	0	R1142N
558.748	4.628	1680039	REC_WORD	17.232	n/a	POLE	-999	4	[0, 0, 0]	n/a	FR1	0	R1142N
563.376	0.943	1684667	REC_WORD_VV	21.86	n/a	<>	-999	4	[0, 0, 0]	n/a	FR1	0	R1142N
564.319	6.208	1685610	REC_WORD	22.803	n/a	OAR	-999	4	[0, 0, 0]	n/a	FR1	0	R1142N
570.527	0.999	1691817	REC_WORD	29.011	n/a	SHEEP	-999	4	[0, 0, 0]	n/a	FR1	0	R1142N
571.526	3.045	1692816	REC_END	n/a	n/a	n/a	-999	4	[0, 0, 0]	n/a	FR1	0	R1142N
574.571	0.0	1695861	TRIAL	n/a	n/a	n/a	-999	5	[0, 0, 0]	n/a	FR1	0	R1142N
574.571	10.0	1695861	COUNTDOWN_START	n/a	n/a	n/a	-999	5	[0, 0, 0]	n/a	FR1	0	R1142N
584.999	0.007	1706289	COUNTDOWN_END	n/a	n/a	n/a	-999	5	[0, 0, 0]	n/a	FR1	0	R1142N
585.006	1.6	1706296	ORIENT	n/a	n/a	n/a	-999	5	[0, 0, 0]	n/a	FR1	0	R1142N
587.389	1.6	1708679	WORD	n/a	wordpools/wordpool_EN.txt	COW	1	5	[0, 0, 0]	n/a	FR1	0	R1142N
589.873	1.6	1711163	WORD	n/a	wordpools/wordpool_EN.txt	DOLL	2	5	[0, 0, 0]	n/a	FR1	0	R1142N
592.49	1.6	1713779	WORD	n/a	wordpools/wordpool_EN.txt	HOOF	3	5	[0, 0, 0]	n/a	FR1	0	R1142N
595.042	1.6	1716331	WORD	n/a	wordpools/wordpool_EN.txt	SOUP	4	5	[0, 0, 0]	n/a	FR1	0	R1142N
597.441	1.6	1718730	WORD	n/a	wordpools/wordpool_EN.txt	STRAW	5	5	[0, 0, 0]	n/a	FR1	0	R1142N
599.892	1.6	1721181	WORD	n/a	wordpools/wordpool_EN.txt	PASTE	6	5	[0, 0, 0]	n/a	FR1	0	R1142N
602.275	1.6	1723564	WORD	n/a	wordpools/wordpool_EN.txt	OAK	7	5	[0, 0, 0]	n/a	FR1	0	R1142N
604.692	1.6	1725981	WORD	n/a	wordpools/wordpool_EN.txt	CUP	8	5	[0, 0, 0]	n/a	FR1	0	R1142N
607.226	1.6	1728515	WORD	n/a	wordpools/wordpool_EN.txt	TOAST	9	5	[0, 0, 0]	n/a	FR1	0	R1142N
609.71	1.6	1730999	WORD	n/a	wordpools/wordpool_EN.txt	VINE	10	5	[0, 0, 0]	n/a	FR1	0	R1142N
612.244	1.6	1733533	WORD	n/a	wordpools/wordpool_EN.txt	DOOR	11	5	[0, 0, 0]	n/a	FR1	0	R1142N
614.711	1.6	1736000	WORD	n/a	wordpools/wordpool_EN.txt	PEAR	12	5	[0, 0, 0]	n/a	FR1	0	R1142N
616.328	0.0	1737617	DISTRACT_START	n/a	n/a	n/a	-999	5	[0, 0, 0]	n/a	FR1	0	R1142N
616.328	0.016	1737617	START	n/a	n/a	n/a	-999	5	[-999, -999, -999]	n/a	FR1	0	R1142N
616.344	8.318	1737633	PROB	8.287	n/a	n/a	-999	5	[1, 2, 7]	15.0	FR1	0	R1142N
624.662	4.968	1745950	PROB	4.937	n/a	n/a	-999	5	[5, 1, 1]	7.0	FR1	0	R1142N
629.63	5.884	1750918	PROB	5.849	n/a	n/a	-999	5	[5, 2, 5]	12.0	FR1	0	R1142N
635.514	6.709	1756802	PROB	6.709	n/a	n/a	-999	5	[7, 1, 2]	10.0	FR1	0	R1142N
642.223	0.009	1763511	STOP	n/a	n/a	n/a	-999	5	[-999, -999, -999]	n/a	FR1	0	R1142N
642.232	1.184	1763520	DISTRACT_END	n/a	n/a	n/a	-999	5	[0, 0, 0]	n/a	FR1	0	R1142N
643.416	2.548	1764704	REC_START	n/a	n/a	n/a	-999	5	[0, 0, 0]	n/a	FR1	0	R1142N
645.964	0.875	1767251	REC_WORD	2.548	n/a	COW	1	5	[0, 0, 0]	n/a	FR1	0	R1142N
646.839	1.408	1768126	REC_WORD	3.423	n/a	STRAW	5	5	[0, 0, 0]	n/a	FR1	0	R1142N
648.247	1.462	1769534	REC_WORD	4.831	n/a	SUIT	-999	5	[0, 0, 0]	n/a	FR1	0	R1142N
649.709	1.524	1770996	REC_WORD	6.293	n/a	CRACKER	-999	5	[0, 0, 0]	n/a	FR1	0	R1142N
651.233	2.278	1772520	REC_WORD	7.817	n/a	PEARL	-999	5	[0, 0, 0]	n/a	FR1	0	R1142N
653.511	2.97	1774798	REC_WORD	10.095	n/a	PASTE	6	5	[0, 0, 0]	n/a	FR1	0	R1142N
656.481	3.169	1777768	REC_WORD	13.065	n/a	OAR	-999	5	[0, 0, 0]	n/a	FR1	0	R1142N
659.65	13.776	1780937	REC_WORD	16.234	n/a	SHEEP	-999	5	[0, 0, 0]	n/a	FR1	0	R1142N
673.426	4.613	1794712	REC_END	n/a	n/a	n/a	-999	5	[0, 0, 0]	n/a	FR1	0	R1142N
678.039	0.0	1799325	TRIAL	n/a	n/a	n/a	-999	6	[0, 0, 0]	n/a	FR1	0	R1142N
678.039	10.0	1799325	COUNTDOWN_START	n/a	n/a	n/a	-999	6	[0, 0, 0]	n/a	FR1	0	R1142N
688.467	0.006	1809753	COUNTDOWN_END	n/a	n/a	n/a	-999	6	[0, 0, 0]	n/a	FR1	0	R1142N
688.473	1.6	1809759	ORIENT	n/a	n/a	n/a	-999	6	[0, 0, 0]	n/a	FR1	0	R1142N
690.873	1.6	1812159	WORD	n/a	wordpools/wordpool_EN.txt	SUIT	1	6	[0, 0, 0]	n/a	FR1	0	R1142N
693.474	1.6	1814760	WORD	n/a	wordpools/wordpool_EN.txt	EAR	2	6	[0, 0, 0]	n/a	FR1	0	R1142N
695.924	1.6	1817210	WORD	n/a	wordpools/wordpool_EN.txt	SWORD	3	6	[0, 0, 0]	n/a	FR1	0	R1142N
698.391	1.6	1819676	WORD	n/a	wordpools/wordpool_EN.txt	CLOCK	4	6	[0, 0, 0]	n/a	FR1	0	R1142N
700.792	1.6	1822077	WORD	n/a	wordpools/wordpool_EN.txt	PHONE	5	6	[0, 0, 0]	n/a	FR1	0	R1142N
703.192	1.6	1824477	WORD	n/a	wordpools/wordpool_EN.txt	GATE	6	6	[0, 0, 0]	n/a	FR1	0	R1142N
705.626	1.6	1826911	WORD	n/a	wordpools/wordpool_EN.txt	BOOK	7	6	[0, 0, 0]	n/a	FR1	0	R1142N
708.176	1.6	1829461	WORD	n/a	wordpools/wordpool_EN.txt	MOUTH	8	6	[0, 0, 0]	n/a	FR1	0	R1142N
710.676	1.6	1831961	WORD	n/a	wordpools/wordpool_EN.txt	BOY	9	6	[0, 0, 0]	n/a	FR1	0	R1142N
713.077	1.6	1834362	WORD	n/a	wordpools/wordpool_EN.txt	HOUSE	10	6	[0, 0, 0]	n/a	FR1	0	R1142N
715.494	1.6	1836779	WORD	n/a	wordpools/wordpool_EN.txt	BLUSH	11	6	[0, 0, 0]	n/a	FR1	0	R1142N
718.062	1.6	1839347	WORD	n/a	wordpools/wordpool_EN.txt	VAN	12	6	[0, 0, 0]	n/a	FR1	0	R1142N
719.678	0.001	1840963	DISTRACT_START	n/a	n/a	n/a	-999	6	[0, 0, 0]	n/a	FR1	0	R1142N
719.679	0.016	1840964	START	n/a	n/a	n/a	-999	6	[-999, -999, -999]	n/a	FR1	0	R1142N
719.695	11.285	1840980	PROB	11.256	n/a	n/a	-999	6	[8, 7, 6]	21.0	FR1	0	R1142N
730.98	14.275	1852264	PROB	14.275	n/a	n/a	-999	6	[8, 5, 9]	21.0	FR1	0	R1142N
745.255	0.011	1866539	STOP	n/a	n/a	n/a	-999	6	[-999, -999, -999]	n/a	FR1	0	R1142N
745.266	1.034	1866550	DISTRACT_END	n/a	n/a	n/a	-999	6	[0, 0, 0]	n/a	FR1	0	R1142N
746.3	3.674	1867584	REC_START	n/a	n/a	n/a	-999	6	[0, 0, 0]	n/a	FR1	0	R1142N
749.974	0.863	1871257	REC_WORD	3.674	n/a	DOLL	-999	6	[0, 0, 0]	n/a	FR1	0	R1142N
750.837	0.754	1872120	REC_WORD	4.537	n/a	PASTE	-999	6	[0, 0, 0]	n/a	FR1	0	R1142N
751.591	1.396	1872874	REC_WORD	5.291	n/a	SUIT	1	6	[0, 0, 0]	n/a	FR1	0	R1142N
752.987	1.151	1874270	REC_WORD	6.687	n/a	BOY	9	6	[0, 0, 0]	n/a	FR1	0	R1142N
754.138	3.958	1875421	REC_WORD	7.838	n/a	HOUSE	10	6	[0, 0, 0]	n/a	FR1	0	R1142N
758.096	3.374	1879379	REC_WORD_VV	11.796	n/a	<>	-999	6	[0, 0, 0]	n/a	FR1	0	R1142N
761.47	8.228	1882753	REC_WORD	15.17	n/a	SHOE	-999	6	[0, 0, 0]	n/a	FR1	0	R1142N
769.698	6.612	1890981	REC_WORD	23.398	n/a	POOL	-999	6	[0, 0, 0]	n/a	FR1	0	R1142N
776.31	5.812	1897592	REC_END	n/a	n/a	n/a	-999	6	[0, 0, 0]	n/a	FR1	0	R1142N
782.122	0.0	1903404	TRIAL	n/a	n/a	n/a	-999	7	[0, 0, 0]	n/a	FR1	0	R1142N
782.122	10.0	1903404	COUNTDOWN_START	n/a	n/a	n/a	-999	7	[0, 0, 0]	n/a	FR1	0	R1142N
792.55	0.007	1913832	COUNTDOWN_END	n/a	n/a	n/a	-999	7	[0, 0, 0]	n/a	FR1	0	R1142N
792.557	1.6	1913839	ORIENT	n/a	n/a	n/a	-999	7	[0, 0, 0]	n/a	FR1	0	R1142N
795.174	1.6	1916456	WORD	n/a	wordpools/wordpool_EN.txt	BEAR	1	7	[0, 0, 0]	n/a	FR1	0	R1142N
797.741	1.6	1919023	WORD	n/a	wordpools/wordpool_EN.txt	ZOO	2	7	[0, 0, 0]	n/a	FR1	0	R1142N
800.141	1.6	1921423	WORD	n/a	wordpools/wordpool_EN.txt	PIN	3	7	[0, 0, 0]	n/a	FR1	0	R1142N
802.675	1.6	1923956	WORD	n/a	wordpools/wordpool_EN.txt	WORM	4	7	[0, 0, 0]	n/a	FR1	0	R1142N
805.159	1.6	1926440	WORD	n/a	wordpools/wordpool_EN.txt	BED	5	7	[0, 0, 0]	n/a	FR1	0	R1142N
807.542	1.6	1928823	WORD	n/a	wordpools/wordpool_EN.txt	BIRD	6	7	[0, 0, 0]	n/a	FR1	0	R1142N
810.01	1.6	1931291	WORD	n/a	wordpools/wordpool_EN.txt	SLIME	7	7	[0, 0, 0]	n/a	FR1	0	R1142N
812.51	1.6	1933791	WORD	n/a	wordpools/wordpool_EN.txt	BRANCH	8	7	[0, 0, 0]	n/a	FR1	0	R1142N
814.894	1.6	1936175	WORD	n/a	wordpools/wordpool_EN.txt	BALL	9	7	[0, 0, 0]	n/a	FR1	0	R1142N
817.511	1.6	1938792	WORD	n/a	wordpools/wordpool_EN.txt	BAT	10	7	[0, 0, 0]	n/a	FR1	0	R1142N
819.995	1.6	1941276	WORD	n/a	wordpools/wordpool_EN.txt	WOLF	11	7	[0, 0, 0]	n/a	FR1	0	R1142N
822.395	1.6	1943676	WORD	n/a	wordpools/wordpool_EN.txt	FUR	12	7	[0, 0, 0]	n/a	FR1	0	R1142N
824.012	0.001	1945293	DISTRACT_START	n/a	n/a	n/a	-999	7	[0, 0, 0]	n/a	FR1	0	R1142N
824.013	0.017	1945294	START	n/a	n/a	n/a	-999	7	[-999, -999, -999]	n/a	FR1	0	R1142N
824.03	11.55	1945311	PROB	11.529	n/a	n/a	-999	7	[3, 5, 4]	12.0	FR1	0	R1142N
835.58	6.318	1956860	PROB	6.283	n/a	n/a	-999	7	[3, 5, 3]	11.0	FR1	0	R1142N
841.898	15.893	1963178	PROB	15.893	n/a	n/a	-999	7	[4, 9, 3]	13.0	FR1	0	R1142N
857.791	0.01	1979070	STOP	n/a	n/a	n/a	-999	7	[-999, -999, -999]	n/a	FR1	0	R1142N
857.801	1.068	1979080	DISTRACT_END	n/a	n/a	n/a	-999	7	[0, 0, 0]	n/a	FR1	0	R1142N
858.869	3.825	1980148	REC_START	n/a	n/a	n/a	-999	7	[0, 0, 0]	n/a	FR1	0	R1142N
862.694	0.588	1983973	REC_WORD	3.825	n/a	BROOM	-999	7	[0, 0, 0]	n/a	FR1	0	R1142N
863.282	1.916	1984561	REC_WORD	4.413	n/a	SLIME	7	7	[0, 0, 0]	n/a	FR1	0	R1142N
865.198	1.031	1986477	REC_WORD	6.329	n/a	BOY	-999	7	[0, 0, 0]	n/a	FR1	0	R1142N
866.229	0.91	1987508	REC_WORD	7.36	n/a	BALL	9	7	[0, 0, 0]	n/a	FR1	0	R1142N
867.139	2.743	1988418	REC_WORD	8.27	n/a	BEAR	1	7	[0, 0, 0]	n/a	FR1	0	R1142N
869.882	1.143	1991161	REC_WORD	11.013	n/a	TABLE	-999	7	[0, 0, 0]	n/a	FR1	0	R1142N
871.025	3.18	1992304	REC_WORD	12.156	n/a	HOUSE	-999	7	[0, 0, 0]	n/a	FR1	0	R1142N
874.205	2.159	1995484	REC_WORD	15.336	n/a	ICE	-999	7	[0, 0, 0]	n/a	FR1	0	R1142N
876.364	8.847	1997643	REC_WORD	17.495	n/a	PICK	-999	7	[0, 0, 0]	n/a	FR1	0	R1142N
885.211	2.665	2006489	REC_WORD	26.342	n/a	PEARL	-999	7	[0, 0, 0]	n/a	FR1	0	R1142N
887.876	1.003	2009154	REC_WORD	29.007	n/a	POLE	-999	7	[0, 0, 0]	n/a	FR1	0	R1142N
888.879	3.894	2010157	REC_END	n/a	n/a	n/a	-999	7	[0, 0, 0]	n/a	FR1	0	R1142N
892.773	0.0	2014051	TRIAL	n/a	n/a	n/a	-999	8	[0, 0, 0]	n/a	FR1	0	R1142N
892.773	10.0	2014051	COUNTDOWN_START	n/a	n/a	n/a	-999	8	[0, 0, 0]	n/a	FR1	0	R1142N
903.201	0.007	2024479	COUNTDOWN_END	n/a	n/a	n/a	-999	8	[0, 0, 0]	n/a	FR1	0	R1142N
903.208	1.6	2024486	ORIENT	n/a	n/a	n/a	-999	8	[0, 0, 0]	n/a	FR1	0	R1142N
905.659	1.6	2026937	WORD	n/a	wordpools/wordpool_EN.txt	CAPE	1	8	[0, 0, 0]	n/a	FR1	0	R1142N
908.06	1.6	2029337	WORD	n/a	wordpools/wordpool_EN.txt	FLOOR	2	8	[0, 0, 0]	n/a	FR1	0	R1142N
910.559	1.6	2031836	WORD	n/a	wordpools/wordpool_EN.txt	ROCK	3	8	[0, 0, 0]	n/a	FR1	0	R1142N
913.11	1.6	2034387	WORD	n/a	wordpools/wordpool_EN.txt	EEL	4	8	[0, 0, 0]	n/a	FR1	0	R1142N
915.56	1.6	2036837	WORD	n/a	wordpools/wordpool_EN.txt	NEST	5	8	[0, 0, 0]	n/a	FR1	0	R1142N
918.094	1.6	2039371	WORD	n/a	wordpools/wordpool_EN.txt	MOTH	6	8	[0, 0, 0]	n/a	FR1	0	R1142N
920.645	1.6	2041922	WORD	n/a	wordpools/wordpool_EN.txt	WING	7	8	[0, 0, 0]	n/a	FR1	0	R1142N
923.112	1.6	2044389	WORD	n/a	wordpools/wordpool_EN.txt	ROOM	8	8	[0, 0, 0]	n/a	FR1	0	R1142N
925.529	1.6	2046806	WORD	n/a	wordpools/wordpool_EN.txt	BEACH	9	8	[0, 0, 0]	n/a	FR1	0	R1142N
927.912	1.6	2049189	WORD	n/a	wordpools/wordpool_EN.txt	WHEEL	10	8	[0, 0, 0]	n/a	FR1	0	R1142N
930.329	1.6	2051606	WORD	n/a	wordpools/wordpool_EN.txt	RAIN	11	8	[0, 0, 0]	n/a	FR1	0	R1142N
932.763	1.6	2054040	WORD	n/a	wordpools/wordpool_EN.txt	GRASS	12	8	[0, 0, 0]	n/a	FR1	0	R1142N
934.38	0.001	2055656	DISTRACT_START	n/a	n/a	n/a	-999	8	[0, 0, 0]	n/a	FR1	0	R1142N
934.381	0.016	2055657	START	n/a	n/a	n/a	-999	8	[-999, -999, -999]	n/a	FR1	0	R1142N
934.397	7.317	2055673	PROB	7.29	n/a	n/a	-999	8	[9, 7, 1]	12.0	FR1	0	R1142N
941.714	9.852	2062990	PROB	9.829	n/a	n/a	-999	8	[7, 9, 3]	19.0	FR1	0	R1142N
951.566	4.057	2072842	PROB	4.057	n/a	n/a	-999	8	[1, 1, 2]	4.0	FR1	0	R1142N
955.623	0.011	2076899	STOP	n/a	n/a	n/a	-999	8	[-999, -999, -999]	n/a	FR1	0	R1142N
955.634	1.217	2076910	DISTRACT_END	n/a	n/a	n/a	-999	8	[0, 0, 0]	n/a	FR1	0	R1142N
956.851	2.228	2078127	REC_START	n/a	n/a	n/a	-999	8	[0, 0, 0]	n/a	FR1	0	R1142N
959.079	0.909	2080355	REC_WORD_VV	2.228	n/a	<>	-999	8	[0, 0, 0]	n/a	FR1	0	R1142N
959.988	1.61	2081264	REC_WORD	3.137	n/a	RAIN	11	8	[0, 0, 0]	n/a	FR1	0	R1142N
961.598	3.742	2082873	REC_WORD	4.747	n/a	WORM	-999	8	[0, 0, 0]	n/a	FR1	0	R1142N
965.34	2.385	2086615	REC_WORD	8.489	n/a	SLEEK	-999	8	[0, 0, 0]	n/a	FR1	0	R1142N
967.725	8.227	2089000	REC_WORD	10.874	n/a	SLIME	-999	8	[0, 0, 0]	n/a	FR1	0	R1142N
975.952	3.837	2097227	REC_WORD	19.101	n/a	VAN	-999	8	[0, 0, 0]	n/a	FR1	0	R1142N
979.789	7.072	2101064	REC_WORD	22.938	n/a	HOUSE	-999	8	[0, 0, 0]	n/a	FR1	0	R1142N
986.861	4.295	2108135	REC_END	n/a	n/a	n/a	-999	8	[0, 0, 0]	n/a	FR1	0	R1142N
991.156	0.0	2112430	TRIAL	n/a	n/a	n/a	-999	9	[0, 0, 0]	n/a	FR1	0	R1142N
991.156	10.0	2112430	COUNTDOWN_START	n/a	n/a	n/a	-999	9	[0, 0, 0]	n/a	FR1	0	R1142N
1001.584	0.007	2122858	COUNTDOWN_END	n/a	n/a	n/a	-999	9	[0, 0, 0]	n/a	FR1	0	R1142N
1001.591	1.6	2122865	ORIENT	n/a	n/a	n/a	-999	9	[0, 0, 0]	n/a	FR1	0	R1142N
1004.125	1.6	2125399	WORD	n/a	wordpools/wordpool_EN.txt	MOLE	1	9	[0, 0, 0]	n/a	FR1	0	R1142N
1006.709	1.6	2127983	WORD	n/a	wordpools/wordpool_EN.txt	DUCK	2	9	[0, 0, 0]	n/a	FR1	0	R1142N
1009.126	1.6	2130400	WORD	n/a	wordpools/wordpool_EN.txt	TOOTH	3	9	[0, 0, 0]	n/a	FR1	0	R1142N
1011.576	1.6	2132850	WORD	n/a	wordpools/wordpool_EN.txt	SHIRT	4	9	[0, 0, 0]	n/a	FR1	0	R1142N
1014.177	1.6	2135450	WORD	n/a	wordpools/wordpool_EN.txt	BOAT	5	9	[0, 0, 0]	n/a	FR1	0	R1142N
1016.76	1.6	2138033	WORD	n/a	wordpools/wordpool_EN.txt	BOOT	6	9	[0, 0, 0]	n/a	FR1	0	R1142N
1019.211	1.6	2140484	WORD	n/a	wordpools/wordpool_EN.txt	SKUNK	7	9	[0, 0, 0]	n/a	FR1	0	R1142N
1021.628	1.6	2142901	WORD	n/a	wordpools/wordpool_EN.txt	TEETH	8	9	[0, 0, 0]	n/a	FR1	0	R1142N
1024.095	1.6	2145368	WORD	n/a	wordpools/wordpool_EN.txt	LOCK	9	9	[0, 0, 0]	n/a	FR1	0	R1142N
1026.662	1.6	2147935	WORD	n/a	wordpools/wordpool_EN.txt	SNAKE	10	9	[0, 0, 0]	n/a	FR1	0	R1142N
1029.063	1.6	2150336	WORD	n/a	wordpools/wordpool_EN.txt	ARK	11	9	[0, 0, 0]	n/a	FR1	0	R1142N
1031.663	1.6	2152936	WORD	n/a	wordpools/wordpool_EN.txt	CALF	12	9	[0, 0, 0]	n/a	FR1	0	R1142N
1033.28	0.001	2154553	DISTRACT_START	n/a	n/a	n/a	-999	9	[0, 0, 0]	n/a	FR1	0	R1142N
1033.281	0.015	2154554	START	n/a	n/a	n/a	-999	9	[-999, -999, -999]	n/a	FR1	0	R1142N
1033.296	25.007	2154569	PROB	25.007	n/a	n/a	-999	9	[7, 5, 9]	21.0	FR1	0	R1142N
1058.303	0.014	2179575	STOP	n/a	n/a	n/a	-999	9	[-999, -999, -999]	n/a	FR1	0	R1142N
1058.317	1.168	2179589	DISTRACT_END	n/a	n/a	n/a	-999	9	[0, 0, 0]	n/a	FR1	0	R1142N
1059.485	2.518	2180757	REC_START	n/a	n/a	n/a	-999	9	[0, 0, 0]	n/a	FR1	0	R1142N
1062.003	0.735	2183275	REC_WORD_VV	2.518	n/a	<>	-999	9	[0, 0, 0]	n/a	FR1	0	R1142N
1062.738	1.127	2184010	REC_WORD	3.253	n/a	SNAKE	10	9	[0, 0, 0]	n/a	FR1	0	R1142N
1063.865	1.417	2185137	REC_WORD	4.38	n/a	ARK	11	9	[0, 0, 0]	n/a	FR1	0	R1142N
1065.282	5.271	2186554	REC_WORD	5.797	n/a	HEART	-999	9	[0, 0, 0]	n/a	FR1	0	R1142N
1070.553	6.556	2191824	REC_WORD	11.068	n/a	SLEEK	-999	9	[0, 0, 0]	n/a	FR1	0	R1142N
1077.109	2.529	2198380	REC_WORD	17.624	n/a	BOAT	5	9	[0, 0, 0]	n/a	FR1	0	R1142N
1079.638	1.981	2200909	REC_WORD	20.153	n/a	BOOK	-999	9	[0, 0, 0]	n/a	FR1	0	R1142N
1081.619	5.259	2202890	REC_WORD	22.134	n/a	ARCH	-999	9	[0, 0, 0]	n/a	FR1	0	R1142N
1086.878	2.617	2208149	REC_WORD	27.393	n/a	ARCH	-999	9	[0, 0, 0]	n/a	FR1	0	R1142N
1089.495	5.795	2210766	REC_END	n/a	n/a	n/a	-999	9	[0, 0, 0]	n/a	FR1	0	R1142N
1095.29	10.0	2216560	COUNTDOWN_START	n/a	n/a	n/a	-999	10	[0, 0, 0]	n/a	FR1	0	R1142N
1095.29	10.428	2216560	TRIAL	n/a	n/a	n/a	-999	10	[0, 0, 0]	n/a	FR1	0	R1142N
1105.718	0.007	2226988	COUNTDOWN_END	n/a	n/a	n/a	-999	10	[0, 0, 0]	n/a	FR1	0	R1142N
1105.725	1.6	2226995	ORIENT	n/a	n/a	n/a	-999	10	[0, 0, 0]	n/a	FR1	0	R1142N
1108.109	1.6	2229379	WORD	n/a	wordpools/wordpool_EN.txt	EGG	1	10	[0, 0, 0]	n/a	FR1	0	R1142N
1110.592	1.6	2231862	WORD	n/a	wordpools/wordpool_EN.txt	FORK	2	10	[0, 0, 0]	n/a	FR1	0	R1142N
1113.176	1.6	2234446	WORD	n/a	wordpools/wordpool_EN.txt	SLUSH	3	10	[0, 0, 0]	n/a	FR1	0	R1142N
1115.66	1.6	2236930	WORD	n/a	wordpools/wordpool_EN.txt	SEAT	4	10	[0, 0, 0]	n/a	FR1	0	R1142N
1118.277	1.6	2239547	WORD	n/a	wordpools/wordpool_EN.txt	PARK	5	10	[0, 0, 0]	n/a	FR1	0	R1142N
1120.777	1.6	2242046	WORD	n/a	wordpools/wordpool_EN.txt	CAR	6	10	[0, 0, 0]	n/a	FR1	0	R1142N
1123.361	1.6	2244630	WORD	n/a	wordpools/wordpool_EN.txt	DITCH	7	10	[0, 0, 0]	n/a	FR1	0	R1142N
1125.912	1.6	2247181	WORD	n/a	wordpools/wordpool_EN.txt	GLOVE	8	10	[0, 0, 0]	n/a	FR1	0	R1142N
1128.462	1.6	2249731	WORD	n/a	wordpools/wordpool_EN.txt	PANTS	9	10	[0, 0, 0]	n/a	FR1	0	R1142N
1130.912	1.6	2252181	WORD	n/a	wordpools/wordpool_EN.txt	SQUARE	10	10	[0, 0, 0]	n/a	FR1	0	R1142N
1133.513	1.6	2254782	WORD	n/a	wordpools/wordpool_EN.txt	LEG	11	10	[0, 0, 0]	n/a	FR1	0	R1142N
1135.93	1.6	2257199	WORD	n/a	wordpools/wordpool_EN.txt	TRAIN	12	10	[0, 0, 0]	n/a	FR1	0	R1142N
1137.547	0.001	2258816	DISTRACT_START	n/a	n/a	n/a	-999	10	[0, 0, 0]	n/a	FR1	0	R1142N
1137.548	0.016	2258817	START	n/a	n/a	n/a	-999	10	[-999, -999, -999]	n/a	FR1	0	R1142N
1137.564	10.151	2258833	PROB	10.131	n/a	n/a	-999	10	[5, 1, 8]	14.0	FR1	0	R1142N
1147.715	5.901	2268983	PROB	5.876	n/a	n/a	-999	10	[1, 1, 4]	6.0	FR1	0	R1142N
1153.616	7.775	2274884	PROB	7.775	n/a	n/a	-999	10	[6, 4, 5]	15.0	FR1	0	R1142N
1161.391	0.01	2282659	STOP	n/a	n/a	n/a	-999	10	[-999, -999, -999]	n/a	FR1	0	R1142N
1161.401	1.068	2282669	DISTRACT_END	n/a	n/a	n/a	-999	10	[0, 0, 0]	n/a	FR1	0	R1142N
1162.469	3.732	2283737	REC_START	n/a	n/a	n/a	-999	10	[0, 0, 0]	n/a	FR1	0	R1142N
1166.201	1.605	2287469	REC_WORD	3.732	n/a	SNAKE	-999	10	[0, 0, 0]	n/a	FR1	0	R1142N
1167.806	1.581	2289074	REC_WORD	5.337	n/a	SLEEK	-999	10	[0, 0, 0]	n/a	FR1	0	R1142N
1169.387	1.729	2290655	REC_WORD	6.918	n/a	BOAT	-999	10	[0, 0, 0]	n/a	FR1	0	R1142N
1171.116	4.24	2292383	REC_WORD	8.647	n/a	ARCH	-999	10	[0, 0, 0]	n/a	FR1	0	R1142N
1175.356	2.336	2296623	REC_WORD	12.887	n/a	DOG	-999	10	[0, 0, 0]	n/a	FR1	0	R1142N
1177.692	10.308	2298959	REC_WORD	15.223	n/a	CAN	-999	10	[0, 0, 0]	n/a	FR1	0	R1142N
1188.0	4.479	2309267	REC_WORD	25.531	n/a	CALF	-999	10	[0, 0, 0]	n/a	FR1	0	R1142N
1192.479	2.211	2313746	REC_END	n/a	n/a	n/a	-999	10	[0, 0, 0]	n/a	FR1	0	R1142N
1194.69	0.0	2315957	TRIAL	n/a	n/a	n/a	-999	11	[0, 0, 0]	n/a	FR1	0	R1142N
1194.69	10.0	2315957	COUNTDOWN_START	n/a	n/a	n/a	-999	11	[0, 0, 0]	n/a	FR1	0	R1142N
1205.118	0.007	2326384	COUNTDOWN_END	n/a	n/a	n/a	-999	11	[0, 0, 0]	n/a	FR1	0	R1142N
1205.125	1.6	2326391	ORIENT	n/a	n/a	n/a	-999	11	[0, 0, 0]	n/a	FR1	0	R1142N
1207.575	1.6	2328841	WORD	n/a	wordpools/wordpool_EN.txt	ARM	1	11	[0, 0, 0]	n/a	FR1	0	R1142N
1210.077	1.6	2331343	WORD	n/a	wordpools/wordpool_EN.txt	CHEEK	2	11	[0, 0, 0]	n/a	FR1	0	R1142N
1212.493	1.6	2333759	WORD	n/a	wordpools/wordpool_EN.txt	TOE	3	11	[0, 0, 0]	n/a	FR1	0	R1142N
1214.926	1.6	2336192	WORD	n/a	wordpools/wordpool_EN.txt	PET	4	11	[0, 0, 0]	n/a	FR1	0	R1142N
1217.527	1.6	2338793	WORD	n/a	wordpools/wordpool_EN.txt	TENT	5	11	[0, 0, 0]	n/a	FR1	0	R1142N
1220.127	1.6	2341393	WORD	n/a	wordpools/wordpool_EN.txt	PURSE	6	11	[0, 0, 0]	n/a	FR1	0	R1142N
1222.711	1.6	2343977	WORD	n/a	wordpools/wordpool_EN.txt	CAGE	7	11	[0, 0, 0]	n/a	FR1	0	R1142N
1225.228	1.6	2346493	WORD	n/a	wordpools/wordpool_EN.txt	PALM	8	11	[0, 0, 0]	n/a	FR1	0	R1142N
1227.829	1.6	2349094	WORD	n/a	wordpools/wordpool_EN.txt	GUARD	9	11	[0, 0, 0]	n/a	FR1	0	R1142N
1230.312	1.6	2351577	WORD	n/a	wordpools/wordpool_EN.txt	HORN	10	11	[0, 0, 0]	n/a	FR1	0	R1142N
1232.829	1.6	2354094	WORD	n/a	wordpools/wordpool_EN.txt	TOY	11	11	[0, 0, 0]	n/a	FR1	0	R1142N
1235.346	1.6	2356611	WORD	n/a	wordpools/wordpool_EN.txt	TAIL	12	11	[0, 0, 0]	n/a	FR1	0	R1142N
1236.963	0.001	2358228	DISTRACT_START	n/a	n/a	n/a	-999	11	[0, 0, 0]	n/a	FR1	0	R1142N
1236.964	0.016	2358229	START	n/a	n/a	n/a	-999	11	[-999, -999, -999]	n/a	FR1	0	R1142N
1236.98	8.768	2358245	PROB	8.747	n/a	n/a	-999	11	[8, 7, 1]	16.0	FR1	0	R1142N
1245.748	15.219	2367013	PROB	15.219	n/a	n/a	-999	11	[5, 6, 4]	15.0	FR1	0	R1142N
1260.967	0.017	2382231	STOP	n/a	n/a	n/a	-999	11	[-999, -999, -999]	n/a	FR1	0	R1142N
1260.984	1.085	2382248	DISTRACT_END	n/a	n/a	n/a	-999	11	[0, 0, 0]	n/a	FR1	0	R1142N
1262.069	2.452	2383333	REC_START	n/a	n/a	n/a	-999	11	[0, 0, 0]	n/a	FR1	0	R1142N
1264.521	3.571	2385785	REC_WORD	2.452	n/a	CALF	-999	11	[0, 0, 0]	n/a	FR1	0	R1142N
1268.092	1.87	2389356	REC_WORD_VV	6.023	n/a	<>	-999	11	[0, 0, 0]	n/a	FR1	0	R1142N
1269.962	2.498	2391226	REC_WORD	7.893	n/a	TOY	11	11	[0, 0, 0]	n/a	FR1	0	R1142N
1272.46	2.667	2393724	REC_WORD	10.391	n/a	ARCH	-999	11	[0, 0, 0]	n/a	FR1	0	R1142N
1275.127	3.072	2396391	REC_WORD_VV	13.058	n/a	<>	-999	11	[0, 0, 0]	n/a	FR1	0	R1142N
1278.199	2.521	2399462	REC_WORD_VV	16.13	n/a	<>	-999	11	[0, 0, 0]	n/a	FR1	0	R1142N
1280.72	2.743	2401983	REC_WORD	18.651	n/a	LOOK	-999	11	[0, 0, 0]	n/a	FR1	0	R1142N
1283.463	0.695	2404726	REC_WORD	21.394	n/a	CAP	-999	11	[0, 0, 0]	n/a	FR1	0	R1142N
1284.158	1.879	2405421	REC_WORD	22.089	n/a	TOY	11	11	[0, 0, 0]	n/a	FR1	0	R1142N
1286.037	1.784	2407300	REC_WORD_VV	23.968	n/a	<>	-999	11	[0, 0, 0]	n/a	FR1	0	R1142N
1287.821	4.257	2409084	REC_WORD_VV	25.752	n/a	<>	-999	11	[0, 0, 0]	n/a	FR1	0	R1142N
1292.078	1.711	2413341	REC_END	n/a	n/a	n/a	-999	11	[0, 0, 0]	n/a	FR1	0	R1142N
1293.789	10.0	2415052	COUNTDOWN_START	n/a	n/a	n/a	-999	12	[0, 0, 0]	n/a	FR1	0	R1142N
1293.79	10.427	2415053	TRIAL	n/a	n/a	n/a	-999	12	[0, 0, 0]	n/a	FR1	0	R1142N
1304.217	0.007	2425479	COUNTDOWN_END	n/a	n/a	n/a	-999	12	[0, 0, 0]	n/a	FR1	0	R1142N
1304.224	1.6	2425486	ORIENT	n/a	n/a	n/a	-999	12	[0, 0, 0]	n/a	FR1	0	R1142N
1306.658	1.6	2427920	WORD	n/a	wordpools/wordpool_EN.txt	STAR	1	12	[0, 0, 0]	n/a	FR1	0	R1142N
1309.175	1.6	2430437	WORD	n/a	wordpools/wordpool_EN.txt	SCHOOL	2	12	[0, 0, 0]	n/a	FR1	0	R1142N
1311.625	1.6	2432887	WORD	n/a	wordpools/wordpool_EN.txt	FLAG	3	12	[0, 0, 0]	n/a	FR1	0	R1142N
1314.06	1.6	2435322	WORD	n/a	wordpools/wordpool_EN.txt	VEST	4	12	[0, 0, 0]	n/a	FR1	0	R1142N
1316.676	1.6	2437938	WORD	n/a	wordpools/wordpool_EN.txt	BRIDGE	5	12	[0, 0, 0]	n/a	FR1	0	R1142N
1319.26	1.6	2440522	WORD	n/a	wordpools/wordpool_EN.txt	CLIFF	6	12	[0, 0, 0]	n/a	FR1	0	R1142N
1321.677	1.6	2442939	WORD	n/a	wordpools/wordpool_EN.txt	FACE	7	12	[0, 0, 0]	n/a	FR1	0	R1142N
1324.062	1.6	2445324	WORD	n/a	wordpools/wordpool_EN.txt	FORT	8	12	[0, 0, 0]	n/a	FR1	0	R1142N
1326.478	1.6	2447740	WORD	n/a	wordpools/wordpool_EN.txt	LAND	9	12	[0, 0, 0]	n/a	FR1	0	R1142N
1328.879	1.6	2450141	WORD	n/a	wordpools/wordpool_EN.txt	CHIEF	10	12	[0, 0, 0]	n/a	FR1	0	R1142N
1331.429	1.6	2452690	WORD	n/a	wordpools/wordpool_EN.txt	PEA	11	12	[0, 0, 0]	n/a	FR1	0	R1142N
1333.963	1.6	2455224	WORD	n/a	wordpools/wordpool_EN.txt	ROAD	12	12	[0, 0, 0]	n/a	FR1	0	R1142N
1335.58	0.0	2456841	DISTRACT_START	n/a	n/a	n/a	-999	12	[0, 0, 0]	n/a	FR1	0	R1142N
1335.58	0.016	2456841	START	n/a	n/a	n/a	-999	12	[-999, -999, -999]	n/a	FR1	0	R1142N
1335.596	10.785	2456857	PROB	10.763	n/a	n/a	-999	12	[2, 7, 6]	15.0	FR1	0	R1142N
1346.381	8.118	2467642	PROB	8.09	n/a	n/a	-999	12	[7, 6, 2]	15.0	FR1	0	R1142N
1354.499	13.308	2475760	PROB	13.308	n/a	n/a	-999	12	[5, 1, 4]	10.0	FR1	0	R1142N
1367.807	0.011	2489067	STOP	n/a	n/a	n/a	-999	12	[-999, -999, -999]	n/a	FR1	0	R1142N
1367.818	1.118	2489078	DISTRACT_END	n/a	n/a	n/a	-999	12	[0, 0, 0]	n/a	FR1	0	R1142N
1368.936	3.464	2490196	REC_START	n/a	n/a	n/a	-999	12	[0, 0, 0]	n/a	FR1	0	R1142N
1372.4	1.09	2493660	REC_WORD	3.464	n/a	CLIFF	6	12	[0, 0, 0]	n/a	FR1	0	R1142N
1373.49	2.047	2494750	REC_WORD_VV	4.554	n/a	<>	-999	12	[0, 0, 0]	n/a	FR1	0	R1142N
1375.537	3.556	2496797	REC_WORD	6.601	n/a	TOY	-999	12	[0, 0, 0]	n/a	FR1	0	R1142N
1379.093	2.535	2500353	REC_WORD_VV	10.157	n/a	<>	-999	12	[0, 0, 0]	n/a	FR1	0	R1142N
1381.628	8.622	2502888	REC_WORD_VV	12.692	n/a	<>	-999	12	[0, 0, 0]	n/a	FR1	0	R1142N
1390.25	6.102	2511509	REC_WORD_VV	21.314	n/a	<>	-999	12	[0, 0, 0]	n/a	FR1	0	R1142N
1396.352	0.977	2517611	REC_WORD_VV	27.416	n/a	<>	-999	12	[0, 0, 0]	n/a	FR1	0	R1142N
1397.329	1.619	2518588	REC_WORD	28.393	n/a	TOY	-999	12	[0, 0, 0]	n/a	FR1	0	R1142N
1398.948	153.102	2520207	REC_END	n/a	n/a	n/a	-999	12	[0, 0, 0]	n/a	FR1	0	R1142N
1552.05	0.0	2673303	TRIAL	n/a	n/a	n/a	-999	13	[0, 0, 0]	n/a	FR1	0	R1142N
1552.05	10.0	2673303	COUNTDOWN_START	n/a	n/a	n/a	-999	13	[0, 0, 0]	n/a	FR1	0	R1142N
1562.478	0.006	2683731	COUNTDOWN_END	n/a	n/a	n/a	-999	13	[0, 0, 0]	n/a	FR1	0	R1142N
1562.484	1.6	2683737	ORIENT	n/a	n/a	n/a	-999	13	[0, 0, 0]	n/a	FR1	0	R1142N
1565.001	1.6	2686254	WORD	n/a	wordpools/wordpool_EN.txt	BUSH	1	13	[0, 0, 0]	n/a	FR1	0	R1142N
1567.618	1.6	2688870	WORD	n/a	wordpools/wordpool_EN.txt	HAND	2	13	[0, 0, 0]	n/a	FR1	0	R1142N
1570.036	1.6	2691288	WORD	n/a	wordpools/wordpool_EN.txt	CHALK	3	13	[0, 0, 0]	n/a	FR1	0	R1142N
1572.652	1.6	2693904	WORD	n/a	wordpools/wordpool_EN.txt	FENCE	4	13	[0, 0, 0]	n/a	FR1	0	R1142N
1575.269	1.6	2696521	WORD	n/a	wordpools/wordpool_EN.txt	DEER	5	13	[0, 0, 0]	n/a	FR1	0	R1142N
1577.836	1.6	2699088	WORD	n/a	wordpools/wordpool_EN.txt	SKI	6	13	[0, 0, 0]	n/a	FR1	0	R1142N
1580.303	1.6	2701555	WORD	n/a	wordpools/wordpool_EN.txt	MULE	7	13	[0, 0, 0]	n/a	FR1	0	R1142N
1582.837	1.6	2704089	WORD	n/a	wordpools/wordpool_EN.txt	STORM	8	13	[0, 0, 0]	n/a	FR1	0	R1142N
1585.454	1.6	2706706	WORD	n/a	wordpools/wordpool_EN.txt	HILL	9	13	[0, 0, 0]	n/a	FR1	0	R1142N
1587.871	1.6	2709123	WORD	n/a	wordpools/wordpool_EN.txt	BRUSH	10	13	[0, 0, 0]	n/a	FR1	0	R1142N
1590.405	1.6	2711657	WORD	n/a	wordpools/wordpool_EN.txt	WAND	11	13	[0, 0, 0]	n/a	FR1	0	R1142N
1592.922	1.6	2714174	WORD	n/a	wordpools/wordpool_EN.txt	FOOT	12	13	[0, 0, 0]	n/a	FR1	0	R1142N
1594.539	0.001	2715790	DISTRACT_START	n/a	n/a	n/a	-999	13	[0, 0, 0]	n/a	FR1	0	R1142N
1594.54	0.015	2715791	START	n/a	n/a	n/a	-999	13	[-999, -999, -999]	n/a	FR1	0	R1142N
1594.555	11.369	2715806	PROB	11.34	n/a	n/a	-999	13	[2, 3, 3]	8.0	FR1	0	R1142N
1605.924	9.124	2727175	PROB	9.124	n/a	n/a	-999	13	[6, 6, 6]	18.0	FR1	0	R1142N
1615.048	0.012	2736299	STOP	n/a	n/a	n/a	-999	13	[-999, -999, -999]	n/a	FR1	0	R1142N
1615.06	1.067	2736311	DISTRACT_END	n/a	n/a	n/a	-999	13	[0, 0, 0]	n/a	FR1	0	R1142N
1616.127	1.718	2737378	REC_START	n/a	n/a	n/a	-999	13	[0, 0, 0]	n/a	FR1	0	R1142N
1617.845	0.775	2739096	REC_WORD_VV	1.718	n/a	<>	-999	13	[0, 0, 0]	n/a	FR1	0	R1142N
1618.62	0.806	2739871	REC_WORD	2.493	n/a	CHALK	3	13	[0, 0, 0]	n/a	FR1	0	R1142N
1619.426	1.603	2740676	REC_WORD	3.299	n/a	BUSH	1	13	[0, 0, 0]	n/a	FR1	0	R1142N
1621.029	1.568	2742279	REC_WORD	4.902	n/a	BRUSH	10	13	[0, 0, 0]	n/a	FR1	0	R1142N
1622.597	1.784	2743847	REC_WORD	6.47	n/a	DEER	5	13	[0, 0, 0]	n/a	FR1	0	R1142N
1624.381	3.027	2745631	REC_WORD_VV	8.254	n/a	<>	-999	13	[0, 0, 0]	n/a	FR1	0	R1142N
1627.408	2.81	2748658	REC_WORD	11.281	n/a	DOE	-999	13	[0, 0, 0]	n/a	FR1	0	R1142N
1630.218	2.685	2751468	REC_WORD	14.091	n/a	COW	-999	13	[0, 0, 0]	n/a	FR1	0	R1142N
1632.903	7.75	2754153	REC_WORD_VV	16.776	n/a	<>	-999	13	[0, 0, 0]	n/a	FR1	0	R1142N
1640.653	1.0	2761903	REC_WORD_VV	24.526	n/a	<>	-999	13	[0, 0, 0]	n/a	FR1	0	R1142N
1641.653	1.0	2762903	REC_WORD_VV	25.526	n/a	<>	-999	13	[0, 0, 0]	n/a	FR1	0	R1142N
1642.653	1.0	2763903	REC_WORD_VV	26.526	n/a	<>	-999	13	[0, 0, 0]	n/a	FR1	0	R1142N
1643.653	1.0	2764903	REC_WORD_VV	27.526	n/a	<>	-999	13	[0, 0, 0]	n/a	FR1	0	R1142N
1644.653	1.0	2765903	REC_WORD_VV	28.526	n/a	<>	-999	13	[0, 0, 0]	n/a	FR1	0	R1142N
1645.653	0.484	2766903	REC_WORD_VV	29.526	n/a	<>	-999	13	[0, 0, 0]	n/a	FR1	0	R1142N
1646.137	30.349	2767386	REC_END	n/a	n/a	n/a	-999	13	[0, 0, 0]	n/a	FR1	0	R1142N
1676.486	0.0	2797734	TRIAL	n/a	n/a	n/a	-999	14	[0, 0, 0]	n/a	FR1	0	R1142N
1676.486	10.0	2797734	COUNTDOWN_START	n/a	n/a	n/a	-999	14	[0, 0, 0]	n/a	FR1	0	R1142N
1686.914	0.007	2808162	COUNTDOWN_END	n/a	n/a	n/a	-999	14	[0, 0, 0]	n/a	FR1	0	R1142N
1686.921	1.6	2808169	ORIENT	n/a	n/a	n/a	-999	14	[0, 0, 0]	n/a	FR1	0	R1142N
1689.471	1.6	2810719	WORD	n/a	wordpools/wordpool_EN.txt	FOOD	1	14	[0, 0, 0]	n/a	FR1	0	R1142N
1691.938	1.6	2813186	WORD	n/a	wordpools/wordpool_EN.txt	BRICK	2	14	[0, 0, 0]	n/a	FR1	0	R1142N
1694.322	1.6	2815570	WORD	n/a	wordpools/wordpool_EN.txt	PRINCE	3	14	[0, 0, 0]	n/a	FR1	0	R1142N
1696.839	1.6	2818087	WORD	n/a	wordpools/wordpool_EN.txt	WALL	4	14	[0, 0, 0]	n/a	FR1	0	R1142N
1699.356	1.6	2820603	WORD	n/a	wordpools/wordpool_EN.txt	SHIELD	5	14	[0, 0, 0]	n/a	FR1	0	R1142N
1701.823	1.6	2823070	WORD	n/a	wordpools/wordpool_EN.txt	PIE	6	14	[0, 0, 0]	n/a	FR1	0	R1142N
1704.224	1.6	2825471	WORD	n/a	wordpools/wordpool_EN.txt	FRUIT	7	14	[0, 0, 0]	n/a	FR1	0	R1142N
1706.707	1.6	2827954	WORD	n/a	wordpools/wordpool_EN.txt	CLAY	8	14	[0, 0, 0]	n/a	FR1	0	R1142N
1709.174	1.6	2830421	WORD	n/a	wordpools/wordpool_EN.txt	SHELL	9	14	[0, 0, 0]	n/a	FR1	0	R1142N
1711.608	1.6	2832855	WORD	n/a	wordpools/wordpool_EN.txt	SPEAR	10	14	[0, 0, 0]	n/a	FR1	0	R1142N
1714.142	1.6	2835389	WORD	n/a	wordpools/wordpool_EN.txt	CLOTH	11	14	[0, 0, 0]	n/a	FR1	0	R1142N
1716.559	1.6	2837806	WORD	n/a	wordpools/wordpool_EN.txt	FROG	12	14	[0, 0, 0]	n/a	FR1	0	R1142N
1718.176	0.001	2839423	DISTRACT_START	n/a	n/a	n/a	-999	14	[0, 0, 0]	n/a	FR1	0	R1142N
1718.177	0.015	2839424	START	n/a	n/a	n/a	-999	14	[-999, -999, -999]	n/a	FR1	0	R1142N
1718.192	8.552	2839439	PROB	8.527	n/a	n/a	-999	14	[4, 2, 8]	14.0	FR1	0	R1142N
1726.744	10.268	2847990	PROB	10.247	n/a	n/a	-999	14	[1, 7, 4]	12.0	FR1	0	R1142N
1737.012	6.603	2858258	PROB	6.603	n/a	n/a	-999	14	[5, 5, 6]	16.0	FR1	0	R1142N
1743.615	0.015	2864861	STOP	n/a	n/a	n/a	-999	14	[-999, -999, -999]	n/a	FR1	0	R1142N
1743.63	1.117	2864876	DISTRACT_END	n/a	n/a	n/a	-999	14	[0, 0, 0]	n/a	FR1	0	R1142N
1744.747	2.189	2865993	REC_START	n/a	n/a	n/a	-999	14	[0, 0, 0]	n/a	FR1	0	R1142N
1746.936	0.683	2868182	REC_WORD_VV	2.189	n/a	<>	-999	14	[0, 0, 0]	n/a	FR1	0	R1142N
1747.619	1.019	2868865	REC_WORD	2.872	n/a	BRICK	2	14	[0, 0, 0]	n/a	FR1	0	R1142N
1748.638	2.442	2869884	REC_WORD	3.891	n/a	CLAY	8	14	[0, 0, 0]	n/a	FR1	0	R1142N
1751.08	2.43	2872326	REC_WORD	6.333	n/a	WALL	4	14	[0, 0, 0]	n/a	FR1	0	R1142N
1753.51	2.576	2874755	REC_WORD_VV	8.763	n/a	<>	-999	14	[0, 0, 0]	n/a	FR1	0	R1142N
1756.086	2.942	2877331	REC_WORD_VV	11.339	n/a	<>	-999	14	[0, 0, 0]	n/a	FR1	0	R1142N
1759.028	1.0	2880273	REC_WORD_VV	14.281	n/a	<>	-999	14	[0, 0, 0]	n/a	FR1	0	R1142N
1760.028	1.0	2881273	REC_WORD_VV	15.281	n/a	<>	-999	14	[0, 0, 0]	n/a	FR1	0	R1142N
1761.028	1.0	2882273	REC_WORD_VV	16.281	n/a	<>	-999	14	[0, 0, 0]	n/a	FR1	0	R1142N
1762.028	1.0	2883273	REC_WORD_VV	17.281	n/a	<>	-999	14	[0, 0, 0]	n/a	FR1	0	R1142N
1763.028	1.0	2884273	REC_WORD_VV	18.281	n/a	<>	-999	14	[0, 0, 0]	n/a	FR1	0	R1142N
1764.028	1.0	2885273	REC_WORD_VV	19.281	n/a	<>	-999	14	[0, 0, 0]	n/a	FR1	0	R1142N
1765.028	2.624	2886273	REC_WORD_VV	20.281	n/a	<>	-999	14	[0, 0, 0]	n/a	FR1	0	R1142N
1767.652	2.45	2888897	REC_WORD	22.905	n/a	GLASS	-999	14	[0, 0, 0]	n/a	FR1	0	R1142N
1770.102	2.933	2891347	REC_WORD	25.355	n/a	EYE	-999	14	[0, 0, 0]	n/a	FR1	0	R1142N
1773.035	1.725	2894280	REC_WORD_VV	28.288	n/a	<>	-999	14	[0, 0, 0]	n/a	FR1	0	R1142N
1774.76	10.243	2896005	REC_END	n/a	n/a	n/a	-999	14	[0, 0, 0]	n/a	FR1	0	R1142N
1785.003	10.0	2906247	COUNTDOWN_START	n/a	n/a	n/a	-999	15	[0, 0, 0]	n/a	FR1	0	R1142N
1785.004	10.427	2906248	TRIAL	n/a	n/a	n/a	-999	15	[0, 0, 0]	n/a	FR1	0	R1142N
1795.431	0.008	2916675	COUNTDOWN_END	n/a	n/a	n/a	-999	15	[0, 0, 0]	n/a	FR1	0	R1142N
1795.439	1.6	2916683	ORIENT	n/a	n/a	n/a	-999	15	[0, 0, 0]	n/a	FR1	0	R1142N
1798.022	1.6	2919266	WORD	n/a	wordpools/wordpool_EN.txt	STOOL	1	15	[0, 0, 0]	n/a	FR1	0	R1142N
1800.523	1.6	2921767	WORD	n/a	wordpools/wordpool_EN.txt	TEA	2	15	[0, 0, 0]	n/a	FR1	0	R1142N
1803.057	1.6	2924301	WORD	n/a	wordpools/wordpool_EN.txt	GEESE	3	15	[0, 0, 0]	n/a	FR1	0	R1142N
1805.607	1.6	2926850	WORD	n/a	wordpools/wordpool_EN.txt	SOCK	4	15	[0, 0, 0]	n/a	FR1	0	R1142N
1808.107	1.6	2929350	WORD	n/a	wordpools/wordpool_EN.txt	CLOWN	5	15	[0, 0, 0]	n/a	FR1	0	R1142N
1810.658	1.6	2931901	WORD	n/a	wordpools/wordpool_EN.txt	PIG	6	15	[0, 0, 0]	n/a	FR1	0	R1142N
1813.275	1.6	2934518	WORD	n/a	wordpools/wordpool_EN.txt	FLUTE	7	15	[0, 0, 0]	n/a	FR1	0	R1142N
1815.675	1.6	2936918	WORD	n/a	wordpools/wordpool_EN.txt	BARN	8	15	[0, 0, 0]	n/a	FR1	0	R1142N
1818.077	1.6	2939320	WORD	n/a	wordpools/wordpool_EN.txt	TRUCK	9	15	[0, 0, 0]	n/a	FR1	0	R1142N
1820.676	1.6	2941919	WORD	n/a	wordpools/wordpool_EN.txt	FAN	10	15	[0, 0, 0]	n/a	FR1	0	R1142N
1823.127	1.6	2944370	WORD	n/a	wordpools/wordpool_EN.txt	HAT	11	15	[0, 0, 0]	n/a	FR1	0	R1142N
1825.627	1.6	2946870	WORD	n/a	wordpools/wordpool_EN.txt	MUG	12	15	[0, 0, 0]	n/a	FR1	0	R1142N
1827.244	0.001	2948487	DISTRACT_START	n/a	n/a	n/a	-999	15	[0, 0, 0]	n/a	FR1	0	R1142N
1827.245	0.016	2948488	START	n/a	n/a	n/a	-999	15	[-999, -999, -999]	n/a	FR1	0	R1142N
1827.261	14.219	2948504	PROB	14.194	n/a	n/a	-999	15	[1, 7, 9]	17.0	FR1	0	R1142N
1841.48	4.6	2962722	PROB	4.576	n/a	n/a	-999	15	[4, 1, 6]	11.0	FR1	0	R1142N
1846.08	72.239	2967322	PROB	72.239	n/a	n/a	-999	15	[9, 7, 9]	25.0	FR1	0	R1142N
1918.319	0.007	3039558	STOP	n/a	n/a	n/a	-999	15	[-999, -999, -999]	n/a	FR1	0	R1142N
1918.326	1.15	3039565	DISTRACT_END	n/a	n/a	n/a	-999	15	[0, 0, 0]	n/a	FR1	0	R1142N
1919.476	3.495	3040715	REC_START	n/a	n/a	n/a	-999	15	[0, 0, 0]	n/a	FR1	0	R1142N
1922.971	1.0	3044210	REC_WORD_VV	3.495	n/a	<>	-999	15	[0, 0, 0]	n/a	FR1	0	R1142N
1923.971	1.18	3045210	REC_WORD_VV	4.495	n/a	<>	-999	15	[0, 0, 0]	n/a	FR1	0	R1142N
1925.151	0.716	3046390	REC_WORD	5.675	n/a	WALL	-999	15	[0, 0, 0]	n/a	FR1	0	R1142N
1925.867	1.954	3047106	REC_WORD	6.391	n/a	COOL	-999	15	[0, 0, 0]	n/a	FR1	0	R1142N
1927.821	1.0	3049060	REC_WORD_VV	8.345	n/a	<>	-999	15	[0, 0, 0]	n/a	FR1	0	R1142N
1928.821	2.451	3050060	REC_WORD	9.345	n/a	CLAY	-999	15	[0, 0, 0]	n/a	FR1	0	R1142N
1931.272	5.742	3052511	REC_WORD_VV	11.796	n/a	<>	-999	15	[0, 0, 0]	n/a	FR1	0	R1142N
1937.014	12.473	3058252	REC_WORD	17.538	n/a	STOOL	1	15	[0, 0, 0]	n/a	FR1	0	R1142N
1949.487	2.244	3070725	REC_END	n/a	n/a	n/a	-999	15	[0, 0, 0]	n/a	FR1	0	R1142N
1951.731	0.0	3072969	TRIAL	n/a	n/a	n/a	-999	16	[0, 0, 0]	n/a	FR1	0	R1142N
1951.731	10.0	3072969	COUNTDOWN_START	n/a	n/a	n/a	-999	16	[0, 0, 0]	n/a	FR1	0	R1142N
1962.159	0.007	3083397	COUNTDOWN_END	n/a	n/a	n/a	-999	16	[0, 0, 0]	n/a	FR1	0	R1142N
1962.166	1.6	3083404	ORIENT	n/a	n/a	n/a	-999	16	[0, 0, 0]	n/a	FR1	0	R1142N
1964.55	1.6	3085787	WORD	n/a	wordpools/wordpool_EN.txt	GRAPE	1	16	[0, 0, 0]	n/a	FR1	0	R1142N
1967.0	1.6	3088237	WORD	n/a	wordpools/wordpool_EN.txt	SOAP	2	16	[0, 0, 0]	n/a	FR1	0	R1142N
1969.484	1.6	3090721	WORD	n/a	wordpools/wordpool_EN.txt	FISH	3	16	[0, 0, 0]	n/a	FR1	0	R1142N
1971.918	1.6	3093155	WORD	n/a	wordpools/wordpool_EN.txt	SHRIMP	4	16	[0, 0, 0]	n/a	FR1	0	R1142N
1974.518	1.6	3095755	WORD	n/a	wordpools/wordpool_EN.txt	BEAN	5	16	[0, 0, 0]	n/a	FR1	0	R1142N
1977.053	1.6	3098290	WORD	n/a	wordpools/wordpool_EN.txt	SPRING	6	16	[0, 0, 0]	n/a	FR1	0	R1142N
1979.552	1.6	3100789	WORD	n/a	wordpools/wordpool_EN.txt	LIP	7	16	[0, 0, 0]	n/a	FR1	0	R1142N
1981.986	1.6	3103223	WORD	n/a	wordpools/wordpool_EN.txt	RIB	8	16	[0, 0, 0]	n/a	FR1	0	R1142N
1984.603	1.6	3105840	WORD	n/a	wordpools/wordpool_EN.txt	RICE	9	16	[0, 0, 0]	n/a	FR1	0	R1142N
1987.22	1.6	3108457	WORD	n/a	wordpools/wordpool_EN.txt	DIME	10	16	[0, 0, 0]	n/a	FR1	0	R1142N
1989.737	1.6	3110973	WORD	n/a	wordpools/wordpool_EN.txt	STEM	11	16	[0, 0, 0]	n/a	FR1	0	R1142N
1992.138	1.6	3113374	WORD	n/a	wordpools/wordpool_EN.txt	LEAF	12	16	[0, 0, 0]	n/a	FR1	0	R1142N
1993.755	0.0	3114991	DISTRACT_START	n/a	n/a	n/a	-999	16	[0, 0, 0]	n/a	FR1	0	R1142N
1993.755	0.016	3114991	START	n/a	n/a	n/a	-999	16	[-999, -999, -999]	n/a	FR1	0	R1142N
1993.771	7.068	3115007	PROB	7.036	n/a	n/a	-999	16	[6, 8, 1]	15.0	FR1	0	R1142N
2000.839	3.667	3122075	PROB	3.632	n/a	n/a	-999	16	[1, 2, 2]	5.0	FR1	0	R1142N
2004.506	61.661	3125742	PROB	61.661	n/a	n/a	-999	16	[8, 9, 7]	1.0	FR1	0	R1142N
2066.167	0.016	3187401	STOP	n/a	n/a	n/a	-999	16	[-999, -999, -999]	n/a	FR1	0	R1142N
2066.183	1.084	3187417	DISTRACT_END	n/a	n/a	n/a	-999	16	[0, 0, 0]	n/a	FR1	0	R1142N
2067.267	18.601	3188501	REC_START	n/a	n/a	n/a	-999	16	[0, 0, 0]	n/a	FR1	0	R1142N
2085.868	0.598	3207101	REC_WORD	18.601	n/a	RICE	9	16	[0, 0, 0]	n/a	FR1	0	R1142N
2086.466	2.783	3207699	REC_WORD	19.199	n/a	BEAN	5	16	[0, 0, 0]	n/a	FR1	0	R1142N
2089.249	8.032	3210482	REC_WORD_VV	21.982	n/a	<>	-999	16	[0, 0, 0]	n/a	FR1	0	R1142N
2097.281	8.609	3218513	REC_END	n/a	n/a	n/a	-999	16	[0, 0, 0]	n/a	FR1	0	R1142N
2105.89	0.0	3227122	TRIAL	n/a	n/a	n/a	-999	17	[0, 0, 0]	n/a	FR1	0	R1142N
2105.89	10.0	3227122	COUNTDOWN_START	n/a	n/a	n/a	-999	17	[0, 0, 0]	n/a	FR1	0	R1142N
2116.318	0.007	3237550	COUNTDOWN_END	n/a	n/a	n/a	-999	17	[0, 0, 0]	n/a	FR1	0	R1142N
2116.325	1.6	3237557	ORIENT	n/a	n/a	n/a	-999	17	[0, 0, 0]	n/a	FR1	0	R1142N
2118.942	1.6	3240174	WORD	n/a	wordpools/wordpool_EN.txt	CAVE	1	17	[0, 0, 0]	n/a	FR1	0	R1142N
2121.509	1.6	3242740	WORD	n/a	wordpools/wordpool_EN.txt	STAIR	2	17	[0, 0, 0]	n/a	FR1	0	R1142N
2124.077	1.6	3245308	WORD	n/a	wordpools/wordpool_EN.txt	SWAMP	3	17	[0, 0, 0]	n/a	FR1	0	R1142N
2126.51	1.6	3247741	WORD	n/a	wordpools/wordpool_EN.txt	WOOD	4	17	[0, 0, 0]	n/a	FR1	0	R1142N
2129.093	1.6	3250324	WORD	n/a	wordpools/wordpool_EN.txt	CRANE	5	17	[0, 0, 0]	n/a	FR1	0	R1142N
2131.577	1.6	3252808	WORD	n/a	wordpools/wordpool_EN.txt	RAKE	6	17	[0, 0, 0]	n/a	FR1	0	R1142N
2134.062	1.6	3255293	WORD	n/a	wordpools/wordpool_EN.txt	HAWK	7	17	[0, 0, 0]	n/a	FR1	0	R1142N
2136.561	1.6	3257792	WORD	n/a	wordpools/wordpool_EN.txt	PIPE	8	17	[0, 0, 0]	n/a	FR1	0	R1142N
2139.03	1.6	3260261	WORD	n/a	wordpools/wordpool_EN.txt	HORSE	9	17	[0, 0, 0]	n/a	FR1	0	R1142N
2141.512	1.6	3262743	WORD	n/a	wordpools/wordpool_EN.txt	TREE	10	17	[0, 0, 0]	n/a	FR1	0	R1142N
2144.129	1.6	3265360	WORD	n/a	wordpools/wordpool_EN.txt	DART	11	17	[0, 0, 0]	n/a	FR1	0	R1142N
2146.53	1.6	3267761	WORD	n/a	wordpools/wordpool_EN.txt	BOX	12	17	[0, 0, 0]	n/a	FR1	0	R1142N
2148.147	0.001	3269377	DISTRACT_START	n/a	n/a	n/a	-999	17	[0, 0, 0]	n/a	FR1	0	R1142N
2148.148	0.015	3269378	START	n/a	n/a	n/a	-999	17	[-999, -999, -999]	n/a	FR1	0	R1142N
2148.163	8.085	3269393	PROB	8.052	n/a	n/a	-999	17	[3, 3, 2]	8.0	FR1	0	R1142N
2156.248	7.385	3277478	PROB	7.359	n/a	n/a	-999	17	[5, 1, 6]	12.0	FR1	0	R1142N
2163.633	4.686	3284863	PROB	4.686	n/a	n/a	-999	17	[1, 6, 6]	7.0	FR1	0	R1142N
2168.319	0.014	3289549	STOP	n/a	n/a	n/a	-999	17	[-999, -999, -999]	n/a	FR1	0	R1142N
2168.333	1.168	3289563	DISTRACT_END	n/a	n/a	n/a	-999	17	[0, 0, 0]	n/a	FR1	0	R1142N
2169.501	7.578	3290731	REC_START	n/a	n/a	n/a	-999	17	[0, 0, 0]	n/a	FR1	0	R1142N
2177.079	0.646	3298308	REC_WORD	7.578	n/a	RICE	-999	17	[0, 0, 0]	n/a	FR1	0	R1142N
2177.725	1.931	3298954	REC_WORD	8.224	n/a	BEAN	-999	17	[0, 0, 0]	n/a	FR1	0	R1142N
2179.656	1.143	3300885	REC_WORD	10.155	n/a	CROWN	-999	17	[0, 0, 0]	n/a	FR1	0	R1142N
2180.799	1.168	3302028	REC_WORD	11.298	n/a	HORSE	9	17	[0, 0, 0]	n/a	FR1	0	R1142N
2181.967	1.704	3303196	REC_WORD	12.466	n/a	HEART	-999	17	[0, 0, 0]	n/a	FR1	0	R1142N
2183.671	2.306	3304900	REC_WORD	14.17	n/a	HOUSE	-999	17	[0, 0, 0]	n/a	FR1	0	R1142N
2185.977	6.995	3307206	REC_WORD_VV	16.476	n/a	<>	-999	17	[0, 0, 0]	n/a	FR1	0	R1142N
2192.972	6.539	3314201	REC_WORD	23.471	n/a	TART	-999	17	[0, 0, 0]	n/a	FR1	0	R1142N
2199.511	3.378	3320740	REC_END	n/a	n/a	n/a	-999	17	[0, 0, 0]	n/a	FR1	0	R1142N
2202.889	0.0	3324117	TRIAL	n/a	n/a	n/a	-999	18	[0, 0, 0]	n/a	FR1	0	R1142N
2202.889	10.0	3324117	COUNTDOWN_START	n/a	n/a	n/a	-999	18	[0, 0, 0]	n/a	FR1	0	R1142N
2213.317	0.007	3334545	COUNTDOWN_END	n/a	n/a	n/a	-999	18	[0, 0, 0]	n/a	FR1	0	R1142N
2213.324	1.6	3334552	ORIENT	n/a	n/a	n/a	-999	18	[0, 0, 0]	n/a	FR1	0	R1142N
2215.891	1.6	3337119	WORD	n/a	wordpools/wordpool_EN.txt	CORD	1	18	[0, 0, 0]	n/a	FR1	0	R1142N
2218.458	1.6	3339686	WORD	n/a	wordpools/wordpool_EN.txt	WAVE	2	18	[0, 0, 0]	n/a	FR1	0	R1142N
2221.025	1.6	3342253	WORD	n/a	wordpools/wordpool_EN.txt	JUICE	3	18	[0, 0, 0]	n/a	FR1	0	R1142N
2223.609	1.6	3344837	WORD	n/a	wordpools/wordpool_EN.txt	SHEEP	4	18	[0, 0, 0]	n/a	FR1	0	R1142N
2226.061	1.6	3347288	WORD	n/a	wordpools/wordpool_EN.txt	MAP	5	18	[0, 0, 0]	n/a	FR1	0	R1142N
2228.526	1.6	3349753	WORD	n/a	wordpools/wordpool_EN.txt	PLANE	6	18	[0, 0, 0]	n/a	FR1	0	R1142N
2230.91	1.6	3352137	WORD	n/a	wordpools/wordpool_EN.txt	CONE	7	18	[0, 0, 0]	n/a	FR1	0	R1142N
2233.477	1.6	3354704	WORD	n/a	wordpools/wordpool_EN.txt	SHIP	8	18	[0, 0, 0]	n/a	FR1	0	R1142N
2236.029	1.6	3357256	WORD	n/a	wordpools/wordpool_EN.txt	BOMB	9	18	[0, 0, 0]	n/a	FR1	0	R1142N
2238.645	1.6	3359872	WORD	n/a	wordpools/wordpool_EN.txt	POLE	10	18	[0, 0, 0]	n/a	FR1	0	R1142N
2241.179	1.6	3362406	WORD	n/a	wordpools/wordpool_EN.txt	ELF	11	18	[0, 0, 0]	n/a	FR1	0	R1142N
2243.779	1.6	3365006	WORD	n/a	wordpools/wordpool_EN.txt	MOON	12	18	[0, 0, 0]	n/a	FR1	0	R1142N
2245.396	0.001	3366623	DISTRACT_START	n/a	n/a	n/a	-999	18	[0, 0, 0]	n/a	FR1	0	R1142N
2245.397	0.016	3366624	START	n/a	n/a	n/a	-999	18	[-999, -999, -999]	n/a	FR1	0	R1142N
2245.413	15.62	3366640	PROB	15.594	n/a	n/a	-999	18	[9, 7, 8]	24.0	FR1	0	R1142N
2261.033	28.646	3382259	PROB	28.646	n/a	n/a	-999	18	[7, 1, 5]	13.0	FR1	0	R1142N
2289.679	0.008	3410904	STOP	n/a	n/a	n/a	-999	18	[-999, -999, -999]	n/a	FR1	0	R1142N
2289.687	1.117	3410912	DISTRACT_END	n/a	n/a	n/a	-999	18	[0, 0, 0]	n/a	FR1	0	R1142N
2290.804	15.738	3412029	REC_START	n/a	n/a	n/a	-999	18	[0, 0, 0]	n/a	FR1	0	R1142N
2306.542	1.164	3427766	REC_WORD	15.738	n/a	CROWN	-999	18	[0, 0, 0]	n/a	FR1	0	R1142N
2307.706	0.786	3428930	REC_WORD	16.902	n/a	RICE	-999	18	[0, 0, 0]	n/a	FR1	0	R1142N
2308.492	1.141	3429716	REC_WORD	17.688	n/a	RAIN	-999	18	[0, 0, 0]	n/a	FR1	0	R1142N
2309.633	0.972	3430857	REC_WORD	18.829	n/a	POLE	10	18	[0, 0, 0]	n/a	FR1	0	R1142N
2310.605	1.803	3431829	REC_WORD	19.801	n/a	NORTH	-999	18	[0, 0, 0]	n/a	FR1	0	R1142N
2312.408	2.819	3433632	REC_WORD	21.604	n/a	SOUTH	-999	18	[0, 0, 0]	n/a	FR1	0	R1142N
2315.227	2.449	3436451	REC_WORD_VV	24.423	n/a	<>	-999	18	[0, 0, 0]	n/a	FR1	0	R1142N
2317.676	1.848	3438900	REC_WORD	26.872	n/a	TART	-999	18	[0, 0, 0]	n/a	FR1	0	R1142N
2319.524	1.29	3440748	REC_WORD	28.72	n/a	HOUSE	-999	18	[0, 0, 0]	n/a	FR1	0	R1142N
2320.814	2.962	3442038	REC_END	n/a	n/a	n/a	-999	18	[0, 0, 0]	n/a	FR1	0	R1142N
2323.776	0.0	3445000	TRIAL	n/a	n/a	n/a	-999	19	[0, 0, 0]	n/a	FR1	0	R1142N
2323.776	10.0	3445000	COUNTDOWN_START	n/a	n/a	n/a	-999	19	[0, 0, 0]	n/a	FR1	0	R1142N
2334.204	0.007	3455427	COUNTDOWN_END	n/a	n/a	n/a	-999	19	[0, 0, 0]	n/a	FR1	0	R1142N
2334.211	1.6	3455434	ORIENT	n/a	n/a	n/a	-999	19	[0, 0, 0]	n/a	FR1	0	R1142N
2336.644	1.6	3457867	WORD	n/a	wordpools/wordpool_EN.txt	RAT	1	19	[0, 0, 0]	n/a	FR1	0	R1142N
2339.228	1.6	3460451	WORD	n/a	wordpools/wordpool_EN.txt	BROOM	2	19	[0, 0, 0]	n/a	FR1	0	R1142N
2341.845	1.6	3463068	WORD	n/a	wordpools/wordpool_EN.txt	OWL	3	19	[0, 0, 0]	n/a	FR1	0	R1142N
2344.312	1.6	3465535	WORD	n/a	wordpools/wordpool_EN.txt	HEN	4	19	[0, 0, 0]	n/a	FR1	0	R1142N
2346.946	1.6	3468169	WORD	n/a	wordpools/wordpool_EN.txt	ANT	5	19	[0, 0, 0]	n/a	FR1	0	R1142N
2349.413	1.6	3470636	WORD	n/a	wordpools/wordpool_EN.txt	ROPE	6	19	[0, 0, 0]	n/a	FR1	0	R1142N
2351.997	1.6	3473220	WORD	n/a	wordpools/wordpool_EN.txt	STRING	7	19	[0, 0, 0]	n/a	FR1	0	R1142N
2354.614	1.6	3475837	WORD	n/a	wordpools/wordpool_EN.txt	KITE	8	19	[0, 0, 0]	n/a	FR1	0	R1142N
2357.115	1.6	3478338	WORD	n/a	wordpools/wordpool_EN.txt	FOX	9	19	[0, 0, 0]	n/a	FR1	0	R1142N
2359.598	1.6	3480820	WORD	n/a	wordpools/wordpool_EN.txt	CHIN	10	19	[0, 0, 0]	n/a	FR1	0	R1142N
2362.132	1.6	3483354	WORD	n/a	wordpools/wordpool_EN.txt	ROOF	11	19	[0, 0, 0]	n/a	FR1	0	R1142N
2364.649	1.6	3485871	WORD	n/a	wordpools/wordpool_EN.txt	THUMB	12	19	[0, 0, 0]	n/a	FR1	0	R1142N
2366.266	0.001	3487488	DISTRACT_START	n/a	n/a	n/a	-999	19	[0, 0, 0]	n/a	FR1	0	R1142N
2366.267	0.016	3487489	START	n/a	n/a	n/a	-999	19	[-999, -999, -999]	n/a	FR1	0	R1142N
2366.283	23.58	3487505	PROB	23.58	n/a	n/a	-999	19	[3, 1, 8]	12.0	FR1	0	R1142N
2389.863	0.007	3511084	STOP	n/a	n/a	n/a	-999	19	[-999, -999, -999]	n/a	FR1	0	R1142N
2389.87	1.186	3511091	DISTRACT_END	n/a	n/a	n/a	-999	19	[0, 0, 0]	n/a	FR1	0	R1142N
2391.056	9.456	3512277	REC_START	n/a	n/a	n/a	-999	19	[0, 0, 0]	n/a	FR1	0	R1142N
2400.512	0.668	3521733	REC_WORD	9.456	n/a	CHICKEN	-999	19	[0, 0, 0]	n/a	FR1	0	R1142N
2401.18	1.162	3522401	REC_WORD	10.124	n/a	HEN	4	19	[0, 0, 0]	n/a	FR1	0	R1142N
2402.342	1.635	3523563	REC_WORD	11.286	n/a	BOX	-999	19	[0, 0, 0]	n/a	FR1	0	R1142N
2403.977	0.76	3525198	REC_WORD	12.921	n/a	BROOM	2	19	[0, 0, 0]	n/a	FR1	0	R1142N
2404.737	2.235	3525958	REC_WORD	13.681	n/a	RAT	1	19	[0, 0, 0]	n/a	FR1	0	R1142N
2406.972	2.807	3528193	REC_WORD_VV	15.916	n/a	<>	-999	19	[0, 0, 0]	n/a	FR1	0	R1142N
2409.779	6.834	3531000	REC_WORD	18.723	n/a	HOUSE	-999	19	[0, 0, 0]	n/a	FR1	0	R1142N
2416.613	4.452	3537833	REC_WORD_VV	25.557	n/a	<>	-999	19	[0, 0, 0]	n/a	FR1	0	R1142N
2421.065	17.713	3542285	REC_END	n/a	n/a	n/a	-999	19	[0, 0, 0]	n/a	FR1	0	R1142N
2438.778	10.0	3559997	COUNTDOWN_START	n/a	n/a	n/a	-999	20	[0, 0, 0]	n/a	FR1	0	R1142N
2438.778	10.428	3559997	TRIAL	n/a	n/a	n/a	-999	20	[0, 0, 0]	n/a	FR1	0	R1142N
2449.206	0.007	3570425	COUNTDOWN_END	n/a	n/a	n/a	-999	20	[0, 0, 0]	n/a	FR1	0	R1142N
2449.213	1.6	3570432	ORIENT	n/a	n/a	n/a	-999	20	[0, 0, 0]	n/a	FR1	0	R1142N
2451.647	1.6	3572866	WORD	n/a	wordpools/wordpool_EN.txt	INK	1	20	[0, 0, 0]	n/a	FR1	0	R1142N
2454.13	1.6	3575349	WORD	n/a	wordpools/wordpool_EN.txt	BREAD	2	20	[0, 0, 0]	n/a	FR1	0	R1142N
2456.748	1.6	3577967	WORD	n/a	wordpools/wordpool_EN.txt	PEACH	3	20	[0, 0, 0]	n/a	FR1	0	R1142N
2459.131	1.6	3580350	WORD	n/a	wordpools/wordpool_EN.txt	CART	4	20	[0, 0, 0]	n/a	FR1	0	R1142N
2461.582	1.6	3582801	WORD	n/a	wordpools/wordpool_EN.txt	SIGN	5	20	[0, 0, 0]	n/a	FR1	0	R1142N
2464.015	1.6	3585233	WORD	n/a	wordpools/wordpool_EN.txt	LAWN	6	20	[0, 0, 0]	n/a	FR1	0	R1142N
2466.516	1.6	3587734	WORD	n/a	wordpools/wordpool_EN.txt	WHALE	7	20	[0, 0, 0]	n/a	FR1	0	R1142N
2468.966	1.6	3590184	WORD	n/a	wordpools/wordpool_EN.txt	STREET	8	20	[0, 0, 0]	n/a	FR1	0	R1142N
2471.4	1.6	3592618	WORD	n/a	wordpools/wordpool_EN.txt	STOVE	9	20	[0, 0, 0]	n/a	FR1	0	R1142N
2473.967	1.6	3595185	WORD	n/a	wordpools/wordpool_EN.txt	GOLD	10	20	[0, 0, 0]	n/a	FR1	0	R1142N
2476.501	1.6	3597719	WORD	n/a	wordpools/wordpool_EN.txt	STONE	11	20	[0, 0, 0]	n/a	FR1	0	R1142N
2479.135	1.6	3600353	WORD	n/a	wordpools/wordpool_EN.txt	COIN	12	20	[0, 0, 0]	n/a	FR1	0	R1142N
2480.751	0.001	3601969	DISTRACT_START	n/a	n/a	n/a	-999	20	[0, 0, 0]	n/a	FR1	0	R1142N
2480.752	0.016	3601970	START	n/a	n/a	n/a	-999	20	[-999, -999, -999]	n/a	FR1	0	R1142N
2480.768	11.685	3601986	PROB	11.663	n/a	n/a	-999	20	[9, 5, 5]	19.0	FR1	0	R1142N
2492.453	9.386	3613670	PROB	9.386	n/a	n/a	-999	20	[9, 2, 8]	19.0	FR1	0	R1142N
2501.839	0.016	3623056	STOP	n/a	n/a	n/a	-999	20	[-999, -999, -999]	n/a	FR1	0	R1142N
2501.855	1.167	3623072	DISTRACT_END	n/a	n/a	n/a	-999	20	[0, 0, 0]	n/a	FR1	0	R1142N
2503.022	2.483	3624239	REC_START	n/a	n/a	n/a	-999	20	[0, 0, 0]	n/a	FR1	0	R1142N
2505.505	2.228	3626722	REC_WORD	2.483	n/a	RAT	-999	20	[0, 0, 0]	n/a	FR1	0	R1142N
2507.733	3.27	3628950	REC_WORD	4.711	n/a	HOUSE	-999	20	[0, 0, 0]	n/a	FR1	0	R1142N
2511.003	3.415	3632220	REC_WORD_VV	7.981	n/a	<>	-999	20	[0, 0, 0]	n/a	FR1	0	R1142N
2514.418	1.13	3635635	REC_WORD	11.396	n/a	CROWN	-999	20	[0, 0, 0]	n/a	FR1	0	R1142N
2515.548	5.169	3636765	REC_WORD	12.526	n/a	STEAM	-999	20	[0, 0, 0]	n/a	FR1	0	R1142N
2520.717	1.778	3641933	REC_WORD	17.695	n/a	KNEES	-999	20	[0, 0, 0]	n/a	FR1	0	R1142N
2522.495	0.527	3643711	REC_WORD_VV	19.473	n/a	<>	-999	20	[0, 0, 0]	n/a	FR1	0	R1142N
2523.022	10.012	3644238	REC_WORD	20.0	n/a	GUT	-999	20	[0, 0, 0]	n/a	FR1	0	R1142N
2533.034	2.527	3654250	REC_END	n/a	n/a	n/a	-999	20	[0, 0, 0]	n/a	FR1	0	R1142N
2535.561	0.0	3656777	TRIAL	n/a	n/a	n/a	-999	21	[0, 0, 0]	n/a	FR1	0	R1142N
2535.561	10.0	3656777	COUNTDOWN_START	n/a	n/a	n/a	-999	21	[0, 0, 0]	n/a	FR1	0	R1142N
2545.989	0.007	3667204	COUNTDOWN_END	n/a	n/a	n/a	-999	21	[0, 0, 0]	n/a	FR1	0	R1142N
2545.996	1.6	3667211	ORIENT	n/a	n/a	n/a	-999	21	[0, 0, 0]	n/a	FR1	0	R1142N
2548.513	1.6	3669728	WORD	n/a	wordpools/wordpool_EN.txt	DESK	1	21	[0, 0, 0]	n/a	FR1	0	R1142N
2551.13	1.6	3672345	WORD	n/a	wordpools/wordpool_EN.txt	PEARL	2	21	[0, 0, 0]	n/a	FR1	0	R1142N
2553.58	1.6	3674795	WORD	n/a	wordpools/wordpool_EN.txt	DOG	3	21	[0, 0, 0]	n/a	FR1	0	R1142N
2556.114	1.6	3677329	WORD	n/a	wordpools/wordpool_EN.txt	KEY	4	21	[0, 0, 0]	n/a	FR1	0	R1142N
2558.681	1.6	3679896	WORD	n/a	wordpools/wordpool_EN.txt	JUDGE	5	21	[0, 0, 0]	n/a	FR1	0	R1142N
2561.115	1.6	3682330	WORD	n/a	wordpools/wordpool_EN.txt	MAZE	6	21	[0, 0, 0]	n/a	FR1	0	R1142N
2563.682	1.6	3684897	WORD	n/a	wordpools/wordpool_EN.txt	SHARK	7	21	[0, 0, 0]	n/a	FR1	0	R1142N
2566.149	1.6	3687364	WORD	n/a	wordpools/wordpool_EN.txt	RUG	8	21	[0, 0, 0]	n/a	FR1	0	R1142N
2568.699	1.6	3689914	WORD	n/a	wordpools/wordpool_EN.txt	BADGE	9	21	[0, 0, 0]	n/a	FR1	0	R1142N
2571.2	1.6	3692414	WORD	n/a	wordpools/wordpool_EN.txt	COUCH	10	21	[0, 0, 0]	n/a	FR1	0	R1142N
2573.733	1.6	3694947	WORD	n/a	wordpools/wordpool_EN.txt	SUN	11	21	[0, 0, 0]	n/a	FR1	0	R1142N
2576.267	1.6	3697481	WORD	n/a	wordpools/wordpool_EN.txt	MAIL	12	21	[0, 0, 0]	n/a	FR1	0	R1142N
2577.884	0.001	3699098	DISTRACT_START	n/a	n/a	n/a	-999	21	[0, 0, 0]	n/a	FR1	0	R1142N
2577.885	0.016	3699099	START	n/a	n/a	n/a	-999	21	[-999, -999, -999]	n/a	FR1	0	R1142N
2577.901	8.585	3699115	PROB	8.554	n/a	n/a	-999	21	[5, 1, 9]	15.0	FR1	0	R1142N
2586.486	6.017	3707700	PROB	5.993	n/a	n/a	-999	21	[1, 2, 4]	7.0	FR1	0	R1142N
2592.503	22.264	3713717	PROB	22.264	n/a	n/a	-999	21	[5, 9, 3]	17.0	FR1	0	R1142N
2614.767	0.007	3735980	STOP	n/a	n/a	n/a	-999	21	[-999, -999, -999]	n/a	FR1	0	R1142N
2614.774	1.217	3735987	DISTRACT_END	n/a	n/a	n/a	-999	21	[0, 0, 0]	n/a	FR1	0	R1142N
2615.991	6.528	3737204	REC_START	n/a	n/a	n/a	-999	21	[0, 0, 0]	n/a	FR1	0	R1142N
2622.519	0.843	3743731	REC_WORD	6.528	n/a	COUCH	10	21	[0, 0, 0]	n/a	FR1	0	R1142N
2623.362	2.373	3744574	REC_WORD	7.371	n/a	BUS	-999	21	[0, 0, 0]	n/a	FR1	0	R1142N
2625.735	1.488	3746947	REC_WORD_VV	9.744	n/a	<>	-999	21	[0, 0, 0]	n/a	FR1	0	R1142N
2627.223	2.046	3748435	REC_WORD	11.232	n/a	RAT	-999	21	[0, 0, 0]	n/a	FR1	0	R1142N
2629.269	1.381	3750481	REC_WORD_VV	13.278	n/a	<>	-999	21	[0, 0, 0]	n/a	FR1	0	R1142N
2630.65	3.11	3751862	REC_WORD	14.659	n/a	ROPE	-999	21	[0, 0, 0]	n/a	FR1	0	R1142N
2633.76	4.697	3754972	REC_WORD_VV	17.769	n/a	<>	-999	21	[0, 0, 0]	n/a	FR1	0	R1142N
2638.457	7.548	3759669	REC_WORD_VV	22.466	n/a	<>	-999	21	[0, 0, 0]	n/a	FR1	0	R1142N
2646.005	1.724	3767217	REC_END	n/a	n/a	n/a	-999	21	[0, 0, 0]	n/a	FR1	0	R1142N
2647.729	0.0	3768941	TRIAL	n/a	n/a	n/a	-999	22	[0, 0, 0]	n/a	FR1	0	R1142N
2647.729	10.0	3768941	COUNTDOWN_START	n/a	n/a	n/a	-999	22	[0, 0, 0]	n/a	FR1	0	R1142N
2658.157	0.007	3779368	COUNTDOWN_END	n/a	n/a	n/a	-999	22	[0, 0, 0]	n/a	FR1	0	R1142N
2658.164	1.6	3779375	ORIENT	n/a	n/a	n/a	-999	22	[0, 0, 0]	n/a	FR1	0	R1142N
2660.698	1.6	3781909	WORD	n/a	wordpools/wordpool_EN.txt	SLEEVE	1	22	[0, 0, 0]	n/a	FR1	0	R1142N
2663.215	1.6	3784426	WORD	n/a	wordpools/wordpool_EN.txt	TIE	2	22	[0, 0, 0]	n/a	FR1	0	R1142N
2665.782	1.6	3786993	WORD	n/a	wordpools/wordpool_EN.txt	HOSE	3	22	[0, 0, 0]	n/a	FR1	0	R1142N
2668.316	1.6	3789527	WORD	n/a	wordpools/wordpool_EN.txt	CANE	4	22	[0, 0, 0]	n/a	FR1	0	R1142N
2670.766	1.6	3791977	WORD	n/a	wordpools/wordpool_EN.txt	TRAY	5	22	[0, 0, 0]	n/a	FR1	0	R1142N
2673.267	1.6	3794478	WORD	n/a	wordpools/wordpool_EN.txt	FARM	6	22	[0, 0, 0]	n/a	FR1	0	R1142N
2675.784	1.6	3796994	WORD	n/a	wordpools/wordpool_EN.txt	WEED	7	22	[0, 0, 0]	n/a	FR1	0	R1142N
2678.201	1.6	3799411	WORD	n/a	wordpools/wordpool_EN.txt	CAKE	8	22	[0, 0, 0]	n/a	FR1	0	R1142N
2680.601	1.6	3801811	WORD	n/a	wordpools/wordpool_EN.txt	STICK	9	22	[0, 0, 0]	n/a	FR1	0	R1142N
2683.002	1.6	3804212	WORD	n/a	wordpools/wordpool_EN.txt	SEAL	10	22	[0, 0, 0]	n/a	FR1	0	R1142N
2685.502	1.6	3806712	WORD	n/a	wordpools/wordpool_EN.txt	LAMB	11	22	[0, 0, 0]	n/a	FR1	0	R1142N
2687.902	1.6	3809112	WORD	n/a	wordpools/wordpool_EN.txt	POOL	12	22	[0, 0, 0]	n/a	FR1	0	R1142N
2689.519	0.001	3810729	DISTRACT_START	n/a	n/a	n/a	-999	22	[0, 0, 0]	n/a	FR1	0	R1142N
2689.52	0.016	3810730	START	n/a	n/a	n/a	-999	22	[-999, -999, -999]	n/a	FR1	0	R1142N
2689.536	14.436	3810746	PROB	14.407	n/a	n/a	-999	22	[6, 3, 5]	14.0	FR1	0	R1142N
2703.972	8.483	3825181	PROB	8.483	n/a	n/a	-999	22	[4, 3, 3]	10.0	FR1	0	R1142N
2712.455	0.018	3833664	STOP	n/a	n/a	n/a	-999	22	[-999, -999, -999]	n/a	FR1	0	R1142N
2712.473	1.051	3833682	DISTRACT_END	n/a	n/a	n/a	-999	22	[0, 0, 0]	n/a	FR1	0	R1142N
2713.524	3.334	3834733	REC_START	n/a	n/a	n/a	-999	22	[0, 0, 0]	n/a	FR1	0	R1142N
2716.858	1.698	3838067	REC_WORD	3.334	n/a	HOSE	3	22	[0, 0, 0]	n/a	FR1	0	R1142N
2718.556	11.436	3839765	REC_WORD	5.032	n/a	RAT	-999	22	[0, 0, 0]	n/a	FR1	0	R1142N
2729.992	2.901	3851200	REC_WORD	16.468	n/a	HOUSE	-999	22	[0, 0, 0]	n/a	FR1	0	R1142N
2732.893	5.213	3854101	REC_WORD_VV	19.369	n/a	<>	-999	22	[0, 0, 0]	n/a	FR1	0	R1142N
2738.106	5.428	3859314	REC_WORD	24.582	n/a	MICE	-999	22	[0, 0, 0]	n/a	FR1	0	R1142N
2743.534	1.495	3864742	REC_END	n/a	n/a	n/a	-999	22	[0, 0, 0]	n/a	FR1	0	R1142N
2745.029	10.0	3866237	COUNTDOWN_START	n/a	n/a	n/a	-999	23	[0, 0, 0]	n/a	FR1	0	R1142N
2745.03	10.427	3866238	TRIAL	n/a	n/a	n/a	-999	23	[0, 0, 0]	n/a	FR1	0	R1142N
2755.457	0.006	3876664	COUNTDOWN_END	n/a	n/a	n/a	-999	23	[0, 0, 0]	n/a	FR1	0	R1142N
2755.463	1.6	3876670	ORIENT	n/a	n/a	n/a	-999	23	[0, 0, 0]	n/a	FR1	0	R1142N
2757.83	1.6	3879037	WORD	n/a	wordpools/wordpool_EN.txt	BAG	1	23	[0, 0, 0]	n/a	FR1	0	R1142N
2760.264	1.6	3881471	WORD	n/a	wordpools/wordpool_EN.txt	GOAT	2	23	[0, 0, 0]	n/a	FR1	0	R1142N
2762.665	1.6	3883872	WORD	n/a	wordpools/wordpool_EN.txt	YARD	3	23	[0, 0, 0]	n/a	FR1	0	R1142N
2765.148	1.6	3886355	WORD	n/a	wordpools/wordpool_EN.txt	SNAIL	4	23	[0, 0, 0]	n/a	FR1	0	R1142N
2767.582	1.6	3888789	WORD	n/a	wordpools/wordpool_EN.txt	SHOE	5	23	[0, 0, 0]	n/a	FR1	0	R1142N
2769.966	1.6	3891173	WORD	n/a	wordpools/wordpool_EN.txt	FLEA	6	23	[0, 0, 0]	n/a	FR1	0	R1142N
2772.55	1.6	3893757	WORD	n/a	wordpools/wordpool_EN.txt	DRUM	7	23	[0, 0, 0]	n/a	FR1	0	R1142N
2775.0	1.6	3896207	WORD	n/a	wordpools/wordpool_EN.txt	GLASS	8	23	[0, 0, 0]	n/a	FR1	0	R1142N
2777.417	1.6	3898624	WORD	n/a	wordpools/wordpool_EN.txt	NOSE	9	23	[0, 0, 0]	n/a	FR1	0	R1142N
2779.984	1.6	3901190	WORD	n/a	wordpools/wordpool_EN.txt	WEB	10	23	[0, 0, 0]	n/a	FR1	0	R1142N
2782.485	1.6	3903691	WORD	n/a	wordpools/wordpool_EN.txt	WORLD	11	23	[0, 0, 0]	n/a	FR1	0	R1142N
2785.085	1.6	3906291	WORD	n/a	wordpools/wordpool_EN.txt	PEN	12	23	[0, 0, 0]	n/a	FR1	0	R1142N
2786.702	0.001	3907908	DISTRACT_START	n/a	n/a	n/a	-999	23	[0, 0, 0]	n/a	FR1	0	R1142N
2786.703	0.016	3907909	START	n/a	n/a	n/a	-999	23	[-999, -999, -999]	n/a	FR1	0	R1142N
2786.719	26.337	3907925	PROB	26.337	n/a	n/a	-999	23	[4, 8, 9]	24.0	FR1	0	R1142N
2813.056	0.018	3934261	STOP	n/a	n/a	n/a	-999	23	[-999, -999, -999]	n/a	FR1	0	R1142N
2813.074	1.067	3934279	DISTRACT_END	n/a	n/a	n/a	-999	23	[0, 0, 0]	n/a	FR1	0	R1142N
2814.141	23.527	3935346	REC_START	n/a	n/a	n/a	-999	23	[0, 0, 0]	n/a	FR1	0	R1142N
2837.668	0.531	3958872	REC_WORD	23.527	n/a	SNAIL	4	23	[0, 0, 0]	n/a	FR1	0	R1142N
2838.199	1.934	3959403	REC_WORD	24.058	n/a	FOX	-999	23	[0, 0, 0]	n/a	FR1	0	R1142N
2840.133	0.682	3961337	REC_WORD	25.992	n/a	ROOM	-999	23	[0, 0, 0]	n/a	FR1	0	R1142N
2840.815	1.965	3962019	REC_WORD	26.674	n/a	ROPE	-999	23	[0, 0, 0]	n/a	FR1	0	R1142N
2842.78	0.254	3963984	REC_WORD_VV	28.639	n/a	<>	-999	23	[0, 0, 0]	n/a	FR1	0	R1142N
2843.034	1.117	3964238	REC_WORD	28.893	n/a	SNAIL	4	23	[0, 0, 0]	n/a	FR1	0	R1142N
2844.151	21.664	3965355	REC_END	n/a	n/a	n/a	-999	23	[0, 0, 0]	n/a	FR1	0	R1142N
2865.815	0.0	3987018	TRIAL	n/a	n/a	n/a	-999	24	[0, 0, 0]	n/a	FR1	0	R1142N
2865.815	10.0	3987018	COUNTDOWN_START	n/a	n/a	n/a	-999	24	[0, 0, 0]	n/a	FR1	0	R1142N
2876.243	0.007	3997446	COUNTDOWN_END	n/a	n/a	n/a	-999	24	[0, 0, 0]	n/a	FR1	0	R1142N
2876.25	1.6	3997453	ORIENT	n/a	n/a	n/a	-999	24	[0, 0, 0]	n/a	FR1	0	R1142N
2878.734	1.6	3999937	WORD	n/a	wordpools/wordpool_EN.txt	TOAD	1	24	[0, 0, 0]	n/a	FR1	0	R1142N
2881.318	1.6	4002521	WORD	n/a	wordpools/wordpool_EN.txt	MUD	2	24	[0, 0, 0]	n/a	FR1	0	R1142N
2883.785	1.6	4004988	WORD	n/a	wordpools/wordpool_EN.txt	PLANT	3	24	[0, 0, 0]	n/a	FR1	0	R1142N
2886.202	1.6	4007404	WORD	n/a	wordpools/wordpool_EN.txt	FUDGE	4	24	[0, 0, 0]	n/a	FR1	0	R1142N
2888.785	1.6	4009987	WORD	n/a	wordpools/wordpool_EN.txt	TANK	5	24	[0, 0, 0]	n/a	FR1	0	R1142N
2891.186	1.6	4012388	WORD	n/a	wordpools/wordpool_EN.txt	BOARD	6	24	[0, 0, 0]	n/a	FR1	0	R1142N
2893.803	1.6	4015005	WORD	n/a	wordpools/wordpool_EN.txt	SAIL	7	24	[0, 0, 0]	n/a	FR1	0	R1142N
2896.303	1.6	4017505	WORD	n/a	wordpools/wordpool_EN.txt	SPONGE	8	24	[0, 0, 0]	n/a	FR1	0	R1142N
2898.77	1.6	4019972	WORD	n/a	wordpools/wordpool_EN.txt	JET	9	24	[0, 0, 0]	n/a	FR1	0	R1142N
2901.354	1.6	4022556	WORD	n/a	wordpools/wordpool_EN.txt	SPARK	10	24	[0, 0, 0]	n/a	FR1	0	R1142N
2903.838	1.6	4025040	WORD	n/a	wordpools/wordpool_EN.txt	SEA	11	24	[0, 0, 0]	n/a	FR1	0	R1142N
2906.255	1.6	4027457	WORD	n/a	wordpools/wordpool_EN.txt	STEAM	12	24	[0, 0, 0]	n/a	FR1	0	R1142N
2907.872	0.001	4029074	DISTRACT_START	n/a	n/a	n/a	-999	24	[0, 0, 0]	n/a	FR1	0	R1142N
2907.873	0.016	4029075	START	n/a	n/a	n/a	-999	24	[-999, -999, -999]	n/a	FR1	0	R1142N
2907.889	47.246	4029091	PROB	47.246	n/a	n/a	-999	24	[6, 1, 6]	13.0	FR1	0	R1142N
2955.135	0.011	4076335	STOP	n/a	n/a	n/a	-999	24	[-999, -999, -999]	n/a	FR1	0	R1142N
2955.146	1.135	4076346	DISTRACT_END	n/a	n/a	n/a	-999	24	[0, 0, 0]	n/a	FR1	0	R1142N
2956.281	6.065	4077481	REC_START	n/a	n/a	n/a	-999	24	[0, 0, 0]	n/a	FR1	0	R1142N
2962.346	1.0	4083546	REC_WORD_VV	6.065	n/a	<>	-999	24	[0, 0, 0]	n/a	FR1	0	R1142N
2963.346	2.987	4084546	REC_WORD_VV	7.065	n/a	<>	-999	24	[0, 0, 0]	n/a	FR1	0	R1142N
2966.333	1.0	4087532	REC_WORD_VV	10.052	n/a	<>	-999	24	[0, 0, 0]	n/a	FR1	0	R1142N
2967.333	1.0	4088532	REC_WORD_VV	11.052	n/a	<>	-999	24	[0, 0, 0]	n/a	FR1	0	R1142N
2968.333	2.674	4089532	REC_WORD_VV	12.052	n/a	<>	-999	24	[0, 0, 0]	n/a	FR1	0	R1142N
2971.007	0.701	4092206	REC_WORD	14.726	n/a	HOSE	-999	24	[0, 0, 0]	n/a	FR1	0	R1142N
2971.708	1.756	4092907	REC_WORD	15.427	n/a	SNAIL	-999	24	[0, 0, 0]	n/a	FR1	0	R1142N
2973.464	0.562	4094663	REC_WORD_VV	17.183	n/a	<>	-999	24	[0, 0, 0]	n/a	FR1	0	R1142N
2974.026	1.249	4095225	REC_WORD	17.745	n/a	RAT	-999	24	[0, 0, 0]	n/a	FR1	0	R1142N
2975.275	2.281	4096474	REC_WORD	18.994	n/a	CROWN	-999	24	[0, 0, 0]	n/a	FR1	0	R1142N
2977.556	2.721	4098755	REC_WORD_VV	21.275	n/a	<>	-999	24	[0, 0, 0]	n/a	FR1	0	R1142N
2980.277	1.054	4101476	REC_WORD	23.996	n/a	MUD	2	24	[0, 0, 0]	n/a	FR1	0	R1142N
2981.331	2.665	4102530	REC_WORD	25.05	n/a	SNAIL	-999	24	[0, 0, 0]	n/a	FR1	0	R1142N
2983.996	2.297	4105195	REC_WORD	27.715	n/a	TIME	-999	24	[0, 0, 0]	n/a	FR1	0	R1142N
2986.293	4.326	4107492	REC_END	n/a	n/a	n/a	-999	24	[0, 0, 0]	n/a	FR1	0	R1142N
2990.619	0.0	4111818	TRIAL	n/a	n/a	n/a	-999	25	[0, 0, 0]	n/a	FR1	0	R1142N
2990.619	10.0	4111818	COUNTDOWN_START	n/a	n/a	n/a	-999	25	[0, 0, 0]	n/a	FR1	0	R1142N
3001.047	0.008	4122245	COUNTDOWN_END	n/a	n/a	n/a	-999	25	[0, 0, 0]	n/a	FR1	0	R1142N
3001.055	1.6	4122253	ORIENT	n/a	n/a	n/a	-999	25	[0, 0, 0]	n/a	FR1	0	R1142N
3003.538	1.6	4124736	WORD	n/a	wordpools/wordpool_EN.txt	BEE	1	25	[0, 0, 0]	n/a	FR1	0	R1142N
3006.121	1.6	4127319	WORD	n/a	wordpools/wordpool_EN.txt	STORE	2	25	[0, 0, 0]	n/a	FR1	0	R1142N
3008.555	1.6	4129753	WORD	n/a	wordpools/wordpool_EN.txt	TRASH	3	25	[0, 0, 0]	n/a	FR1	0	R1142N
3010.956	1.6	4132154	WORD	n/a	wordpools/wordpool_EN.txt	APE	4	25	[0, 0, 0]	n/a	FR1	0	R1142N
3013.506	1.6	4134704	WORD	n/a	wordpools/wordpool_EN.txt	SMOKE	5	25	[0, 0, 0]	n/a	FR1	0	R1142N
3015.906	1.6	4137104	WORD	n/a	wordpools/wordpool_EN.txt	MOUSE	6	25	[0, 0, 0]	n/a	FR1	0	R1142N
3018.307	1.6	4139504	WORD	n/a	wordpools/wordpool_EN.txt	BANK	7	25	[0, 0, 0]	n/a	FR1	0	R1142N
3020.69	1.6	4141887	WORD	n/a	wordpools/wordpool_EN.txt	NET	8	25	[0, 0, 0]	n/a	FR1	0	R1142N
3023.108	1.6	4144305	WORD	n/a	wordpools/wordpool_EN.txt	MILK	9	25	[0, 0, 0]	n/a	FR1	0	R1142N
3025.525	1.6	4146722	WORD	n/a	wordpools/wordpool_EN.txt	CAT	10	25	[0, 0, 0]	n/a	FR1	0	R1142N
3027.908	1.6	4149105	WORD	n/a	wordpools/wordpool_EN.txt	CASH	11	25	[0, 0, 0]	n/a	FR1	0	R1142N
3030.542	1.6	4151739	WORD	n/a	wordpools/wordpool_EN.txt	HEART	12	25	[0, 0, 0]	n/a	FR1	0	R1142N
3032.159	0.001	4153356	DISTRACT_START	n/a	n/a	n/a	-999	25	[0, 0, 0]	n/a	FR1	0	R1142N
3032.16	0.016	4153357	START	n/a	n/a	n/a	-999	25	[-999, -999, -999]	n/a	FR1	0	R1142N
3032.176	12.035	4153373	PROB	12.007	n/a	n/a	-999	25	[5, 7, 8]	20.0	FR1	0	R1142N
3044.211	5.734	4165407	PROB	5.7	n/a	n/a	-999	25	[3, 4, 4]	11.0	FR1	0	R1142N
3049.945	6.326	4171141	PROB	6.326	n/a	n/a	-999	25	[7, 5, 5]	17.0	FR1	0	R1142N
3056.271	0.009	4177467	STOP	n/a	n/a	n/a	-999	25	[-999, -999, -999]	n/a	FR1	0	R1142N
3056.28	1.184	4177476	DISTRACT_END	n/a	n/a	n/a	-999	25	[0, 0, 0]	n/a	FR1	0	R1142N
3057.464	1.441	4178660	REC_START	n/a	n/a	n/a	-999	25	[0, 0, 0]	n/a	FR1	0	R1142N
3058.905	0.976	4180101	REC_WORD_VV	1.441	n/a	<>	-999	25	[0, 0, 0]	n/a	FR1	0	R1142N
3059.881	0.736	4181077	REC_WORD	2.417	n/a	BEE	1	25	[0, 0, 0]	n/a	FR1	0	R1142N
3060.617	1.854	4181813	REC_WORD	3.153	n/a	MUD	-999	25	[0, 0, 0]	n/a	FR1	0	R1142N
3062.471	3.325	4183667	REC_WORD_VV	5.007	n/a	<>	-999	25	[0, 0, 0]	n/a	FR1	0	R1142N
3065.796	0.68	4186992	REC_WORD	8.332	n/a	CAT	10	25	[0, 0, 0]	n/a	FR1	0	R1142N
3066.476	3.115	4187672	REC_WORD	9.012	n/a	MOUSE	6	25	[0, 0, 0]	n/a	FR1	0	R1142N
3069.591	0.505	4190787	REC_WORD_VV	12.127	n/a	<>	-999	25	[0, 0, 0]	n/a	FR1	0	R1142N
3070.096	5.107	4191291	REC_WORD	12.632	n/a	MUD	-999	25	[0, 0, 0]	n/a	FR1	0	R1142N
3075.203	0.969	4196398	REC_WORD	17.739	n/a	SWOOP	-999	25	[0, 0, 0]	n/a	FR1	0	R1142N
3076.172	0.437	4197367	REC_WORD_VV	18.708	n/a	<>	-999	25	[0, 0, 0]	n/a	FR1	0	R1142N
3076.609	2.756	4197804	REC_WORD	19.145	n/a	SWISH	-999	25	[0, 0, 0]	n/a	FR1	0	R1142N
3079.365	2.554	4200560	REC_WORD	21.901	n/a	ROPE	-999	25	[0, 0, 0]	n/a	FR1	0	R1142N
3081.919	2.801	4203114	REC_WORD_VV	24.455	n/a	<>	-999	25	[0, 0, 0]	n/a	FR1	0	R1142N
3084.72	2.755	4205915	REC_WORD	27.256	n/a	ROPE	-999	25	[0, 0, 0]	n/a	FR1	0	R1142N
3087.475	27.215	4208670	REC_END	n/a	n/a	n/a	-999	25	[0, 0, 0]	n/a	FR1	0	R1142N
3114.69	0.0	4235884	SESS_END	n/a	n/a	n/a	-999	25	[0, 0, 0]	n/a	FR1	0	R1142N
