onset	duration	sample	trial_type	response_time	stim_file	item_name	serialpos	list	test	answer	experiment	session	subject
0.0	19.898	-1	SESS_START	n/a	n/a	n/a	-999	-999	[0, 0, 0]	n/a	FR1	0	R1120E
19.898	10.0	-1	COUNTDOWN_START	n/a	n/a	n/a	-999	-999	[0, 0, 0]	n/a	FR1	0	R1120E
30.326	3.809	-1	COUNTDOWN_END	n/a	n/a	n/a	-999	-999	[0, 0, 0]	n/a	FR1	0	R1120E
34.135	1.6	-1	PRACTICE_WORD	n/a	n/a	RING	1	-1	[0, 0, 0]	n/a	FR1	0	R1120E
36.701	1.6	-1	PRACTICE_WORD	n/a	n/a	ATTIC	2	-1	[0, 0, 0]	n/a	FR1	0	R1120E
39.252	1.6	-1	PRACTICE_WORD	n/a	n/a	BEAM	3	-1	[0, 0, 0]	n/a	FR1	0	R1120E
41.651	1.6	-1	PRACTICE_WORD	n/a	n/a	CHEST	4	-1	[0, 0, 0]	n/a	FR1	0	R1120E
44.22	1.6	-1	PRACTICE_WORD	n/a	n/a	IRON	5	-1	[0, 0, 0]	n/a	FR1	0	R1120E
46.602	1.6	-1	PRACTICE_WORD	n/a	n/a	RHINO	6	-1	[0, 0, 0]	n/a	FR1	0	R1120E
49.187	1.6	-1	PRACTICE_WORD	n/a	n/a	TONGUE	7	-1	[0, 0, 0]	n/a	FR1	0	R1120E
51.653	1.6	-1	PRACTICE_WORD	n/a	n/a	WAGON	8	-1	[0, 0, 0]	n/a	FR1	0	R1120E
54.171	1.6	-1	PRACTICE_WORD	n/a	n/a	FLOOD	9	-1	[0, 0, 0]	n/a	FR1	0	R1120E
56.737	1.6	-1	PRACTICE_WORD	n/a	n/a	WATCH	10	-1	[0, 0, 0]	n/a	FR1	0	R1120E
59.122	1.6	-1	PRACTICE_WORD	n/a	n/a	CAMEL	11	-1	[0, 0, 0]	n/a	FR1	0	R1120E
61.638	1.6	-1	PRACTICE_WORD	n/a	n/a	COTTON	12	-1	[0, 0, 0]	n/a	FR1	0	R1120E
63.239	0.001	-1	PRACTICE_DISTRACT_START	n/a	n/a	n/a	-999	-1	[0, 0, 0]	n/a	FR1	0	R1120E
63.24	0.016	-1	START	n/a	n/a	n/a	-999	-1	[-999, -999, -999]	n/a	FR1	0	R1120E
63.256	6.384	-1	PROB	6.354	n/a	n/a	-999	-1	[5, 3, 5]	13.0	FR1	0	R1120E
69.64	5.867	-1	PROB	5.834	n/a	n/a	-999	-1	[7, 1, 5]	13.0	FR1	0	R1120E
75.507	3.801	-1	PROB	3.775	n/a	n/a	-999	-1	[8, 2, 7]	17.0	FR1	0	R1120E
79.308	7.007	-1	PROB	7.007	n/a	n/a	-999	-1	[7, 8, 9]	24.0	FR1	0	R1120E
86.315	0.011	-1	STOP	n/a	n/a	n/a	-999	-1	[-999, -999, -999]	n/a	FR1	0	R1120E
86.326	0.518	-1	PRACTICE_DISTRACT_END	n/a	n/a	n/a	-999	-1	[0, 0, 0]	n/a	FR1	0	R1120E
86.844	30.515	-1	PRACTICE_REC_START	n/a	n/a	n/a	-999	-1	[0, 0, 0]	n/a	FR1	0	R1120E
117.359	81.537	-1	PRACTICE_REC_END	n/a	n/a	n/a	-999	-1	[0, 0, 0]	n/a	FR1	0	R1120E
198.896	10.0	-1	COUNTDOWN_START	n/a	n/a	n/a	-999	1	[0, 0, 0]	n/a	FR1	0	R1120E
198.896	5287.988	-1	TRIAL	n/a	n/a	n/a	-999	1	[0, 0, 0]	n/a	FR1	0	R1120E
5486.884	90.633	1713	SESS_START	n/a	n/a	n/a	-999	1	[0, 0, 0]	n/a	FR1	0	R1120E
5577.517	0.0	92340	TRIAL	n/a	n/a	n/a	-999	1	[0, 0, 0]	n/a	FR1	0	R1120E
5577.517	10.0	92340	COUNTDOWN_START	n/a	n/a	n/a	-999	1	[0, 0, 0]	n/a	FR1	0	R1120E
5587.945	0.008	102767	COUNTDOWN_END	n/a	n/a	n/a	-999	1	[0, 0, 0]	n/a	FR1	0	R1120E
5587.953	1.6	102775	ORIENT	n/a	n/a	n/a	-999	1	[0, 0, 0]	n/a	FR1	0	R1120E
5590.353	1.6	105175	WORD	n/a	wordpools/wordpool_EN.txt	BARN	1	1	[0, 0, 0]	n/a	FR1	0	R1120E
5592.971	1.6	107793	WORD	n/a	wordpools/wordpool_EN.txt	LAKE	2	1	[0, 0, 0]	n/a	FR1	0	R1120E
5595.387	1.6	110208	WORD	n/a	wordpools/wordpool_EN.txt	CRANE	3	1	[0, 0, 0]	n/a	FR1	0	R1120E
5597.972	1.6	112793	WORD	n/a	wordpools/wordpool_EN.txt	CANE	4	1	[0, 0, 0]	n/a	FR1	0	R1120E
5600.438	1.6	115259	WORD	n/a	wordpools/wordpool_EN.txt	HEN	5	1	[0, 0, 0]	n/a	FR1	0	R1120E
5602.838	1.6	117659	WORD	n/a	wordpools/wordpool_EN.txt	GRASS	6	1	[0, 0, 0]	n/a	FR1	0	R1120E
5605.239	1.6	120060	WORD	n/a	wordpools/wordpool_EN.txt	JEEP	7	1	[0, 0, 0]	n/a	FR1	0	R1120E
5607.722	1.6	122543	WORD	n/a	wordpools/wordpool_EN.txt	CORN	8	1	[0, 0, 0]	n/a	FR1	0	R1120E
5610.339	1.6	125159	WORD	n/a	wordpools/wordpool_EN.txt	HILL	9	1	[0, 0, 0]	n/a	FR1	0	R1120E
5612.757	1.6	127577	WORD	n/a	wordpools/wordpool_EN.txt	SLEEVE	10	1	[0, 0, 0]	n/a	FR1	0	R1120E
5615.257	1.6	130077	WORD	n/a	wordpools/wordpool_EN.txt	OAR	11	1	[0, 0, 0]	n/a	FR1	0	R1120E
5617.841	1.6	132661	WORD	n/a	wordpools/wordpool_EN.txt	TENT	12	1	[0, 0, 0]	n/a	FR1	0	R1120E
5619.458	0.001	134278	DISTRACT_START	n/a	n/a	n/a	-999	1	[0, 0, 0]	n/a	FR1	0	R1120E
5619.459	0.015	134279	START	n/a	n/a	n/a	-999	1	[-999, -999, -999]	n/a	FR1	0	R1120E
5619.474	4.318	134294	PROB	4.287	n/a	n/a	-999	1	[1, 5, 2]	8.0	FR1	0	R1120E
5623.792	4.484	138611	PROB	4.457	n/a	n/a	-999	1	[8, 4, 5]	17.0	FR1	0	R1120E
5628.276	11.035	143095	PROB	11.01	n/a	n/a	-999	1	[7, 7, 8]	22.0	FR1	0	R1120E
5639.311	3.856	154129	PROB	3.856	n/a	n/a	-999	1	[2, 1, 7]	10.0	FR1	0	R1120E
5643.167	0.012	157985	STOP	n/a	n/a	n/a	-999	1	[-999, -999, -999]	n/a	FR1	0	R1120E
5643.179	1.227	157997	DISTRACT_END	n/a	n/a	n/a	-999	1	[0, 0, 0]	n/a	FR1	0	R1120E
5644.406	2.201	159224	REC_START	n/a	n/a	n/a	-999	1	[0, 0, 0]	n/a	FR1	0	R1120E
5646.607	1.319	161425	REC_WORD	2.201	n/a	BARN	-999	1	[0, 0, 0]	n/a	FR1	0	R1120E
5647.926	1.521	162744	REC_WORD	3.52	n/a	CRANE	-999	1	[0, 0, 0]	n/a	FR1	0	R1120E
5649.447	1.37	164265	REC_WORD	5.041	n/a	CANE	-999	1	[0, 0, 0]	n/a	FR1	0	R1120E
5650.817	23.588	165635	REC_WORD	6.411	n/a	LAKE	-999	1	[0, 0, 0]	n/a	FR1	0	R1120E
5674.405	2.813	189221	REC_END	n/a	n/a	n/a	-999	1	[0, 0, 0]	n/a	FR1	0	R1120E
5677.218	0.0	192034	TRIAL	n/a	n/a	n/a	-999	2	[0, 0, 0]	n/a	FR1	0	R1120E
5677.218	10.0	192034	COUNTDOWN_START	n/a	n/a	n/a	-999	2	[0, 0, 0]	n/a	FR1	0	R1120E
5687.646	0.007	202461	COUNTDOWN_END	n/a	n/a	n/a	-999	2	[0, 0, 0]	n/a	FR1	0	R1120E
5687.653	1.6	202468	ORIENT	n/a	n/a	n/a	-999	2	[0, 0, 0]	n/a	FR1	0	R1120E
5690.054	1.6	204869	WORD	n/a	wordpools/wordpool_EN.txt	BROOM	1	2	[0, 0, 0]	n/a	FR1	0	R1120E
5692.521	1.6	207336	WORD	n/a	wordpools/wordpool_EN.txt	DRESS	2	2	[0, 0, 0]	n/a	FR1	0	R1120E
5695.039	1.6	209854	WORD	n/a	wordpools/wordpool_EN.txt	OAK	3	2	[0, 0, 0]	n/a	FR1	0	R1120E
5697.571	1.6	212386	WORD	n/a	wordpools/wordpool_EN.txt	ROOF	4	2	[0, 0, 0]	n/a	FR1	0	R1120E
5700.189	1.6	215003	WORD	n/a	wordpools/wordpool_EN.txt	HORSE	5	2	[0, 0, 0]	n/a	FR1	0	R1120E
5702.772	1.6	217586	WORD	n/a	wordpools/wordpool_EN.txt	RAKE	6	2	[0, 0, 0]	n/a	FR1	0	R1120E
5705.239	1.6	220053	WORD	n/a	wordpools/wordpool_EN.txt	WHALE	7	2	[0, 0, 0]	n/a	FR1	0	R1120E
5707.74	1.6	222554	WORD	n/a	wordpools/wordpool_EN.txt	DRUM	8	2	[0, 0, 0]	n/a	FR1	0	R1120E
5710.274	1.6	225088	WORD	n/a	wordpools/wordpool_EN.txt	BAG	9	2	[0, 0, 0]	n/a	FR1	0	R1120E
5712.774	1.6	227587	WORD	n/a	wordpools/wordpool_EN.txt	FLAG	10	2	[0, 0, 0]	n/a	FR1	0	R1120E
5715.391	1.6	230204	WORD	n/a	wordpools/wordpool_EN.txt	CLOWN	11	2	[0, 0, 0]	n/a	FR1	0	R1120E
5717.943	1.6	232756	WORD	n/a	wordpools/wordpool_EN.txt	PARK	12	2	[0, 0, 0]	n/a	FR1	0	R1120E
5719.559	0.0	234372	DISTRACT_START	n/a	n/a	n/a	-999	2	[0, 0, 0]	n/a	FR1	0	R1120E
5719.559	0.016	234372	START	n/a	n/a	n/a	-999	2	[-999, -999, -999]	n/a	FR1	0	R1120E
5719.575	4.369	234388	PROB	4.348	n/a	n/a	-999	2	[5, 8, 3]	16.0	FR1	0	R1120E
5723.944	3.133	238757	PROB	3.107	n/a	n/a	-999	2	[1, 7, 9]	17.0	FR1	0	R1120E
5727.077	3.067	241890	PROB	3.045	n/a	n/a	-999	2	[4, 5, 3]	12.0	FR1	0	R1120E
5730.144	3.768	244956	PROB	3.738	n/a	n/a	-999	2	[8, 3, 9]	20.0	FR1	0	R1120E
5733.912	7.655	248724	PROB	7.655	n/a	n/a	-999	2	[8, 9, 9]	26.0	FR1	0	R1120E
5741.567	0.012	256379	STOP	n/a	n/a	n/a	-999	2	[-999, -999, -999]	n/a	FR1	0	R1120E
5741.579	1.225	256391	DISTRACT_END	n/a	n/a	n/a	-999	2	[0, 0, 0]	n/a	FR1	0	R1120E
5742.804	2.328	257615	REC_START	n/a	n/a	n/a	-999	2	[0, 0, 0]	n/a	FR1	0	R1120E
5745.132	1.561	259943	REC_WORD	2.328	n/a	BARN	-999	2	[0, 0, 0]	n/a	FR1	0	R1120E
5746.693	2.751	261504	REC_WORD	3.889	n/a	LAKE	-999	2	[0, 0, 0]	n/a	FR1	0	R1120E
5749.444	6.007	264255	REC_WORD	6.64	n/a	BROOM	-999	2	[0, 0, 0]	n/a	FR1	0	R1120E
5755.451	1.992	270262	REC_WORD	12.647	n/a	OAK	-999	2	[0, 0, 0]	n/a	FR1	0	R1120E
5757.443	15.364	272253	REC_WORD	14.639	n/a	ROOF	-999	2	[0, 0, 0]	n/a	FR1	0	R1120E
5772.807	2.146	287616	REC_END	n/a	n/a	n/a	-999	2	[0, 0, 0]	n/a	FR1	0	R1120E
5774.953	0.0	289762	TRIAL	n/a	n/a	n/a	-999	3	[0, 0, 0]	n/a	FR1	0	R1120E
5774.953	10.0	289762	COUNTDOWN_START	n/a	n/a	n/a	-999	3	[0, 0, 0]	n/a	FR1	0	R1120E
5785.381	0.006	300190	COUNTDOWN_END	n/a	n/a	n/a	-999	3	[0, 0, 0]	n/a	FR1	0	R1120E
5785.387	1.6	300196	ORIENT	n/a	n/a	n/a	-999	3	[0, 0, 0]	n/a	FR1	0	R1120E
5787.905	1.6	302713	WORD	n/a	wordpools/wordpool_EN.txt	SIGN	1	3	[0, 0, 0]	n/a	FR1	0	R1120E
5790.454	1.6	305262	WORD	n/a	wordpools/wordpool_EN.txt	SKI	2	3	[0, 0, 0]	n/a	FR1	0	R1120E
5793.056	1.6	307864	WORD	n/a	wordpools/wordpool_EN.txt	FLEA	3	3	[0, 0, 0]	n/a	FR1	0	R1120E
5795.522	1.6	310330	WORD	n/a	wordpools/wordpool_EN.txt	PIN	4	3	[0, 0, 0]	n/a	FR1	0	R1120E
5797.923	1.6	312731	WORD	n/a	wordpools/wordpool_EN.txt	ROPE	5	3	[0, 0, 0]	n/a	FR1	0	R1120E
5800.339	1.6	315147	WORD	n/a	wordpools/wordpool_EN.txt	SHOE	6	3	[0, 0, 0]	n/a	FR1	0	R1120E
5802.823	1.6	317630	WORD	n/a	wordpools/wordpool_EN.txt	RIB	7	3	[0, 0, 0]	n/a	FR1	0	R1120E
5805.207	1.6	320014	WORD	n/a	wordpools/wordpool_EN.txt	MUD	8	3	[0, 0, 0]	n/a	FR1	0	R1120E
5807.791	1.6	322598	WORD	n/a	wordpools/wordpool_EN.txt	BATH	9	3	[0, 0, 0]	n/a	FR1	0	R1120E
5810.258	1.6	325065	WORD	n/a	wordpools/wordpool_EN.txt	FOOT	10	3	[0, 0, 0]	n/a	FR1	0	R1120E
5812.708	1.6	327515	WORD	n/a	wordpools/wordpool_EN.txt	HAWK	11	3	[0, 0, 0]	n/a	FR1	0	R1120E
5815.175	1.6	329982	WORD	n/a	wordpools/wordpool_EN.txt	CHIN	12	3	[0, 0, 0]	n/a	FR1	0	R1120E
5816.792	0.001	331599	DISTRACT_START	n/a	n/a	n/a	-999	3	[0, 0, 0]	n/a	FR1	0	R1120E
5816.793	0.016	331600	START	n/a	n/a	n/a	-999	3	[-999, -999, -999]	n/a	FR1	0	R1120E
5816.809	3.151	331616	PROB	3.117	n/a	n/a	-999	3	[4, 8, 1]	13.0	FR1	0	R1120E
5819.96	2.8	334766	PROB	2.773	n/a	n/a	-999	3	[3, 1, 9]	13.0	FR1	0	R1120E
5822.76	3.767	337566	PROB	3.741	n/a	n/a	-999	3	[9, 6, 1]	16.0	FR1	0	R1120E
5826.527	3.868	341333	PROB	3.838	n/a	n/a	-999	3	[5, 7, 8]	20.0	FR1	0	R1120E
5830.395	2.383	345201	PROB	2.362	n/a	n/a	-999	3	[9, 1, 2]	12.0	FR1	0	R1120E
5832.778	3.185	347583	PROB	3.156	n/a	n/a	-999	3	[4, 3, 9]	16.0	FR1	0	R1120E
5835.963	2.658	350768	PROB	2.658	n/a	n/a	-999	3	[5, 2, 1]	8.0	FR1	0	R1120E
5838.621	0.008	353426	STOP	n/a	n/a	n/a	-999	3	[-999, -999, -999]	n/a	FR1	0	R1120E
5838.629	1.035	353434	DISTRACT_END	n/a	n/a	n/a	-999	3	[0, 0, 0]	n/a	FR1	0	R1120E
5839.664	1.044	354469	REC_START	n/a	n/a	n/a	-999	3	[0, 0, 0]	n/a	FR1	0	R1120E
5840.708	1.729	355513	REC_WORD	1.044	n/a	ROPE	-999	3	[0, 0, 0]	n/a	FR1	0	R1120E
5842.437	2.128	357242	REC_WORD	2.773	n/a	SKI	-999	3	[0, 0, 0]	n/a	FR1	0	R1120E
5844.565	18.89	359370	REC_WORD	4.901	n/a	FLEA	-999	3	[0, 0, 0]	n/a	FR1	0	R1120E
5863.455	6.218	378258	REC_WORD	23.791	n/a	CHIN	-999	3	[0, 0, 0]	n/a	FR1	0	R1120E
5869.673	2.38	384476	REC_END	n/a	n/a	n/a	-999	3	[0, 0, 0]	n/a	FR1	0	R1120E
5872.053	0.0	386856	TRIAL	n/a	n/a	n/a	-999	4	[0, 0, 0]	n/a	FR1	0	R1120E
5872.053	10.0	386856	COUNTDOWN_START	n/a	n/a	n/a	-999	4	[0, 0, 0]	n/a	FR1	0	R1120E
5882.481	0.023	397283	COUNTDOWN_END	n/a	n/a	n/a	-999	4	[0, 0, 0]	n/a	FR1	0	R1120E
5882.504	1.6	397306	ORIENT	n/a	n/a	n/a	-999	4	[0, 0, 0]	n/a	FR1	0	R1120E
5885.022	1.6	399824	WORD	n/a	wordpools/wordpool_EN.txt	STEAK	1	4	[0, 0, 0]	n/a	FR1	0	R1120E
5887.471	1.6	402273	WORD	n/a	wordpools/wordpool_EN.txt	GOLD	2	4	[0, 0, 0]	n/a	FR1	0	R1120E
5890.056	1.6	404858	WORD	n/a	wordpools/wordpool_EN.txt	PRINCE	3	4	[0, 0, 0]	n/a	FR1	0	R1120E
5892.572	1.6	407373	WORD	n/a	wordpools/wordpool_EN.txt	BOAT	4	4	[0, 0, 0]	n/a	FR1	0	R1120E
5894.99	1.6	409791	WORD	n/a	wordpools/wordpool_EN.txt	TRAIN	5	4	[0, 0, 0]	n/a	FR1	0	R1120E
5897.54	1.6	412341	WORD	n/a	wordpools/wordpool_EN.txt	JET	6	4	[0, 0, 0]	n/a	FR1	0	R1120E
5899.974	1.6	414775	WORD	n/a	wordpools/wordpool_EN.txt	PEARL	7	4	[0, 0, 0]	n/a	FR1	0	R1120E
5902.39	1.6	417191	WORD	n/a	wordpools/wordpool_EN.txt	TOOTH	8	4	[0, 0, 0]	n/a	FR1	0	R1120E
5904.858	1.6	419659	WORD	n/a	wordpools/wordpool_EN.txt	SHRIMP	9	4	[0, 0, 0]	n/a	FR1	0	R1120E
5907.275	1.6	422075	WORD	n/a	wordpools/wordpool_EN.txt	CROWN	10	4	[0, 0, 0]	n/a	FR1	0	R1120E
5909.725	1.6	424525	WORD	n/a	wordpools/wordpool_EN.txt	FISH	11	4	[0, 0, 0]	n/a	FR1	0	R1120E
5912.325	1.6	427125	WORD	n/a	wordpools/wordpool_EN.txt	SLIME	12	4	[0, 0, 0]	n/a	FR1	0	R1120E
5913.926	0.001	428726	DISTRACT_START	n/a	n/a	n/a	-999	4	[0, 0, 0]	n/a	FR1	0	R1120E
5913.927	0.016	428727	START	n/a	n/a	n/a	-999	4	[-999, -999, -999]	n/a	FR1	0	R1120E
5913.943	4.367	428743	PROB	4.331	n/a	n/a	-999	4	[9, 4, 6]	19.0	FR1	0	R1120E
5918.31	3.751	433110	PROB	3.717	n/a	n/a	-999	4	[4, 1, 7]	12.0	FR1	0	R1120E
5922.061	3.051	436860	PROB	3.022	n/a	n/a	-999	4	[6, 2, 4]	12.0	FR1	0	R1120E
5925.112	5.7	439911	PROB	5.679	n/a	n/a	-999	4	[7, 2, 5]	14.0	FR1	0	R1120E
5930.812	3.118	445611	PROB	3.091	n/a	n/a	-999	4	[3, 6, 3]	12.0	FR1	0	R1120E
5933.93	4.501	448729	PROB	4.501	n/a	n/a	-999	4	[7, 3, 7]	17.0	FR1	0	R1120E
5938.431	0.016	453229	STOP	n/a	n/a	n/a	-999	4	[-999, -999, -999]	n/a	FR1	0	R1120E
5938.447	1.05	453245	DISTRACT_END	n/a	n/a	n/a	-999	4	[0, 0, 0]	n/a	FR1	0	R1120E
5939.497	1.658	454295	REC_START	n/a	n/a	n/a	-999	4	[0, 0, 0]	n/a	FR1	0	R1120E
5941.155	1.376	455953	REC_WORD	1.658	n/a	BOAT	-999	4	[0, 0, 0]	n/a	FR1	0	R1120E
5942.531	1.879	457329	REC_WORD	3.034	n/a	TRAIN	-999	4	[0, 0, 0]	n/a	FR1	0	R1120E
5944.41	2.009	459208	REC_WORD	4.913	n/a	JET	-999	4	[0, 0, 0]	n/a	FR1	0	R1120E
5946.419	14.482	461217	REC_WORD	6.922	n/a	SHRIMP	-999	4	[0, 0, 0]	n/a	FR1	0	R1120E
5960.901	8.611	475698	REC_WORD	21.404	n/a	PEARL	-999	4	[0, 0, 0]	n/a	FR1	0	R1120E
5969.512	2.191	484308	REC_END	n/a	n/a	n/a	-999	4	[0, 0, 0]	n/a	FR1	0	R1120E
5971.703	10.0	486499	COUNTDOWN_START	n/a	n/a	n/a	-999	5	[0, 0, 0]	n/a	FR1	0	R1120E
5971.703	10.428	486499	TRIAL	n/a	n/a	n/a	-999	5	[0, 0, 0]	n/a	FR1	0	R1120E
5982.131	0.007	496926	COUNTDOWN_END	n/a	n/a	n/a	-999	5	[0, 0, 0]	n/a	FR1	0	R1120E
5982.138	1.6	496933	ORIENT	n/a	n/a	n/a	-999	5	[0, 0, 0]	n/a	FR1	0	R1120E
5984.588	1.6	499383	WORD	n/a	wordpools/wordpool_EN.txt	FOX	1	5	[0, 0, 0]	n/a	FR1	0	R1120E
5987.039	1.6	501834	WORD	n/a	wordpools/wordpool_EN.txt	LAMB	2	5	[0, 0, 0]	n/a	FR1	0	R1120E
5989.439	1.6	504234	WORD	n/a	wordpools/wordpool_EN.txt	TAIL	3	5	[0, 0, 0]	n/a	FR1	0	R1120E
5991.856	1.6	506651	WORD	n/a	wordpools/wordpool_EN.txt	SPEAR	4	5	[0, 0, 0]	n/a	FR1	0	R1120E
5994.323	1.6	509118	WORD	n/a	wordpools/wordpool_EN.txt	GATE	5	5	[0, 0, 0]	n/a	FR1	0	R1120E
5996.925	1.6	511719	WORD	n/a	wordpools/wordpool_EN.txt	PEAR	6	5	[0, 0, 0]	n/a	FR1	0	R1120E
5999.474	1.6	514268	WORD	n/a	wordpools/wordpool_EN.txt	PIT	7	5	[0, 0, 0]	n/a	FR1	0	R1120E
6001.891	1.6	516685	WORD	n/a	wordpools/wordpool_EN.txt	CLIFF	8	5	[0, 0, 0]	n/a	FR1	0	R1120E
6004.491	1.6	519285	WORD	n/a	wordpools/wordpool_EN.txt	CALF	9	5	[0, 0, 0]	n/a	FR1	0	R1120E
6007.06	1.6	521854	WORD	n/a	wordpools/wordpool_EN.txt	ROCK	10	5	[0, 0, 0]	n/a	FR1	0	R1120E
6009.676	1.6	524470	WORD	n/a	wordpools/wordpool_EN.txt	MOLE	11	5	[0, 0, 0]	n/a	FR1	0	R1120E
6012.21	1.6	527003	WORD	n/a	wordpools/wordpool_EN.txt	FROG	12	5	[0, 0, 0]	n/a	FR1	0	R1120E
6013.827	0.0	528620	DISTRACT_START	n/a	n/a	n/a	-999	5	[0, 0, 0]	n/a	FR1	0	R1120E
6013.827	0.016	528620	START	n/a	n/a	n/a	-999	5	[-999, -999, -999]	n/a	FR1	0	R1120E
6013.843	3.135	528636	PROB	3.105	n/a	n/a	-999	5	[9, 9, 1]	19.0	FR1	0	R1120E
6016.978	3.017	531771	PROB	2.986	n/a	n/a	-999	5	[2, 6, 2]	10.0	FR1	0	R1120E
6019.995	2.333	534788	PROB	2.304	n/a	n/a	-999	5	[1, 6, 6]	13.0	FR1	0	R1120E
6022.328	3.685	537121	PROB	3.653	n/a	n/a	-999	5	[9, 7, 8]	26.0	FR1	0	R1120E
6026.013	3.8	540806	PROB	3.774	n/a	n/a	-999	5	[2, 4, 1]	7.0	FR1	0	R1120E
6029.813	4.884	544605	PROB	4.884	n/a	n/a	-999	5	[8, 4, 7]	19.0	FR1	0	R1120E
6034.697	0.016	549489	STOP	n/a	n/a	n/a	-999	5	[-999, -999, -999]	n/a	FR1	0	R1120E
6034.713	1.202	549505	DISTRACT_END	n/a	n/a	n/a	-999	5	[0, 0, 0]	n/a	FR1	0	R1120E
6035.915	2.001	550707	REC_START	n/a	n/a	n/a	-999	5	[0, 0, 0]	n/a	FR1	0	R1120E
6037.916	9.546	552708	REC_WORD	2.001	n/a	TAIL	-999	5	[0, 0, 0]	n/a	FR1	0	R1120E
6047.462	4.218	562253	REC_WORD	11.547	n/a	PEAR	-999	5	[0, 0, 0]	n/a	FR1	0	R1120E
6051.68	1.545	566471	REC_WORD	15.765	n/a	CALF	-999	5	[0, 0, 0]	n/a	FR1	0	R1120E
6053.225	4.232	568016	REC_WORD	17.31	n/a	LAMB	-999	5	[0, 0, 0]	n/a	FR1	0	R1120E
6057.457	4.731	572247	REC_WORD	21.542	n/a	FOX	-999	5	[0, 0, 0]	n/a	FR1	0	R1120E
6062.188	3.742	576978	REC_WORD	26.273	n/a	FENCE	-999	5	[0, 0, 0]	n/a	FR1	0	R1120E
6065.93	2.456	580720	REC_END	n/a	n/a	n/a	-999	5	[0, 0, 0]	n/a	FR1	0	R1120E
6068.386	0.0	583176	TRIAL	n/a	n/a	n/a	-999	6	[0, 0, 0]	n/a	FR1	0	R1120E
6068.386	10.0	583176	COUNTDOWN_START	n/a	n/a	n/a	-999	6	[0, 0, 0]	n/a	FR1	0	R1120E
6078.814	0.007	593603	COUNTDOWN_END	n/a	n/a	n/a	-999	6	[0, 0, 0]	n/a	FR1	0	R1120E
6078.821	1.6	593610	ORIENT	n/a	n/a	n/a	-999	6	[0, 0, 0]	n/a	FR1	0	R1120E
6081.338	1.6	596127	WORD	n/a	wordpools/wordpool_EN.txt	FUR	1	6	[0, 0, 0]	n/a	FR1	0	R1120E
6083.839	1.6	598628	WORD	n/a	wordpools/wordpool_EN.txt	BANK	2	6	[0, 0, 0]	n/a	FR1	0	R1120E
6086.322	1.6	601110	WORD	n/a	wordpools/wordpool_EN.txt	COUCH	3	6	[0, 0, 0]	n/a	FR1	0	R1120E
6088.873	1.6	603661	WORD	n/a	wordpools/wordpool_EN.txt	CROW	4	6	[0, 0, 0]	n/a	FR1	0	R1120E
6091.29	1.6	606078	WORD	n/a	wordpools/wordpool_EN.txt	CART	5	6	[0, 0, 0]	n/a	FR1	0	R1120E
6093.908	1.6	608696	WORD	n/a	wordpools/wordpool_EN.txt	SNAKE	6	6	[0, 0, 0]	n/a	FR1	0	R1120E
6096.341	1.6	611129	WORD	n/a	wordpools/wordpool_EN.txt	SKUNK	7	6	[0, 0, 0]	n/a	FR1	0	R1120E
6098.942	1.6	613730	WORD	n/a	wordpools/wordpool_EN.txt	WAND	8	6	[0, 0, 0]	n/a	FR1	0	R1120E
6101.458	1.6	616245	WORD	n/a	wordpools/wordpool_EN.txt	SHIRT	9	6	[0, 0, 0]	n/a	FR1	0	R1120E
6103.96	1.6	618747	WORD	n/a	wordpools/wordpool_EN.txt	RAT	10	6	[0, 0, 0]	n/a	FR1	0	R1120E
6106.393	1.6	621180	WORD	n/a	wordpools/wordpool_EN.txt	DOLL	11	6	[0, 0, 0]	n/a	FR1	0	R1120E
6108.776	1.6	623563	WORD	n/a	wordpools/wordpool_EN.txt	BED	12	6	[0, 0, 0]	n/a	FR1	0	R1120E
6110.393	0.001	625180	DISTRACT_START	n/a	n/a	n/a	-999	6	[0, 0, 0]	n/a	FR1	0	R1120E
6110.394	0.016	625181	START	n/a	n/a	n/a	-999	6	[-999, -999, -999]	n/a	FR1	0	R1120E
6110.41	4.134	625197	PROB	4.098	n/a	n/a	-999	6	[1, 8, 7]	16.0	FR1	0	R1120E
6114.544	3.502	629331	PROB	3.469	n/a	n/a	-999	6	[2, 8, 7]	17.0	FR1	0	R1120E
6118.046	5.917	632832	PROB	5.894	n/a	n/a	-999	6	[9, 8, 4]	21.0	FR1	0	R1120E
6123.963	2.183	638749	PROB	2.153	n/a	n/a	-999	6	[1, 8, 2]	11.0	FR1	0	R1120E
6126.146	4.926	640932	PROB	4.926	n/a	n/a	-999	6	[3, 8, 5]	16.0	FR1	0	R1120E
6131.072	0.009	645857	STOP	n/a	n/a	n/a	-999	6	[-999, -999, -999]	n/a	FR1	0	R1120E
6131.081	1.033	645866	DISTRACT_END	n/a	n/a	n/a	-999	6	[0, 0, 0]	n/a	FR1	0	R1120E
6132.114	5.354	646899	REC_START	n/a	n/a	n/a	-999	6	[0, 0, 0]	n/a	FR1	0	R1120E
6137.468	2.287	652253	REC_WORD	5.354	n/a	FUR	-999	6	[0, 0, 0]	n/a	FR1	0	R1120E
6139.755	22.369	654540	REC_WORD	7.641	n/a	BANK	-999	6	[0, 0, 0]	n/a	FR1	0	R1120E
6162.124	4.563	676907	REC_END	n/a	n/a	n/a	-999	6	[0, 0, 0]	n/a	FR1	0	R1120E
6166.687	0.0	681470	TRIAL	n/a	n/a	n/a	-999	7	[0, 0, 0]	n/a	FR1	0	R1120E
6166.687	10.0	681470	COUNTDOWN_START	n/a	n/a	n/a	-999	7	[0, 0, 0]	n/a	FR1	0	R1120E
6177.115	0.007	691897	COUNTDOWN_END	n/a	n/a	n/a	-999	7	[0, 0, 0]	n/a	FR1	0	R1120E
6177.122	1.6	691904	ORIENT	n/a	n/a	n/a	-999	7	[0, 0, 0]	n/a	FR1	0	R1120E
6179.689	1.6	694471	WORD	n/a	wordpools/wordpool_EN.txt	PIPE	1	7	[0, 0, 0]	n/a	FR1	0	R1120E
6182.139	1.6	696921	WORD	n/a	wordpools/wordpool_EN.txt	OWL	2	7	[0, 0, 0]	n/a	FR1	0	R1120E
6184.706	1.6	699488	WORD	n/a	wordpools/wordpool_EN.txt	PIE	3	7	[0, 0, 0]	n/a	FR1	0	R1120E
6187.108	1.6	701890	WORD	n/a	wordpools/wordpool_EN.txt	DEER	4	7	[0, 0, 0]	n/a	FR1	0	R1120E
6189.674	1.6	704456	WORD	n/a	wordpools/wordpool_EN.txt	SPRING	5	7	[0, 0, 0]	n/a	FR1	0	R1120E
6192.059	1.6	706840	WORD	n/a	wordpools/wordpool_EN.txt	MULE	6	7	[0, 0, 0]	n/a	FR1	0	R1120E
6194.675	1.6	709456	WORD	n/a	wordpools/wordpool_EN.txt	SLUSH	7	7	[0, 0, 0]	n/a	FR1	0	R1120E
6197.092	1.6	711873	WORD	n/a	wordpools/wordpool_EN.txt	PIG	8	7	[0, 0, 0]	n/a	FR1	0	R1120E
6199.476	1.6	714257	WORD	n/a	wordpools/wordpool_EN.txt	STOOL	9	7	[0, 0, 0]	n/a	FR1	0	R1120E
6201.91	1.6	716691	WORD	n/a	wordpools/wordpool_EN.txt	POOL	10	7	[0, 0, 0]	n/a	FR1	0	R1120E
6204.426	1.6	719207	WORD	n/a	wordpools/wordpool_EN.txt	WOLF	11	7	[0, 0, 0]	n/a	FR1	0	R1120E
6206.893	1.6	721673	WORD	n/a	wordpools/wordpool_EN.txt	SWAMP	12	7	[0, 0, 0]	n/a	FR1	0	R1120E
6208.51	0.001	723290	DISTRACT_START	n/a	n/a	n/a	-999	7	[0, 0, 0]	n/a	FR1	0	R1120E
6208.511	0.016	723291	START	n/a	n/a	n/a	-999	7	[-999, -999, -999]	n/a	FR1	0	R1120E
6208.527	4.001	723307	PROB	3.979	n/a	n/a	-999	7	[2, 9, 7]	18.0	FR1	0	R1120E
6212.528	2.568	727308	PROB	2.54	n/a	n/a	-999	7	[9, 1, 7]	17.0	FR1	0	R1120E
6215.096	2.951	729876	PROB	2.923	n/a	n/a	-999	7	[9, 4, 2]	15.0	FR1	0	R1120E
6218.047	2.599	732827	PROB	2.563	n/a	n/a	-999	7	[9, 4, 3]	16.0	FR1	0	R1120E
6220.646	3.084	735425	PROB	3.06	n/a	n/a	-999	7	[6, 9, 1]	16.0	FR1	0	R1120E
6223.73	3.484	738509	PROB	3.448	n/a	n/a	-999	7	[2, 9, 2]	13.0	FR1	0	R1120E
6227.214	2.492	741993	PROB	2.492	n/a	n/a	-999	7	[4, 2, 6]	12.0	FR1	0	R1120E
6229.706	0.008	744485	STOP	n/a	n/a	n/a	-999	7	[-999, -999, -999]	n/a	FR1	0	R1120E
6229.714	1.151	744493	DISTRACT_END	n/a	n/a	n/a	-999	7	[0, 0, 0]	n/a	FR1	0	R1120E
6230.865	4.106	745644	REC_START	n/a	n/a	n/a	-999	7	[0, 0, 0]	n/a	FR1	0	R1120E
6234.971	4.171	749750	REC_WORD	4.106	n/a	WOLF	-999	7	[0, 0, 0]	n/a	FR1	0	R1120E
6239.142	3.997	753920	REC_WORD	8.277	n/a	OWL	-999	7	[0, 0, 0]	n/a	FR1	0	R1120E
6243.139	15.566	757917	REC_WORD	12.274	n/a	STOOL	-999	7	[0, 0, 0]	n/a	FR1	0	R1120E
6258.705	2.17	773482	REC_WORD	27.84	n/a	MULE	-999	7	[0, 0, 0]	n/a	FR1	0	R1120E
6260.875	3.012	775652	REC_END	n/a	n/a	n/a	-999	7	[0, 0, 0]	n/a	FR1	0	R1120E
6263.887	0.0	778664	TRIAL	n/a	n/a	n/a	-999	8	[0, 0, 0]	n/a	FR1	0	R1120E
6263.887	10.0	778664	COUNTDOWN_START	n/a	n/a	n/a	-999	8	[0, 0, 0]	n/a	FR1	0	R1120E
6274.315	0.007	789091	COUNTDOWN_END	n/a	n/a	n/a	-999	8	[0, 0, 0]	n/a	FR1	0	R1120E
6274.322	1.6	789098	ORIENT	n/a	n/a	n/a	-999	8	[0, 0, 0]	n/a	FR1	0	R1120E
6276.822	1.6	791598	WORD	n/a	wordpools/wordpool_EN.txt	TRASH	1	8	[0, 0, 0]	n/a	FR1	0	R1120E
6279.373	1.6	794149	WORD	n/a	wordpools/wordpool_EN.txt	CAT	2	8	[0, 0, 0]	n/a	FR1	0	R1120E
6281.991	1.6	796766	WORD	n/a	wordpools/wordpool_EN.txt	ZOO	3	8	[0, 0, 0]	n/a	FR1	0	R1120E
6284.49	1.6	799265	WORD	n/a	wordpools/wordpool_EN.txt	FLUTE	4	8	[0, 0, 0]	n/a	FR1	0	R1120E
6287.092	1.6	801867	WORD	n/a	wordpools/wordpool_EN.txt	STAR	5	8	[0, 0, 0]	n/a	FR1	0	R1120E
6289.558	1.6	804333	WORD	n/a	wordpools/wordpool_EN.txt	MAZE	6	8	[0, 0, 0]	n/a	FR1	0	R1120E
6292.093	1.6	806868	WORD	n/a	wordpools/wordpool_EN.txt	SUN	7	8	[0, 0, 0]	n/a	FR1	0	R1120E
6294.525	1.6	809300	WORD	n/a	wordpools/wordpool_EN.txt	DESK	8	8	[0, 0, 0]	n/a	FR1	0	R1120E
6296.944	1.6	811718	WORD	n/a	wordpools/wordpool_EN.txt	BAT	9	8	[0, 0, 0]	n/a	FR1	0	R1120E
6299.426	1.6	814200	WORD	n/a	wordpools/wordpool_EN.txt	MOTH	10	8	[0, 0, 0]	n/a	FR1	0	R1120E
6301.893	1.6	816667	WORD	n/a	wordpools/wordpool_EN.txt	BEE	11	8	[0, 0, 0]	n/a	FR1	0	R1120E
6304.461	1.6	819235	WORD	n/a	wordpools/wordpool_EN.txt	BIRD	12	8	[0, 0, 0]	n/a	FR1	0	R1120E
6306.078	0.001	820852	DISTRACT_START	n/a	n/a	n/a	-999	8	[0, 0, 0]	n/a	FR1	0	R1120E
6306.079	0.016	820853	START	n/a	n/a	n/a	-999	8	[-999, -999, -999]	n/a	FR1	0	R1120E
6306.095	2.851	820869	PROB	2.816	n/a	n/a	-999	8	[6, 4, 1]	11.0	FR1	0	R1120E
6308.946	2.882	823720	PROB	2.86	n/a	n/a	-999	8	[6, 4, 7]	17.0	FR1	0	R1120E
6311.828	3.718	826601	PROB	3.69	n/a	n/a	-999	8	[3, 8, 7]	18.0	FR1	0	R1120E
6315.546	2.75	830319	PROB	2.716	n/a	n/a	-999	8	[2, 6, 6]	14.0	FR1	0	R1120E
6318.296	2.702	833069	PROB	2.679	n/a	n/a	-999	8	[1, 9, 4]	14.0	FR1	0	R1120E
6320.998	5.663	835771	PROB	5.663	n/a	n/a	-999	8	[2, 4, 3]	9.0	FR1	0	R1120E
6326.661	0.003	841433	STOP	n/a	n/a	n/a	-999	8	[-999, -999, -999]	n/a	FR1	0	R1120E
6326.664	1.185	841436	DISTRACT_END	n/a	n/a	n/a	-999	8	[0, 0, 0]	n/a	FR1	0	R1120E
6327.849	1.301	842621	REC_START	n/a	n/a	n/a	-999	8	[0, 0, 0]	n/a	FR1	0	R1120E
6329.15	1.896	843922	REC_WORD	1.301	n/a	MOTH	-999	8	[0, 0, 0]	n/a	FR1	0	R1120E
6331.046	6.303	845818	REC_WORD	3.197	n/a	BIRD	-999	8	[0, 0, 0]	n/a	FR1	0	R1120E
6337.349	7.857	852121	REC_WORD	9.5	n/a	OWL	-999	8	[0, 0, 0]	n/a	FR1	0	R1120E
6345.206	1.233	859977	REC_WORD	17.357	n/a	ZOO	-999	8	[0, 0, 0]	n/a	FR1	0	R1120E
6346.439	4.109	861210	REC_WORD	18.59	n/a	CAT	-999	8	[0, 0, 0]	n/a	FR1	0	R1120E
6350.548	7.31	865319	REC_WORD	22.699	n/a	TAIL	-999	8	[0, 0, 0]	n/a	FR1	0	R1120E
6357.858	2.396	872628	REC_END	n/a	n/a	n/a	-999	8	[0, 0, 0]	n/a	FR1	0	R1120E
6360.254	0.0	875024	TRIAL	n/a	n/a	n/a	-999	9	[0, 0, 0]	n/a	FR1	0	R1120E
6360.254	10.0	875024	COUNTDOWN_START	n/a	n/a	n/a	-999	9	[0, 0, 0]	n/a	FR1	0	R1120E
6370.682	0.023	885451	COUNTDOWN_END	n/a	n/a	n/a	-999	9	[0, 0, 0]	n/a	FR1	0	R1120E
6370.705	1.6	885474	ORIENT	n/a	n/a	n/a	-999	9	[0, 0, 0]	n/a	FR1	0	R1120E
6373.107	1.6	887876	WORD	n/a	wordpools/wordpool_EN.txt	TREE	1	9	[0, 0, 0]	n/a	FR1	0	R1120E
6375.556	1.6	890325	WORD	n/a	wordpools/wordpool_EN.txt	VINE	2	9	[0, 0, 0]	n/a	FR1	0	R1120E
6378.14	1.6	892909	WORD	n/a	wordpools/wordpool_EN.txt	MILK	3	9	[0, 0, 0]	n/a	FR1	0	R1120E
6380.674	1.6	895443	WORD	n/a	wordpools/wordpool_EN.txt	WHEEL	4	9	[0, 0, 0]	n/a	FR1	0	R1120E
6383.141	1.6	897910	WORD	n/a	wordpools/wordpool_EN.txt	STEM	5	9	[0, 0, 0]	n/a	FR1	0	R1120E
6385.758	1.6	900526	WORD	n/a	wordpools/wordpool_EN.txt	CONE	6	9	[0, 0, 0]	n/a	FR1	0	R1120E
6388.375	1.6	903143	WORD	n/a	wordpools/wordpool_EN.txt	ELF	7	9	[0, 0, 0]	n/a	FR1	0	R1120E
6390.742	1.6	905510	WORD	n/a	wordpools/wordpool_EN.txt	SEED	8	9	[0, 0, 0]	n/a	FR1	0	R1120E
6393.309	1.6	908077	WORD	n/a	wordpools/wordpool_EN.txt	THUMB	9	9	[0, 0, 0]	n/a	FR1	0	R1120E
6395.843	1.6	910611	WORD	n/a	wordpools/wordpool_EN.txt	BOOT	10	9	[0, 0, 0]	n/a	FR1	0	R1120E
6398.227	1.6	912995	WORD	n/a	wordpools/wordpool_EN.txt	WORM	11	9	[0, 0, 0]	n/a	FR1	0	R1120E
6400.694	1.6	915461	WORD	n/a	wordpools/wordpool_EN.txt	COW	12	9	[0, 0, 0]	n/a	FR1	0	R1120E
6402.311	0.001	917078	DISTRACT_START	n/a	n/a	n/a	-999	9	[0, 0, 0]	n/a	FR1	0	R1120E
6402.312	0.016	917079	START	n/a	n/a	n/a	-999	9	[-999, -999, -999]	n/a	FR1	0	R1120E
6402.328	3.0	917095	PROB	2.967	n/a	n/a	-999	9	[4, 4, 8]	16.0	FR1	0	R1120E
6405.328	2.718	920095	PROB	2.696	n/a	n/a	-999	9	[6, 6, 6]	18.0	FR1	0	R1120E
6408.046	2.984	922813	PROB	2.962	n/a	n/a	-999	9	[2, 2, 7]	11.0	FR1	0	R1120E
6411.03	3.166	925797	PROB	3.137	n/a	n/a	-999	9	[9, 9, 1]	19.0	FR1	0	R1120E
6414.196	3.735	928963	PROB	3.699	n/a	n/a	-999	9	[9, 2, 7]	18.0	FR1	0	R1120E
6417.931	6.301	932697	PROB	6.301	n/a	n/a	-999	9	[8, 3, 6]	17.0	FR1	0	R1120E
6424.232	0.016	938998	STOP	n/a	n/a	n/a	-999	9	[-999, -999, -999]	n/a	FR1	0	R1120E
6424.248	1.118	939014	DISTRACT_END	n/a	n/a	n/a	-999	9	[0, 0, 0]	n/a	FR1	0	R1120E
6425.366	1.024	940132	REC_START	n/a	n/a	n/a	-999	9	[0, 0, 0]	n/a	FR1	0	R1120E
6426.39	1.245	941156	REC_WORD	1.024	n/a	WORM	-999	9	[0, 0, 0]	n/a	FR1	0	R1120E
6427.635	6.709	942401	REC_WORD	2.269	n/a	COW	-999	9	[0, 0, 0]	n/a	FR1	0	R1120E
6434.344	2.244	949109	REC_WORD	8.978	n/a	VINE	-999	9	[0, 0, 0]	n/a	FR1	0	R1120E
6436.588	18.787	951353	REC_WORD	11.222	n/a	IVY	-999	9	[0, 0, 0]	n/a	FR1	0	R1120E
6455.375	7.08	970139	REC_END	n/a	n/a	n/a	-999	9	[0, 0, 0]	n/a	FR1	0	R1120E
6462.455	10.0	977218	COUNTDOWN_START	n/a	n/a	n/a	-999	10	[0, 0, 0]	n/a	FR1	0	R1120E
6462.455	10.428	977218	TRIAL	n/a	n/a	n/a	-999	10	[0, 0, 0]	n/a	FR1	0	R1120E
6472.883	0.007	987646	COUNTDOWN_END	n/a	n/a	n/a	-999	10	[0, 0, 0]	n/a	FR1	0	R1120E
6472.89	1.6	987653	ORIENT	n/a	n/a	n/a	-999	10	[0, 0, 0]	n/a	FR1	0	R1120E
6475.39	1.6	990152	WORD	n/a	wordpools/wordpool_EN.txt	BRICK	1	10	[0, 0, 0]	n/a	FR1	0	R1120E
6477.808	1.6	992570	WORD	n/a	wordpools/wordpool_EN.txt	WEB	2	10	[0, 0, 0]	n/a	FR1	0	R1120E
6480.208	1.6	994970	WORD	n/a	wordpools/wordpool_EN.txt	TANK	3	10	[0, 0, 0]	n/a	FR1	0	R1120E
6482.792	1.6	997554	WORD	n/a	wordpools/wordpool_EN.txt	SCHOOL	4	10	[0, 0, 0]	n/a	FR1	0	R1120E
6485.175	1.6	999937	WORD	n/a	wordpools/wordpool_EN.txt	MAP	5	10	[0, 0, 0]	n/a	FR1	0	R1120E
6487.576	1.6	1002338	WORD	n/a	wordpools/wordpool_EN.txt	KEY	6	10	[0, 0, 0]	n/a	FR1	0	R1120E
6490.044	1.6	1004805	WORD	n/a	wordpools/wordpool_EN.txt	BALL	7	10	[0, 0, 0]	n/a	FR1	0	R1120E
6492.577	1.6	1007338	WORD	n/a	wordpools/wordpool_EN.txt	SHARK	8	10	[0, 0, 0]	n/a	FR1	0	R1120E
6495.144	1.6	1009905	WORD	n/a	wordpools/wordpool_EN.txt	COIN	9	10	[0, 0, 0]	n/a	FR1	0	R1120E
6497.578	1.6	1012339	WORD	n/a	wordpools/wordpool_EN.txt	FLOOR	10	10	[0, 0, 0]	n/a	FR1	0	R1120E
6500.161	1.6	1014922	WORD	n/a	wordpools/wordpool_EN.txt	TOE	11	10	[0, 0, 0]	n/a	FR1	0	R1120E
6502.562	1.6	1017323	WORD	n/a	wordpools/wordpool_EN.txt	FAN	12	10	[0, 0, 0]	n/a	FR1	0	R1120E
6504.179	0.0	1018939	DISTRACT_START	n/a	n/a	n/a	-999	10	[0, 0, 0]	n/a	FR1	0	R1120E
6504.179	0.016	1018939	START	n/a	n/a	n/a	-999	10	[-999, -999, -999]	n/a	FR1	0	R1120E
6504.195	2.351	1018955	PROB	2.316	n/a	n/a	-999	10	[6, 4, 1]	11.0	FR1	0	R1120E
6506.546	4.067	1021306	PROB	4.037	n/a	n/a	-999	10	[1, 1, 5]	7.0	FR1	0	R1120E
6510.613	4.884	1025373	PROB	4.852	n/a	n/a	-999	10	[4, 5, 2]	11.0	FR1	0	R1120E
6515.497	3.184	1030257	PROB	3.159	n/a	n/a	-999	10	[9, 6, 1]	16.0	FR1	0	R1120E
6518.681	4.434	1033441	PROB	4.408	n/a	n/a	-999	10	[9, 4, 1]	14.0	FR1	0	R1120E
6523.115	3.429	1037874	PROB	3.429	n/a	n/a	-999	10	[8, 7, 3]	18.0	FR1	0	R1120E
6526.544	0.005	1041303	STOP	n/a	n/a	n/a	-999	10	[-999, -999, -999]	n/a	FR1	0	R1120E
6526.549	1.151	1041308	DISTRACT_END	n/a	n/a	n/a	-999	10	[0, 0, 0]	n/a	FR1	0	R1120E
6527.7	4.054	1042459	REC_START	n/a	n/a	n/a	-999	10	[0, 0, 0]	n/a	FR1	0	R1120E
6531.754	1.977	1046513	REC_WORD	4.054	n/a	BARN	-999	10	[0, 0, 0]	n/a	FR1	0	R1120E
6533.731	3.191	1048490	REC_WORD	6.031	n/a	COW	-999	10	[0, 0, 0]	n/a	FR1	0	R1120E
6536.922	6.98	1051680	REC_WORD	9.222	n/a	FLOOR	-999	10	[0, 0, 0]	n/a	FR1	0	R1120E
6543.902	12.208	1058660	REC_WORD	16.202	n/a	OWL	-999	10	[0, 0, 0]	n/a	FR1	0	R1120E
6556.11	1.205	1070867	REC_WORD	28.41	n/a	TANK	-999	10	[0, 0, 0]	n/a	FR1	0	R1120E
6557.315	0.395	1072072	REC_WORD	29.615	n/a	SCHOOL	-999	10	[0, 0, 0]	n/a	FR1	0	R1120E
6557.71	2.495	1072467	REC_END	n/a	n/a	n/a	-999	10	[0, 0, 0]	n/a	FR1	0	R1120E
6560.205	10.0	1074962	COUNTDOWN_START	n/a	n/a	n/a	-999	11	[0, 0, 0]	n/a	FR1	0	R1120E
6560.206	10.427	1074963	TRIAL	n/a	n/a	n/a	-999	11	[0, 0, 0]	n/a	FR1	0	R1120E
6570.633	0.007	1085389	COUNTDOWN_END	n/a	n/a	n/a	-999	11	[0, 0, 0]	n/a	FR1	0	R1120E
6570.64	1.6	1085396	ORIENT	n/a	n/a	n/a	-999	11	[0, 0, 0]	n/a	FR1	0	R1120E
6573.174	1.6	1087930	WORD	n/a	wordpools/wordpool_EN.txt	POND	1	11	[0, 0, 0]	n/a	FR1	0	R1120E
6575.625	1.6	1090381	WORD	n/a	wordpools/wordpool_EN.txt	HAND	2	11	[0, 0, 0]	n/a	FR1	0	R1120E
6578.125	1.6	1092881	WORD	n/a	wordpools/wordpool_EN.txt	SPONGE	3	11	[0, 0, 0]	n/a	FR1	0	R1120E
6580.675	1.6	1095430	WORD	n/a	wordpools/wordpool_EN.txt	WAVE	4	11	[0, 0, 0]	n/a	FR1	0	R1120E
6583.11	1.6	1097865	WORD	n/a	wordpools/wordpool_EN.txt	SHELL	5	11	[0, 0, 0]	n/a	FR1	0	R1120E
6585.643	1.6	1100398	WORD	n/a	wordpools/wordpool_EN.txt	EAR	6	11	[0, 0, 0]	n/a	FR1	0	R1120E
6588.193	1.6	1102948	WORD	n/a	wordpools/wordpool_EN.txt	BEACH	7	11	[0, 0, 0]	n/a	FR1	0	R1120E
6590.744	1.6	1105499	WORD	n/a	wordpools/wordpool_EN.txt	CAGE	8	11	[0, 0, 0]	n/a	FR1	0	R1120E
6593.361	1.6	1108116	WORD	n/a	wordpools/wordpool_EN.txt	SNAIL	9	11	[0, 0, 0]	n/a	FR1	0	R1120E
6595.912	1.6	1110666	WORD	n/a	wordpools/wordpool_EN.txt	NEST	10	11	[0, 0, 0]	n/a	FR1	0	R1120E
6598.412	1.6	1113166	WORD	n/a	wordpools/wordpool_EN.txt	BEAK	11	11	[0, 0, 0]	n/a	FR1	0	R1120E
6600.862	1.6	1115616	WORD	n/a	wordpools/wordpool_EN.txt	THREAD	12	11	[0, 0, 0]	n/a	FR1	0	R1120E
6602.479	0.001	1117233	DISTRACT_START	n/a	n/a	n/a	-999	11	[0, 0, 0]	n/a	FR1	0	R1120E
6602.48	0.016	1117234	START	n/a	n/a	n/a	-999	11	[-999, -999, -999]	n/a	FR1	0	R1120E
6602.496	3.234	1117250	PROB	3.198	n/a	n/a	-999	11	[8, 1, 5]	14.0	FR1	0	R1120E
6605.73	2.584	1120484	PROB	2.548	n/a	n/a	-999	11	[8, 7, 2]	17.0	FR1	0	R1120E
6608.314	3.635	1123068	PROB	3.613	n/a	n/a	-999	11	[2, 9, 6]	17.0	FR1	0	R1120E
6611.949	3.899	1126702	PROB	3.873	n/a	n/a	-999	11	[1, 2, 1]	4.0	FR1	0	R1120E
6615.848	3.185	1130601	PROB	3.159	n/a	n/a	-999	11	[1, 5, 2]	8.0	FR1	0	R1120E
6619.033	3.35	1133786	PROB	3.325	n/a	n/a	-999	11	[5, 2, 6]	13.0	FR1	0	R1120E
6622.383	3.127	1137136	PROB	3.127	n/a	n/a	-999	11	[7, 8, 6]	21.0	FR1	0	R1120E
6625.51	0.007	1140262	STOP	n/a	n/a	n/a	-999	11	[-999, -999, -999]	n/a	FR1	0	R1120E
6625.517	1.05	1140269	DISTRACT_END	n/a	n/a	n/a	-999	11	[0, 0, 0]	n/a	FR1	0	R1120E
6626.567	1.779	1141319	REC_START	n/a	n/a	n/a	-999	11	[0, 0, 0]	n/a	FR1	0	R1120E
6628.346	2.007	1143098	REC_WORD	1.779	n/a	THREAD	-999	11	[0, 0, 0]	n/a	FR1	0	R1120E
6630.353	2.387	1145105	REC_WORD	3.786	n/a	POND	-999	11	[0, 0, 0]	n/a	FR1	0	R1120E
6632.74	3.817	1147492	REC_WORD	6.173	n/a	WAVE	-999	11	[0, 0, 0]	n/a	FR1	0	R1120E
6636.557	2.432	1151309	REC_WORD	9.99	n/a	HAND	-999	11	[0, 0, 0]	n/a	FR1	0	R1120E
6638.989	17.588	1153740	REC_WORD	12.422	n/a	SNAIL	-999	11	[0, 0, 0]	n/a	FR1	0	R1120E
6656.577	8.23	1171327	REC_END	n/a	n/a	n/a	-999	11	[0, 0, 0]	n/a	FR1	0	R1120E
6664.807	10.0	1179557	COUNTDOWN_START	n/a	n/a	n/a	-999	12	[0, 0, 0]	n/a	FR1	0	R1120E
6664.807	10.428	1179557	TRIAL	n/a	n/a	n/a	-999	12	[0, 0, 0]	n/a	FR1	0	R1120E
6675.235	0.007	1189984	COUNTDOWN_END	n/a	n/a	n/a	-999	12	[0, 0, 0]	n/a	FR1	0	R1120E
6675.242	1.6	1189991	ORIENT	n/a	n/a	n/a	-999	12	[0, 0, 0]	n/a	FR1	0	R1120E
6677.809	1.6	1192558	WORD	n/a	wordpools/wordpool_EN.txt	LOCK	1	12	[0, 0, 0]	n/a	FR1	0	R1120E
6680.426	1.6	1195175	WORD	n/a	wordpools/wordpool_EN.txt	FOG	2	12	[0, 0, 0]	n/a	FR1	0	R1120E
6682.793	1.6	1197542	WORD	n/a	wordpools/wordpool_EN.txt	BRIDGE	3	12	[0, 0, 0]	n/a	FR1	0	R1120E
6685.327	1.6	1200075	WORD	n/a	wordpools/wordpool_EN.txt	ARK	4	12	[0, 0, 0]	n/a	FR1	0	R1120E
6687.694	1.6	1202442	WORD	n/a	wordpools/wordpool_EN.txt	HEART	5	12	[0, 0, 0]	n/a	FR1	0	R1120E
6690.079	1.6	1204827	WORD	n/a	wordpools/wordpool_EN.txt	STAIR	6	12	[0, 0, 0]	n/a	FR1	0	R1120E
6692.495	1.6	1207243	WORD	n/a	wordpools/wordpool_EN.txt	RAIN	7	12	[0, 0, 0]	n/a	FR1	0	R1120E
6695.03	1.6	1209778	WORD	n/a	wordpools/wordpool_EN.txt	CLOUD	8	12	[0, 0, 0]	n/a	FR1	0	R1120E
6697.496	1.6	1212244	WORD	n/a	wordpools/wordpool_EN.txt	FOAM	9	12	[0, 0, 0]	n/a	FR1	0	R1120E
6699.914	1.6	1214661	WORD	n/a	wordpools/wordpool_EN.txt	SAIL	10	12	[0, 0, 0]	n/a	FR1	0	R1120E
6702.463	1.6	1217210	WORD	n/a	wordpools/wordpool_EN.txt	CAR	11	12	[0, 0, 0]	n/a	FR1	0	R1120E
6704.864	1.6	1219611	WORD	n/a	wordpools/wordpool_EN.txt	STORM	12	12	[0, 0, 0]	n/a	FR1	0	R1120E
6706.481	0.0	1221228	DISTRACT_START	n/a	n/a	n/a	-999	12	[0, 0, 0]	n/a	FR1	0	R1120E
6706.481	0.016	1221228	START	n/a	n/a	n/a	-999	12	[-999, -999, -999]	n/a	FR1	0	R1120E
6706.497	3.469	1221244	PROB	3.444	n/a	n/a	-999	12	[2, 8, 8]	18.0	FR1	0	R1120E
6709.966	3.816	1224713	PROB	3.79	n/a	n/a	-999	12	[3, 5, 1]	9.0	FR1	0	R1120E
6713.782	3.268	1228528	PROB	3.239	n/a	n/a	-999	12	[4, 3, 4]	11.0	FR1	0	R1120E
6717.05	2.901	1231796	PROB	2.875	n/a	n/a	-999	12	[4, 5, 7]	16.0	FR1	0	R1120E
6719.951	2.699	1234697	PROB	2.668	n/a	n/a	-999	12	[3, 5, 4]	12.0	FR1	0	R1120E
6722.65	2.901	1237396	PROB	2.881	n/a	n/a	-999	12	[6, 6, 7]	18.0	FR1	0	R1120E
6725.551	3.485	1240297	PROB	3.485	n/a	n/a	-999	12	[3, 2, 5]	10.0	FR1	0	R1120E
6729.036	0.016	1243781	STOP	n/a	n/a	n/a	-999	12	[-999, -999, -999]	n/a	FR1	0	R1120E
6729.052	1.084	1243797	DISTRACT_END	n/a	n/a	n/a	-999	12	[0, 0, 0]	n/a	FR1	0	R1120E
6730.136	1.319	1244881	REC_START	n/a	n/a	n/a	-999	12	[0, 0, 0]	n/a	FR1	0	R1120E
6731.455	1.001	1246200	REC_WORD	1.319	n/a	CAR	-999	12	[0, 0, 0]	n/a	FR1	0	R1120E
6732.456	2.295	1247201	REC_WORD	2.32	n/a	STORM	-999	12	[0, 0, 0]	n/a	FR1	0	R1120E
6734.751	7.616	1249496	REC_WORD	4.615	n/a	SAIL	-999	12	[0, 0, 0]	n/a	FR1	0	R1120E
6742.367	17.778	1257112	REC_WORD	12.231	n/a	STEER	-999	12	[0, 0, 0]	n/a	FR1	0	R1120E
6760.145	2.196	1274888	REC_END	n/a	n/a	n/a	-999	12	[0, 0, 0]	n/a	FR1	0	R1120E
6762.341	0.0	1277084	TRIAL	n/a	n/a	n/a	-999	13	[0, 0, 0]	n/a	FR1	0	R1120E
6762.341	10.0	1277084	COUNTDOWN_START	n/a	n/a	n/a	-999	13	[0, 0, 0]	n/a	FR1	0	R1120E
6772.769	0.007	1287511	COUNTDOWN_END	n/a	n/a	n/a	-999	13	[0, 0, 0]	n/a	FR1	0	R1120E
6772.776	1.6	1287518	ORIENT	n/a	n/a	n/a	-999	13	[0, 0, 0]	n/a	FR1	0	R1120E
6775.193	1.6	1289935	WORD	n/a	wordpools/wordpool_EN.txt	RICE	1	13	[0, 0, 0]	n/a	FR1	0	R1120E
6777.66	1.6	1292402	WORD	n/a	wordpools/wordpool_EN.txt	SOAP	2	13	[0, 0, 0]	n/a	FR1	0	R1120E
6780.144	1.6	1294886	WORD	n/a	wordpools/wordpool_EN.txt	SEA	3	13	[0, 0, 0]	n/a	FR1	0	R1120E
6782.677	1.6	1297419	WORD	n/a	wordpools/wordpool_EN.txt	PEACH	4	13	[0, 0, 0]	n/a	FR1	0	R1120E
6785.244	1.6	1299986	WORD	n/a	wordpools/wordpool_EN.txt	SKY	5	13	[0, 0, 0]	n/a	FR1	0	R1120E
6787.645	1.6	1302387	WORD	n/a	wordpools/wordpool_EN.txt	FARM	6	13	[0, 0, 0]	n/a	FR1	0	R1120E
6790.046	1.6	1304787	WORD	n/a	wordpools/wordpool_EN.txt	DART	7	13	[0, 0, 0]	n/a	FR1	0	R1120E
6792.429	1.6	1307170	WORD	n/a	wordpools/wordpool_EN.txt	SHEEP	8	13	[0, 0, 0]	n/a	FR1	0	R1120E
6794.997	1.6	1309738	WORD	n/a	wordpools/wordpool_EN.txt	LAND	9	13	[0, 0, 0]	n/a	FR1	0	R1120E
6797.463	1.6	1312204	WORD	n/a	wordpools/wordpool_EN.txt	SHIELD	10	13	[0, 0, 0]	n/a	FR1	0	R1120E
6799.897	1.6	1314638	WORD	n/a	wordpools/wordpool_EN.txt	CHIEF	11	13	[0, 0, 0]	n/a	FR1	0	R1120E
6802.414	1.6	1317155	WORD	n/a	wordpools/wordpool_EN.txt	SHIP	12	13	[0, 0, 0]	n/a	FR1	0	R1120E
6804.015	0.001	1318755	DISTRACT_START	n/a	n/a	n/a	-999	13	[0, 0, 0]	n/a	FR1	0	R1120E
6804.016	0.016	1318756	START	n/a	n/a	n/a	-999	13	[-999, -999, -999]	n/a	FR1	0	R1120E
6804.032	3.166	1318772	PROB	3.143	n/a	n/a	-999	13	[4, 8, 5]	17.0	FR1	0	R1120E
6807.198	2.701	1321938	PROB	2.665	n/a	n/a	-999	13	[1, 9, 3]	13.0	FR1	0	R1120E
6809.899	3.934	1324639	PROB	3.9	n/a	n/a	-999	13	[2, 4, 6]	12.0	FR1	0	R1120E
6813.833	4.102	1328573	PROB	4.071	n/a	n/a	-999	13	[4, 4, 9]	17.0	FR1	0	R1120E
6817.935	2.932	1332674	PROB	2.903	n/a	n/a	-999	13	[5, 2, 3]	10.0	FR1	0	R1120E
6820.867	3.579	1335606	PROB	3.579	n/a	n/a	-999	13	[7, 6, 3]	16.0	FR1	0	R1120E
6824.446	0.005	1339185	STOP	n/a	n/a	n/a	-999	13	[-999, -999, -999]	n/a	FR1	0	R1120E
6824.451	1.168	1339190	DISTRACT_END	n/a	n/a	n/a	-999	13	[0, 0, 0]	n/a	FR1	0	R1120E
6825.619	1.551	1340358	REC_START	n/a	n/a	n/a	-999	13	[0, 0, 0]	n/a	FR1	0	R1120E
6827.17	1.754	1341909	REC_WORD	1.551	n/a	CHIEF	-999	13	[0, 0, 0]	n/a	FR1	0	R1120E
6828.924	6.419	1343663	REC_WORD	3.305	n/a	SHIP	-999	13	[0, 0, 0]	n/a	FR1	0	R1120E
6835.343	5.531	1350081	REC_WORD	9.724	n/a	COW	-999	13	[0, 0, 0]	n/a	FR1	0	R1120E
6840.874	14.754	1355612	REC_WORD	15.255	n/a	STAIR	-999	13	[0, 0, 0]	n/a	FR1	0	R1120E
6855.628	57.889	1370365	REC_END	n/a	n/a	n/a	-999	13	[0, 0, 0]	n/a	FR1	0	R1120E
6913.517	0.0	1428250	TRIAL	n/a	n/a	n/a	-999	14	[0, 0, 0]	n/a	FR1	0	R1120E
6913.517	10.0	1428250	COUNTDOWN_START	n/a	n/a	n/a	-999	14	[0, 0, 0]	n/a	FR1	0	R1120E
6923.945	0.008	1438677	COUNTDOWN_END	n/a	n/a	n/a	-999	14	[0, 0, 0]	n/a	FR1	0	R1120E
6923.953	1.6	1438685	ORIENT	n/a	n/a	n/a	-999	14	[0, 0, 0]	n/a	FR1	0	R1120E
6926.419	1.6	1441151	WORD	n/a	wordpools/wordpool_EN.txt	YARD	1	14	[0, 0, 0]	n/a	FR1	0	R1120E
6928.82	1.6	1443552	WORD	n/a	wordpools/wordpool_EN.txt	HORN	2	14	[0, 0, 0]	n/a	FR1	0	R1120E
6931.354	1.6	1446086	WORD	n/a	wordpools/wordpool_EN.txt	MOOSE	3	14	[0, 0, 0]	n/a	FR1	0	R1120E
6933.787	1.6	1448519	WORD	n/a	wordpools/wordpool_EN.txt	GUARD	4	14	[0, 0, 0]	n/a	FR1	0	R1120E
6936.404	1.6	1451136	WORD	n/a	wordpools/wordpool_EN.txt	SPOON	5	14	[0, 0, 0]	n/a	FR1	0	R1120E
6938.888	1.6	1453619	WORD	n/a	wordpools/wordpool_EN.txt	PALM	6	14	[0, 0, 0]	n/a	FR1	0	R1120E
6941.322	1.6	1456053	WORD	n/a	wordpools/wordpool_EN.txt	GOAT	7	14	[0, 0, 0]	n/a	FR1	0	R1120E
6943.839	1.6	1458570	WORD	n/a	wordpools/wordpool_EN.txt	SINK	8	14	[0, 0, 0]	n/a	FR1	0	R1120E
6946.273	1.6	1461004	WORD	n/a	wordpools/wordpool_EN.txt	HAT	9	14	[0, 0, 0]	n/a	FR1	0	R1120E
6948.673	1.6	1463404	WORD	n/a	wordpools/wordpool_EN.txt	SMILE	10	14	[0, 0, 0]	n/a	FR1	0	R1120E
6951.29	1.6	1466021	WORD	n/a	wordpools/wordpool_EN.txt	HOLE	11	14	[0, 0, 0]	n/a	FR1	0	R1120E
6953.774	1.6	1468504	WORD	n/a	wordpools/wordpool_EN.txt	LIP	12	14	[0, 0, 0]	n/a	FR1	0	R1120E
6955.391	0.001	1470121	DISTRACT_START	n/a	n/a	n/a	-999	14	[0, 0, 0]	n/a	FR1	0	R1120E
6955.392	0.016	1470122	START	n/a	n/a	n/a	-999	14	[-999, -999, -999]	n/a	FR1	0	R1120E
6955.408	4.267	1470138	PROB	4.242	n/a	n/a	-999	14	[1, 6, 9]	16.0	FR1	0	R1120E
6959.675	2.667	1474405	PROB	2.639	n/a	n/a	-999	14	[3, 2, 2]	7.0	FR1	0	R1120E
6962.342	3.702	1477072	PROB	3.668	n/a	n/a	-999	14	[5, 4, 6]	15.0	FR1	0	R1120E
6966.044	2.699	1480774	PROB	2.677	n/a	n/a	-999	14	[1, 1, 6]	8.0	FR1	0	R1120E
6968.743	2.601	1483472	PROB	2.57	n/a	n/a	-999	14	[3, 7, 8]	18.0	FR1	0	R1120E
6971.344	2.718	1486073	PROB	2.683	n/a	n/a	-999	14	[2, 6, 3]	11.0	FR1	0	R1120E
6974.062	2.275	1488791	PROB	2.275	n/a	n/a	-999	14	[6, 5, 7]	18.0	FR1	0	R1120E
6976.337	0.008	1491066	STOP	n/a	n/a	n/a	-999	14	[-999, -999, -999]	n/a	FR1	0	R1120E
6976.345	1.234	1491074	DISTRACT_END	n/a	n/a	n/a	-999	14	[0, 0, 0]	n/a	FR1	0	R1120E
6977.579	1.813	1492308	REC_START	n/a	n/a	n/a	-999	14	[0, 0, 0]	n/a	FR1	0	R1120E
6979.392	2.844	1494121	REC_WORD	1.813	n/a	YARD	-999	14	[0, 0, 0]	n/a	FR1	0	R1120E
6982.236	4.691	1496964	REC_WORD	4.657	n/a	SHEEP	-999	14	[0, 0, 0]	n/a	FR1	0	R1120E
6986.927	0.675	1501655	REC_WORD	9.348	n/a	PALM	-999	14	[0, 0, 0]	n/a	FR1	0	R1120E
6987.602	5.541	1502330	REC_WORD	10.023	n/a	HORN	-999	14	[0, 0, 0]	n/a	FR1	0	R1120E
6993.143	1.217	1507871	REC_WORD	15.564	n/a	HOLE	-999	14	[0, 0, 0]	n/a	FR1	0	R1120E
6994.36	1.064	1509088	REC_WORD	16.781	n/a	SMILE	-999	14	[0, 0, 0]	n/a	FR1	0	R1120E
6995.424	12.164	1510152	REC_WORD	17.845	n/a	LIP	-999	14	[0, 0, 0]	n/a	FR1	0	R1120E
7007.588	4.246	1522315	REC_END	n/a	n/a	n/a	-999	14	[0, 0, 0]	n/a	FR1	0	R1120E
7011.834	0.0	1526560	TRIAL	n/a	n/a	n/a	-999	15	[0, 0, 0]	n/a	FR1	0	R1120E
7011.834	10.0	1526560	COUNTDOWN_START	n/a	n/a	n/a	-999	15	[0, 0, 0]	n/a	FR1	0	R1120E
7022.262	0.007	1536988	COUNTDOWN_END	n/a	n/a	n/a	-999	15	[0, 0, 0]	n/a	FR1	0	R1120E
7022.269	1.6	1536995	ORIENT	n/a	n/a	n/a	-999	15	[0, 0, 0]	n/a	FR1	0	R1120E
7024.886	1.6	1539612	WORD	n/a	wordpools/wordpool_EN.txt	TRAY	1	15	[0, 0, 0]	n/a	FR1	0	R1120E
7027.504	1.6	1542229	WORD	n/a	wordpools/wordpool_EN.txt	PET	2	15	[0, 0, 0]	n/a	FR1	0	R1120E
7030.121	1.6	1544846	WORD	n/a	wordpools/wordpool_EN.txt	CAKE	3	15	[0, 0, 0]	n/a	FR1	0	R1120E
7032.655	1.6	1547380	WORD	n/a	wordpools/wordpool_EN.txt	FUDGE	4	15	[0, 0, 0]	n/a	FR1	0	R1120E
7035.138	1.6	1549863	WORD	n/a	wordpools/wordpool_EN.txt	TEETH	5	15	[0, 0, 0]	n/a	FR1	0	R1120E
7037.622	1.6	1552347	WORD	n/a	wordpools/wordpool_EN.txt	GEESE	6	15	[0, 0, 0]	n/a	FR1	0	R1120E
7040.239	1.6	1554964	WORD	n/a	wordpools/wordpool_EN.txt	JUICE	7	15	[0, 0, 0]	n/a	FR1	0	R1120E
7042.756	1.6	1557480	WORD	n/a	wordpools/wordpool_EN.txt	MOUSE	8	15	[0, 0, 0]	n/a	FR1	0	R1120E
7045.157	1.6	1559881	WORD	n/a	wordpools/wordpool_EN.txt	EGG	9	15	[0, 0, 0]	n/a	FR1	0	R1120E
7047.607	1.6	1562331	WORD	n/a	wordpools/wordpool_EN.txt	FOOD	10	15	[0, 0, 0]	n/a	FR1	0	R1120E
7050.158	1.6	1564882	WORD	n/a	wordpools/wordpool_EN.txt	ANT	11	15	[0, 0, 0]	n/a	FR1	0	R1120E
7052.608	1.6	1567332	WORD	n/a	wordpools/wordpool_EN.txt	DUCK	12	15	[0, 0, 0]	n/a	FR1	0	R1120E
7054.225	0.001	1568949	DISTRACT_START	n/a	n/a	n/a	-999	15	[0, 0, 0]	n/a	FR1	0	R1120E
7054.226	0.016	1568950	START	n/a	n/a	n/a	-999	15	[-999, -999, -999]	n/a	FR1	0	R1120E
7054.242	3.868	1568966	PROB	3.833	n/a	n/a	-999	15	[8, 1, 4]	13.0	FR1	0	R1120E
7058.11	3.016	1572833	PROB	2.989	n/a	n/a	-999	15	[1, 3, 2]	6.0	FR1	0	R1120E
7061.126	4.118	1575849	PROB	4.084	n/a	n/a	-999	15	[7, 2, 6]	15.0	FR1	0	R1120E
7065.244	3.45	1579967	PROB	3.43	n/a	n/a	-999	15	[9, 5, 2]	16.0	FR1	0	R1120E
7068.694	2.418	1583417	PROB	2.397	n/a	n/a	-999	15	[2, 8, 3]	13.0	FR1	0	R1120E
7071.112	3.851	1585835	PROB	3.851	n/a	n/a	-999	15	[4, 7, 9]	20.0	FR1	0	R1120E
7074.963	0.017	1589685	STOP	n/a	n/a	n/a	-999	15	[-999, -999, -999]	n/a	FR1	0	R1120E
7074.98	1.216	1589702	DISTRACT_END	n/a	n/a	n/a	-999	15	[0, 0, 0]	n/a	FR1	0	R1120E
7076.196	0.855	1590918	REC_START	n/a	n/a	n/a	-999	15	[0, 0, 0]	n/a	FR1	0	R1120E
7077.051	1.569	1591773	REC_WORD	0.855	n/a	FOOD	-999	15	[0, 0, 0]	n/a	FR1	0	R1120E
7078.62	1.633	1593342	REC_WORD	2.424	n/a	DUCK	-999	15	[0, 0, 0]	n/a	FR1	0	R1120E
7080.253	4.066	1594975	REC_WORD	4.057	n/a	MOOSE	-999	15	[0, 0, 0]	n/a	FR1	0	R1120E
7084.319	9.216	1599041	REC_WORD	8.123	n/a	TRAY	-999	15	[0, 0, 0]	n/a	FR1	0	R1120E
7093.535	10.603	1608256	REC_WORD	17.339	n/a	FUDGE	-999	15	[0, 0, 0]	n/a	FR1	0	R1120E
7104.138	2.067	1618858	REC_WORD	27.942	n/a	CAKE	-999	15	[0, 0, 0]	n/a	FR1	0	R1120E
7106.205	2.646	1620925	REC_END	n/a	n/a	n/a	-999	15	[0, 0, 0]	n/a	FR1	0	R1120E
7108.851	10.0	1623571	COUNTDOWN_START	n/a	n/a	n/a	-999	16	[0, 0, 0]	n/a	FR1	0	R1120E
7108.851	10.428	1623571	TRIAL	n/a	n/a	n/a	-999	16	[0, 0, 0]	n/a	FR1	0	R1120E
7119.279	0.007	1633998	COUNTDOWN_END	n/a	n/a	n/a	-999	16	[0, 0, 0]	n/a	FR1	0	R1120E
7119.286	1.6	1634005	ORIENT	n/a	n/a	n/a	-999	16	[0, 0, 0]	n/a	FR1	0	R1120E
7121.77	1.6	1636489	WORD	n/a	wordpools/wordpool_EN.txt	CAVE	1	16	[0, 0, 0]	n/a	FR1	0	R1120E
7124.354	1.6	1639073	WORD	n/a	wordpools/wordpool_EN.txt	STEAM	2	16	[0, 0, 0]	n/a	FR1	0	R1120E
7126.871	1.6	1641590	WORD	n/a	wordpools/wordpool_EN.txt	CAPE	3	16	[0, 0, 0]	n/a	FR1	0	R1120E
7129.271	1.6	1643990	WORD	n/a	wordpools/wordpool_EN.txt	SALT	4	16	[0, 0, 0]	n/a	FR1	0	R1120E
7131.705	1.6	1646423	WORD	n/a	wordpools/wordpool_EN.txt	BOMB	5	16	[0, 0, 0]	n/a	FR1	0	R1120E
7134.139	1.6	1648857	WORD	n/a	wordpools/wordpool_EN.txt	MOUTH	6	16	[0, 0, 0]	n/a	FR1	0	R1120E
7136.623	1.6	1651341	WORD	n/a	wordpools/wordpool_EN.txt	CLAY	7	16	[0, 0, 0]	n/a	FR1	0	R1120E
7139.091	1.6	1653809	WORD	n/a	wordpools/wordpool_EN.txt	PLANE	8	16	[0, 0, 0]	n/a	FR1	0	R1120E
7141.674	1.6	1656392	WORD	n/a	wordpools/wordpool_EN.txt	ICE	9	16	[0, 0, 0]	n/a	FR1	0	R1120E
7144.207	1.6	1658925	WORD	n/a	wordpools/wordpool_EN.txt	CORD	10	16	[0, 0, 0]	n/a	FR1	0	R1120E
7146.691	1.6	1661408	WORD	n/a	wordpools/wordpool_EN.txt	CUBE	11	16	[0, 0, 0]	n/a	FR1	0	R1120E
7149.158	1.6	1663875	WORD	n/a	wordpools/wordpool_EN.txt	SMOKE	12	16	[0, 0, 0]	n/a	FR1	0	R1120E
7150.775	0.001	1665492	DISTRACT_START	n/a	n/a	n/a	-999	16	[0, 0, 0]	n/a	FR1	0	R1120E
7150.776	0.016	1665493	START	n/a	n/a	n/a	-999	16	[-999, -999, -999]	n/a	FR1	0	R1120E
7150.792	3.55	1665509	PROB	3.521	n/a	n/a	-999	16	[1, 6, 7]	14.0	FR1	0	R1120E
7154.342	2.702	1669059	PROB	2.669	n/a	n/a	-999	16	[8, 8, 4]	20.0	FR1	0	R1120E
7157.044	4.366	1671761	PROB	4.342	n/a	n/a	-999	16	[8, 4, 8]	20.0	FR1	0	R1120E
7161.41	2.484	1676126	PROB	2.456	n/a	n/a	-999	16	[6, 4, 5]	15.0	FR1	0	R1120E
7163.894	4.618	1678610	PROB	4.596	n/a	n/a	-999	16	[2, 7, 4]	13.0	FR1	0	R1120E
7168.512	2.929	1683228	PROB	2.929	n/a	n/a	-999	16	[5, 1, 9]	15.0	FR1	0	R1120E
7171.441	0.004	1686157	STOP	n/a	n/a	n/a	-999	16	[-999, -999, -999]	n/a	FR1	0	R1120E
7171.445	1.118	1686161	DISTRACT_END	n/a	n/a	n/a	-999	16	[0, 0, 0]	n/a	FR1	0	R1120E
7172.563	0.629	1687279	REC_START	n/a	n/a	n/a	-999	16	[0, 0, 0]	n/a	FR1	0	R1120E
7173.192	1.113	1687908	REC_WORD	0.629	n/a	ICE	-999	16	[0, 0, 0]	n/a	FR1	0	R1120E
7174.305	1.011	1689021	REC_WORD	1.742	n/a	CUBE	-999	16	[0, 0, 0]	n/a	FR1	0	R1120E
7175.316	1.299	1690032	REC_WORD	2.753	n/a	SMOKE	-999	16	[0, 0, 0]	n/a	FR1	0	R1120E
7176.615	3.368	1691330	REC_WORD	4.052	n/a	CAVE	-999	16	[0, 0, 0]	n/a	FR1	0	R1120E
7179.983	8.184	1694698	REC_WORD	7.42	n/a	CAPE	-999	16	[0, 0, 0]	n/a	FR1	0	R1120E
7188.167	14.405	1702882	REC_WORD	15.604	n/a	ICE	-999	16	[0, 0, 0]	n/a	FR1	0	R1120E
7202.572	2.397	1717286	REC_END	n/a	n/a	n/a	-999	16	[0, 0, 0]	n/a	FR1	0	R1120E
7204.969	0.0	1719683	TRIAL	n/a	n/a	n/a	-999	17	[0, 0, 0]	n/a	FR1	0	R1120E
7204.969	10.0	1719683	COUNTDOWN_START	n/a	n/a	n/a	-999	17	[0, 0, 0]	n/a	FR1	0	R1120E
7215.397	0.006	1730110	COUNTDOWN_END	n/a	n/a	n/a	-999	17	[0, 0, 0]	n/a	FR1	0	R1120E
7215.403	1.6	1730116	ORIENT	n/a	n/a	n/a	-999	17	[0, 0, 0]	n/a	FR1	0	R1120E
7217.837	1.6	1732550	WORD	n/a	wordpools/wordpool_EN.txt	BOARD	1	17	[0, 0, 0]	n/a	FR1	0	R1120E
7220.421	1.6	1735134	WORD	n/a	wordpools/wordpool_EN.txt	ARM	2	17	[0, 0, 0]	n/a	FR1	0	R1120E
7222.939	1.6	1737651	WORD	n/a	wordpools/wordpool_EN.txt	HOOK	3	17	[0, 0, 0]	n/a	FR1	0	R1120E
7225.522	1.6	1740234	WORD	n/a	wordpools/wordpool_EN.txt	VEST	4	17	[0, 0, 0]	n/a	FR1	0	R1120E
7228.139	1.6	1742851	WORD	n/a	wordpools/wordpool_EN.txt	SOCK	5	17	[0, 0, 0]	n/a	FR1	0	R1120E
7230.606	1.6	1745318	WORD	n/a	wordpools/wordpool_EN.txt	TOAST	6	17	[0, 0, 0]	n/a	FR1	0	R1120E
7232.991	1.6	1747703	WORD	n/a	wordpools/wordpool_EN.txt	MAT	7	17	[0, 0, 0]	n/a	FR1	0	R1120E
7235.373	1.6	1750085	WORD	n/a	wordpools/wordpool_EN.txt	NAIL	8	17	[0, 0, 0]	n/a	FR1	0	R1120E
7237.89	1.6	1752601	WORD	n/a	wordpools/wordpool_EN.txt	STOVE	9	17	[0, 0, 0]	n/a	FR1	0	R1120E
7240.341	1.6	1755052	WORD	n/a	wordpools/wordpool_EN.txt	ROOM	10	17	[0, 0, 0]	n/a	FR1	0	R1120E
7242.891	1.6	1757602	WORD	n/a	wordpools/wordpool_EN.txt	HOOF	11	17	[0, 0, 0]	n/a	FR1	0	R1120E
7245.425	1.6	1760136	WORD	n/a	wordpools/wordpool_EN.txt	BRUSH	12	17	[0, 0, 0]	n/a	FR1	0	R1120E
7247.026	0.001	1761737	DISTRACT_START	n/a	n/a	n/a	-999	17	[0, 0, 0]	n/a	FR1	0	R1120E
7247.027	0.016	1761738	START	n/a	n/a	n/a	-999	17	[-999, -999, -999]	n/a	FR1	0	R1120E
7247.043	5.4	1761754	PROB	5.38	n/a	n/a	-999	17	[8, 6, 7]	21.0	FR1	0	R1120E
7252.443	2.551	1767153	PROB	2.516	n/a	n/a	-999	17	[5, 1, 6]	12.0	FR1	0	R1120E
7254.994	3.817	1769704	PROB	3.789	n/a	n/a	-999	17	[6, 8, 6]	20.0	FR1	0	R1120E
7258.811	4.4	1773521	PROB	4.364	n/a	n/a	-999	17	[2, 4, 3]	9.0	FR1	0	R1120E
7263.211	3.351	1777921	PROB	3.323	n/a	n/a	-999	17	[2, 5, 1]	8.0	FR1	0	R1120E
7266.562	2.9	1781271	PROB	2.9	n/a	n/a	-999	17	[7, 1, 1]	9.0	FR1	0	R1120E
7269.462	0.017	1784171	STOP	n/a	n/a	n/a	-999	17	[-999, -999, -999]	n/a	FR1	0	R1120E
7269.479	1.184	1784188	DISTRACT_END	n/a	n/a	n/a	-999	17	[0, 0, 0]	n/a	FR1	0	R1120E
7270.663	0.591	1785372	REC_START	n/a	n/a	n/a	-999	17	[0, 0, 0]	n/a	FR1	0	R1120E
7271.254	1.476	1785963	REC_WORD	0.591	n/a	HOOF	-999	17	[0, 0, 0]	n/a	FR1	0	R1120E
7272.73	4.754	1787439	REC_WORD	2.067	n/a	BRUSH	-999	17	[0, 0, 0]	n/a	FR1	0	R1120E
7277.484	3.429	1792193	REC_WORD	6.821	n/a	NAIL	-999	17	[0, 0, 0]	n/a	FR1	0	R1120E
7280.913	9.054	1795621	REC_WORD	10.25	n/a	MAT	-999	17	[0, 0, 0]	n/a	FR1	0	R1120E
7289.967	1.545	1804675	REC_WORD	19.304	n/a	STOVE	-999	17	[0, 0, 0]	n/a	FR1	0	R1120E
7291.512	9.166	1806220	REC_WORD	20.849	n/a	ROOM	-999	17	[0, 0, 0]	n/a	FR1	0	R1120E
7300.678	2.375	1815385	REC_END	n/a	n/a	n/a	-999	17	[0, 0, 0]	n/a	FR1	0	R1120E
7303.053	10.0	1817760	COUNTDOWN_START	n/a	n/a	n/a	-999	18	[0, 0, 0]	n/a	FR1	0	R1120E
7303.053	10.428	1817760	TRIAL	n/a	n/a	n/a	-999	18	[0, 0, 0]	n/a	FR1	0	R1120E
7313.481	0.006	1828187	COUNTDOWN_END	n/a	n/a	n/a	-999	18	[0, 0, 0]	n/a	FR1	0	R1120E
7313.487	1.6	1828193	ORIENT	n/a	n/a	n/a	-999	18	[0, 0, 0]	n/a	FR1	0	R1120E
7315.938	1.6	1830644	WORD	n/a	wordpools/wordpool_EN.txt	TRUCK	1	18	[0, 0, 0]	n/a	FR1	0	R1120E
7318.455	1.6	1833161	WORD	n/a	wordpools/wordpool_EN.txt	TIE	2	18	[0, 0, 0]	n/a	FR1	0	R1120E
7320.906	1.6	1835612	WORD	n/a	wordpools/wordpool_EN.txt	WEED	3	18	[0, 0, 0]	n/a	FR1	0	R1120E
7323.439	1.6	1838145	WORD	n/a	wordpools/wordpool_EN.txt	HOUSE	4	18	[0, 0, 0]	n/a	FR1	0	R1120E
7325.839	1.6	1840544	WORD	n/a	wordpools/wordpool_EN.txt	CHEEK	5	18	[0, 0, 0]	n/a	FR1	0	R1120E
7328.373	1.6	1843078	WORD	n/a	wordpools/wordpool_EN.txt	CLOCK	6	18	[0, 0, 0]	n/a	FR1	0	R1120E
7330.908	1.6	1845613	WORD	n/a	wordpools/wordpool_EN.txt	DOCK	7	18	[0, 0, 0]	n/a	FR1	0	R1120E
7333.307	1.6	1848012	WORD	n/a	wordpools/wordpool_EN.txt	BENCH	8	18	[0, 0, 0]	n/a	FR1	0	R1120E
7335.857	1.6	1850562	WORD	n/a	wordpools/wordpool_EN.txt	LAWN	9	18	[0, 0, 0]	n/a	FR1	0	R1120E
7338.358	1.6	1853063	WORD	n/a	wordpools/wordpool_EN.txt	BOX	10	18	[0, 0, 0]	n/a	FR1	0	R1120E
7340.875	1.6	1855579	WORD	n/a	wordpools/wordpool_EN.txt	ROAD	11	18	[0, 0, 0]	n/a	FR1	0	R1120E
7343.476	1.6	1858180	WORD	n/a	wordpools/wordpool_EN.txt	PANTS	12	18	[0, 0, 0]	n/a	FR1	0	R1120E
7345.094	0.0	1859798	DISTRACT_START	n/a	n/a	n/a	-999	18	[0, 0, 0]	n/a	FR1	0	R1120E
7345.094	0.016	1859798	START	n/a	n/a	n/a	-999	18	[-999, -999, -999]	n/a	FR1	0	R1120E
7345.11	2.733	1859814	PROB	2.711	n/a	n/a	-999	18	[1, 2, 1]	4.0	FR1	0	R1120E
7347.843	4.901	1862547	PROB	4.874	n/a	n/a	-999	18	[9, 6, 9]	24.0	FR1	0	R1120E
7352.744	2.834	1867448	PROB	2.805	n/a	n/a	-999	18	[9, 6, 1]	16.0	FR1	0	R1120E
7355.578	3.117	1870281	PROB	3.09	n/a	n/a	-999	18	[2, 2, 4]	8.0	FR1	0	R1120E
7358.695	2.817	1873398	PROB	2.79	n/a	n/a	-999	18	[6, 1, 1]	8.0	FR1	0	R1120E
7361.512	4.117	1876215	PROB	4.117	n/a	n/a	-999	18	[2, 4, 2]	8.0	FR1	0	R1120E
7365.629	0.017	1880332	STOP	n/a	n/a	n/a	-999	18	[-999, -999, -999]	n/a	FR1	0	R1120E
7365.646	1.134	1880349	DISTRACT_END	n/a	n/a	n/a	-999	18	[0, 0, 0]	n/a	FR1	0	R1120E
7366.78	1.183	1881483	REC_START	n/a	n/a	n/a	-999	18	[0, 0, 0]	n/a	FR1	0	R1120E
7367.963	2.117	1882666	REC_WORD	1.183	n/a	LAWN	-999	18	[0, 0, 0]	n/a	FR1	0	R1120E
7370.08	2.367	1884782	REC_WORD	3.3	n/a	BOX	-999	18	[0, 0, 0]	n/a	FR1	0	R1120E
7372.447	4.099	1887149	REC_WORD	5.667	n/a	DOCK	-999	18	[0, 0, 0]	n/a	FR1	0	R1120E
7376.546	7.746	1891248	REC_WORD	9.766	n/a	PANTS	-999	18	[0, 0, 0]	n/a	FR1	0	R1120E
7384.292	1.64	1898994	REC_WORD	17.512	n/a	POND	-999	18	[0, 0, 0]	n/a	FR1	0	R1120E
7385.932	9.045	1900633	REC_WORD	19.152	n/a	LAKE	-999	18	[0, 0, 0]	n/a	FR1	0	R1120E
7394.977	0.882	1909678	REC_WORD	28.197	n/a	SKI	-999	18	[0, 0, 0]	n/a	FR1	0	R1120E
7395.859	0.931	1910560	REC_WORD	29.079	n/a	SKY	-999	18	[0, 0, 0]	n/a	FR1	0	R1120E
7396.79	2.595	1911491	REC_END	n/a	n/a	n/a	-999	18	[0, 0, 0]	n/a	FR1	0	R1120E
7399.385	10.0	1914086	COUNTDOWN_START	n/a	n/a	n/a	-999	19	[0, 0, 0]	n/a	FR1	0	R1120E
7399.386	10.427	1914087	TRIAL	n/a	n/a	n/a	-999	19	[0, 0, 0]	n/a	FR1	0	R1120E
7409.813	0.008	1924513	COUNTDOWN_END	n/a	n/a	n/a	-999	19	[0, 0, 0]	n/a	FR1	0	R1120E
7409.821	1.6	1924521	ORIENT	n/a	n/a	n/a	-999	19	[0, 0, 0]	n/a	FR1	0	R1120E
7412.288	1.6	1926988	WORD	n/a	wordpools/wordpool_EN.txt	SQUARE	1	19	[0, 0, 0]	n/a	FR1	0	R1120E
7414.755	1.6	1929455	WORD	n/a	wordpools/wordpool_EN.txt	BEAN	2	19	[0, 0, 0]	n/a	FR1	0	R1120E
7417.305	1.6	1932004	WORD	n/a	wordpools/wordpool_EN.txt	SOUP	3	19	[0, 0, 0]	n/a	FR1	0	R1120E
7419.923	1.6	1934622	WORD	n/a	wordpools/wordpool_EN.txt	GLASS	4	19	[0, 0, 0]	n/a	FR1	0	R1120E
7422.322	1.6	1937021	WORD	n/a	wordpools/wordpool_EN.txt	RUG	5	19	[0, 0, 0]	n/a	FR1	0	R1120E
7424.69	1.6	1939389	WORD	n/a	wordpools/wordpool_EN.txt	STREET	6	19	[0, 0, 0]	n/a	FR1	0	R1120E
7427.14	1.6	1941839	WORD	n/a	wordpools/wordpool_EN.txt	BOY	7	19	[0, 0, 0]	n/a	FR1	0	R1120E
7429.691	1.6	1944390	WORD	n/a	wordpools/wordpool_EN.txt	DITCH	8	19	[0, 0, 0]	n/a	FR1	0	R1120E
7432.308	1.6	1947006	WORD	n/a	wordpools/wordpool_EN.txt	STRING	9	19	[0, 0, 0]	n/a	FR1	0	R1120E
7434.708	1.6	1949406	WORD	n/a	wordpools/wordpool_EN.txt	TEA	10	19	[0, 0, 0]	n/a	FR1	0	R1120E
7437.259	1.6	1951957	WORD	n/a	wordpools/wordpool_EN.txt	DIME	11	19	[0, 0, 0]	n/a	FR1	0	R1120E
7439.742	1.6	1954440	WORD	n/a	wordpools/wordpool_EN.txt	KITE	12	19	[0, 0, 0]	n/a	FR1	0	R1120E
7441.359	0.001	1956057	DISTRACT_START	n/a	n/a	n/a	-999	19	[0, 0, 0]	n/a	FR1	0	R1120E
7441.36	0.016	1956058	START	n/a	n/a	n/a	-999	19	[-999, -999, -999]	n/a	FR1	0	R1120E
7441.376	3.201	1956074	PROB	3.174	n/a	n/a	-999	19	[5, 2, 5]	12.0	FR1	0	R1120E
7444.577	1.867	1959275	PROB	1.836	n/a	n/a	-999	19	[3, 3, 3]	9.0	FR1	0	R1120E
7446.444	3.317	1961141	PROB	3.289	n/a	n/a	-999	19	[2, 6, 2]	10.0	FR1	0	R1120E
7449.761	2.351	1964458	PROB	2.317	n/a	n/a	-999	19	[1, 7, 2]	10.0	FR1	0	R1120E
7452.112	2.5	1966809	PROB	2.477	n/a	n/a	-999	19	[5, 6, 2]	13.0	FR1	0	R1120E
7454.612	2.55	1969309	PROB	2.521	n/a	n/a	-999	19	[5, 7, 3]	15.0	FR1	0	R1120E
7457.162	2.534	1971859	PROB	2.507	n/a	n/a	-999	19	[2, 5, 3]	10.0	FR1	0	R1120E
7459.696	2.813	1974392	PROB	2.813	n/a	n/a	-999	19	[7, 4, 5]	16.0	FR1	0	R1120E
7462.509	0.004	1977205	STOP	n/a	n/a	n/a	-999	19	[-999, -999, -999]	n/a	FR1	0	R1120E
7462.513	1.034	1977209	DISTRACT_END	n/a	n/a	n/a	-999	19	[0, 0, 0]	n/a	FR1	0	R1120E
7463.547	0.563	1978243	REC_START	n/a	n/a	n/a	-999	19	[0, 0, 0]	n/a	FR1	0	R1120E
7464.11	1.529	1978806	REC_WORD	0.563	n/a	DIME	-999	19	[0, 0, 0]	n/a	FR1	0	R1120E
7465.639	3.746	1980335	REC_WORD	2.092	n/a	KITE	-999	19	[0, 0, 0]	n/a	FR1	0	R1120E
7469.385	3.005	1984081	REC_WORD	5.838	n/a	SQUARE	-999	19	[0, 0, 0]	n/a	FR1	0	R1120E
7472.39	21.172	1987086	REC_WORD	8.843	n/a	STREET	-999	19	[0, 0, 0]	n/a	FR1	0	R1120E
7493.562	14.51	2008256	REC_END	n/a	n/a	n/a	-999	19	[0, 0, 0]	n/a	FR1	0	R1120E
7508.072	0.0	2022765	TRIAL	n/a	n/a	n/a	-999	20	[0, 0, 0]	n/a	FR1	0	R1120E
7508.072	10.0	2022765	COUNTDOWN_START	n/a	n/a	n/a	-999	20	[0, 0, 0]	n/a	FR1	0	R1120E
7518.5	0.006	2033193	COUNTDOWN_END	n/a	n/a	n/a	-999	20	[0, 0, 0]	n/a	FR1	0	R1120E
7518.506	1.6	2033199	ORIENT	n/a	n/a	n/a	-999	20	[0, 0, 0]	n/a	FR1	0	R1120E
7521.041	1.6	2035733	WORD	n/a	wordpools/wordpool_EN.txt	GRAPE	1	20	[0, 0, 0]	n/a	FR1	0	R1120E
7523.423	1.6	2038115	WORD	n/a	wordpools/wordpool_EN.txt	STORE	2	20	[0, 0, 0]	n/a	FR1	0	R1120E
7525.807	1.6	2040499	WORD	n/a	wordpools/wordpool_EN.txt	PHONE	3	20	[0, 0, 0]	n/a	FR1	0	R1120E
7528.358	1.6	2043050	WORD	n/a	wordpools/wordpool_EN.txt	PEN	4	20	[0, 0, 0]	n/a	FR1	0	R1120E
7530.858	1.6	2045550	WORD	n/a	wordpools/wordpool_EN.txt	BADGE	5	20	[0, 0, 0]	n/a	FR1	0	R1120E
7533.259	1.6	2047951	WORD	n/a	wordpools/wordpool_EN.txt	MUG	6	20	[0, 0, 0]	n/a	FR1	0	R1120E
7535.792	1.6	2050483	WORD	n/a	wordpools/wordpool_EN.txt	FENCE	7	20	[0, 0, 0]	n/a	FR1	0	R1120E
7538.376	1.6	2053067	WORD	n/a	wordpools/wordpool_EN.txt	VAN	8	20	[0, 0, 0]	n/a	FR1	0	R1120E
7540.911	1.6	2055602	WORD	n/a	wordpools/wordpool_EN.txt	BOOK	9	20	[0, 0, 0]	n/a	FR1	0	R1120E
7543.511	1.6	2058202	WORD	n/a	wordpools/wordpool_EN.txt	DOG	10	20	[0, 0, 0]	n/a	FR1	0	R1120E
7545.912	1.6	2060603	WORD	n/a	wordpools/wordpool_EN.txt	JAIL	11	20	[0, 0, 0]	n/a	FR1	0	R1120E
7548.428	1.6	2063119	WORD	n/a	wordpools/wordpool_EN.txt	APE	12	20	[0, 0, 0]	n/a	FR1	0	R1120E
7550.029	0.001	2064719	DISTRACT_START	n/a	n/a	n/a	-999	20	[0, 0, 0]	n/a	FR1	0	R1120E
7550.03	0.016	2064720	START	n/a	n/a	n/a	-999	20	[-999, -999, -999]	n/a	FR1	0	R1120E
7550.046	3.533	2064736	PROB	3.5	n/a	n/a	-999	20	[3, 2, 6]	11.0	FR1	0	R1120E
7553.579	3.934	2068269	PROB	3.912	n/a	n/a	-999	20	[5, 8, 6]	19.0	FR1	0	R1120E
7557.513	2.6	2072203	PROB	2.578	n/a	n/a	-999	20	[2, 6, 2]	10.0	FR1	0	R1120E
7560.113	2.751	2074803	PROB	2.73	n/a	n/a	-999	20	[5, 6, 5]	16.0	FR1	0	R1120E
7562.864	3.417	2077554	PROB	3.386	n/a	n/a	-999	20	[2, 3, 8]	13.0	FR1	0	R1120E
7566.281	2.551	2080970	PROB	2.529	n/a	n/a	-999	20	[5, 7, 7]	19.0	FR1	0	R1120E
7568.832	4.327	2083521	PROB	4.327	n/a	n/a	-999	20	[2, 9, 2]	13.0	FR1	0	R1120E
7573.159	0.007	2087848	STOP	n/a	n/a	n/a	-999	20	[-999, -999, -999]	n/a	FR1	0	R1120E
7573.166	1.184	2087855	DISTRACT_END	n/a	n/a	n/a	-999	20	[0, 0, 0]	n/a	FR1	0	R1120E
7574.35	1.167	2089039	REC_START	n/a	n/a	n/a	-999	20	[0, 0, 0]	n/a	FR1	0	R1120E
7575.517	1.305	2090206	REC_WORD	1.167	n/a	DOG	-999	20	[0, 0, 0]	n/a	FR1	0	R1120E
7576.822	1.648	2091511	REC_WORD	2.472	n/a	JAIL	-999	20	[0, 0, 0]	n/a	FR1	0	R1120E
7578.47	6.527	2093159	REC_WORD	4.12	n/a	APE	-999	20	[0, 0, 0]	n/a	FR1	0	R1120E
7584.997	4.513	2099685	REC_WORD	10.647	n/a	GRAPE	-999	20	[0, 0, 0]	n/a	FR1	0	R1120E
7589.51	2.117	2104198	REC_WORD	15.16	n/a	PHONE	-999	20	[0, 0, 0]	n/a	FR1	0	R1120E
7591.627	9.662	2106315	REC_WORD	17.277	n/a	NET	-999	20	[0, 0, 0]	n/a	FR1	0	R1120E
7601.289	3.07	2115976	REC_WORD	26.939	n/a	ROOM	-999	20	[0, 0, 0]	n/a	FR1	0	R1120E
7604.359	2.479	2119046	REC_END	n/a	n/a	n/a	-999	20	[0, 0, 0]	n/a	FR1	0	R1120E
7606.838	0.0	2121525	TRIAL	n/a	n/a	n/a	-999	21	[0, 0, 0]	n/a	FR1	0	R1120E
7606.838	10.0	2121525	COUNTDOWN_START	n/a	n/a	n/a	-999	21	[0, 0, 0]	n/a	FR1	0	R1120E
7617.266	0.007	2131952	COUNTDOWN_END	n/a	n/a	n/a	-999	21	[0, 0, 0]	n/a	FR1	0	R1120E
7617.273	1.6	2131959	ORIENT	n/a	n/a	n/a	-999	21	[0, 0, 0]	n/a	FR1	0	R1120E
7619.79	1.6	2134476	WORD	n/a	wordpools/wordpool_EN.txt	FLAME	1	21	[0, 0, 0]	n/a	FR1	0	R1120E
7622.274	1.6	2136960	WORD	n/a	wordpools/wordpool_EN.txt	SPARK	2	21	[0, 0, 0]	n/a	FR1	0	R1120E
7624.808	1.6	2139493	WORD	n/a	wordpools/wordpool_EN.txt	LEG	3	21	[0, 0, 0]	n/a	FR1	0	R1120E
7627.242	1.6	2141927	WORD	n/a	wordpools/wordpool_EN.txt	BOWL	4	21	[0, 0, 0]	n/a	FR1	0	R1120E
7629.692	1.6	2144377	WORD	n/a	wordpools/wordpool_EN.txt	PURSE	5	21	[0, 0, 0]	n/a	FR1	0	R1120E
7632.11	1.6	2146795	WORD	n/a	wordpools/wordpool_EN.txt	NOSE	6	21	[0, 0, 0]	n/a	FR1	0	R1120E
7634.51	1.6	2149195	WORD	n/a	wordpools/wordpool_EN.txt	FACE	7	21	[0, 0, 0]	n/a	FR1	0	R1120E
7637.045	1.6	2151730	WORD	n/a	wordpools/wordpool_EN.txt	EEL	8	21	[0, 0, 0]	n/a	FR1	0	R1120E
7639.511	1.6	2154195	WORD	n/a	wordpools/wordpool_EN.txt	HOSE	9	21	[0, 0, 0]	n/a	FR1	0	R1120E
7642.012	1.6	2156696	WORD	n/a	wordpools/wordpool_EN.txt	CHAIR	10	21	[0, 0, 0]	n/a	FR1	0	R1120E
7644.528	1.6	2159212	WORD	n/a	wordpools/wordpool_EN.txt	SEAT	11	21	[0, 0, 0]	n/a	FR1	0	R1120E
7646.93	1.6	2161614	WORD	n/a	wordpools/wordpool_EN.txt	SUIT	12	21	[0, 0, 0]	n/a	FR1	0	R1120E
7648.546	0.0	2163230	DISTRACT_START	n/a	n/a	n/a	-999	21	[0, 0, 0]	n/a	FR1	0	R1120E
7648.546	0.016	2163230	START	n/a	n/a	n/a	-999	21	[-999, -999, -999]	n/a	FR1	0	R1120E
7648.562	3.134	2163246	PROB	3.108	n/a	n/a	-999	21	[6, 6, 3]	15.0	FR1	0	R1120E
7651.696	2.467	2166380	PROB	2.438	n/a	n/a	-999	21	[9, 3, 1]	13.0	FR1	0	R1120E
7654.163	2.752	2168846	PROB	2.716	n/a	n/a	-999	21	[9, 9, 2]	20.0	FR1	0	R1120E
7656.915	4.983	2171598	PROB	4.956	n/a	n/a	-999	21	[6, 5, 4]	15.0	FR1	0	R1120E
7661.898	2.201	2176581	PROB	2.165	n/a	n/a	-999	21	[1, 7, 7]	15.0	FR1	0	R1120E
7664.099	2.516	2178782	PROB	2.492	n/a	n/a	-999	21	[1, 9, 9]	19.0	FR1	0	R1120E
7666.615	3.055	2181298	PROB	3.055	n/a	n/a	-999	21	[7, 5, 3]	15.0	FR1	0	R1120E
7669.67	0.013	2184352	STOP	n/a	n/a	n/a	-999	21	[-999, -999, -999]	n/a	FR1	0	R1120E
7669.683	1.134	2184365	DISTRACT_END	n/a	n/a	n/a	-999	21	[0, 0, 0]	n/a	FR1	0	R1120E
7670.817	0.928	2185499	REC_START	n/a	n/a	n/a	-999	21	[0, 0, 0]	n/a	FR1	0	R1120E
7671.745	1.057	2186427	REC_WORD	0.928	n/a	CHAIR	-999	21	[0, 0, 0]	n/a	FR1	0	R1120E
7672.802	28.024	2187484	REC_WORD	1.985	n/a	SHEEP	-999	21	[0, 0, 0]	n/a	FR1	0	R1120E
7700.826	20.782	2215506	REC_END	n/a	n/a	n/a	-999	21	[0, 0, 0]	n/a	FR1	0	R1120E
7721.608	10.0	2236287	COUNTDOWN_START	n/a	n/a	n/a	-999	22	[0, 0, 0]	n/a	FR1	0	R1120E
7721.609	10.427	2236288	TRIAL	n/a	n/a	n/a	-999	22	[0, 0, 0]	n/a	FR1	0	R1120E
7732.036	0.008	2246714	COUNTDOWN_END	n/a	n/a	n/a	-999	22	[0, 0, 0]	n/a	FR1	0	R1120E
7732.044	1.6	2246722	ORIENT	n/a	n/a	n/a	-999	22	[0, 0, 0]	n/a	FR1	0	R1120E
7734.627	1.6	2249305	WORD	n/a	wordpools/wordpool_EN.txt	FORT	1	22	[0, 0, 0]	n/a	FR1	0	R1120E
7737.045	1.6	2251723	WORD	n/a	wordpools/wordpool_EN.txt	MOON	2	22	[0, 0, 0]	n/a	FR1	0	R1120E
7739.578	1.6	2254256	WORD	n/a	wordpools/wordpool_EN.txt	FILM	3	22	[0, 0, 0]	n/a	FR1	0	R1120E
7741.996	1.6	2256674	WORD	n/a	wordpools/wordpool_EN.txt	INK	4	22	[0, 0, 0]	n/a	FR1	0	R1120E
7744.612	1.6	2259289	WORD	n/a	wordpools/wordpool_EN.txt	POLE	5	22	[0, 0, 0]	n/a	FR1	0	R1120E
7747.163	1.6	2261840	WORD	n/a	wordpools/wordpool_EN.txt	JUDGE	6	22	[0, 0, 0]	n/a	FR1	0	R1120E
7749.663	1.6	2264340	WORD	n/a	wordpools/wordpool_EN.txt	CASH	7	22	[0, 0, 0]	n/a	FR1	0	R1120E
7752.147	1.6	2266824	WORD	n/a	wordpools/wordpool_EN.txt	SHEET	8	22	[0, 0, 0]	n/a	FR1	0	R1120E
7754.564	1.6	2269241	WORD	n/a	wordpools/wordpool_EN.txt	MAIL	9	22	[0, 0, 0]	n/a	FR1	0	R1120E
7757.165	1.6	2271842	WORD	n/a	wordpools/wordpool_EN.txt	NET	10	22	[0, 0, 0]	n/a	FR1	0	R1120E
7759.798	1.6	2274474	WORD	n/a	wordpools/wordpool_EN.txt	TOAD	11	22	[0, 0, 0]	n/a	FR1	0	R1120E
7762.215	1.6	2276891	WORD	n/a	wordpools/wordpool_EN.txt	PEA	12	22	[0, 0, 0]	n/a	FR1	0	R1120E
7763.832	0.001	2278508	DISTRACT_START	n/a	n/a	n/a	-999	22	[0, 0, 0]	n/a	FR1	0	R1120E
7763.833	0.016	2278509	START	n/a	n/a	n/a	-999	22	[-999, -999, -999]	n/a	FR1	0	R1120E
7763.849	3.334	2278525	PROB	3.312	n/a	n/a	-999	22	[7, 5, 3]	15.0	FR1	0	R1120E
7767.183	3.167	2281859	PROB	3.138	n/a	n/a	-999	22	[6, 2, 5]	13.0	FR1	0	R1120E
7770.35	2.551	2285026	PROB	2.515	n/a	n/a	-999	22	[6, 8, 7]	21.0	FR1	0	R1120E
7772.901	4.6	2287577	PROB	4.575	n/a	n/a	-999	22	[7, 9, 3]	19.0	FR1	0	R1120E
7777.501	2.784	2292176	PROB	2.751	n/a	n/a	-999	22	[7, 2, 2]	11.0	FR1	0	R1120E
7780.285	4.358	2294960	PROB	4.358	n/a	n/a	-999	22	[2, 4, 8]	14.0	FR1	0	R1120E
7784.643	0.01	2299318	STOP	n/a	n/a	n/a	-999	22	[-999, -999, -999]	n/a	FR1	0	R1120E
7784.653	1.067	2299328	DISTRACT_END	n/a	n/a	n/a	-999	22	[0, 0, 0]	n/a	FR1	0	R1120E
7785.72	0.711	2300395	REC_START	n/a	n/a	n/a	-999	22	[0, 0, 0]	n/a	FR1	0	R1120E
7786.431	1.552	2301106	REC_WORD	0.711	n/a	TOAD	-999	22	[0, 0, 0]	n/a	FR1	0	R1120E
7787.983	2.851	2302658	REC_WORD	2.263	n/a	PEA	-999	22	[0, 0, 0]	n/a	FR1	0	R1120E
7790.834	3.681	2305508	REC_WORD	5.114	n/a	CHAIR	-999	22	[0, 0, 0]	n/a	FR1	0	R1120E
7794.515	15.235	2309189	REC_WORD	8.795	n/a	STEER	-999	22	[0, 0, 0]	n/a	FR1	0	R1120E
7809.75	5.985	2324423	REC_WORD	24.03	n/a	SHEEP	-999	22	[0, 0, 0]	n/a	FR1	0	R1120E
7815.735	4.707	2330408	REC_END	n/a	n/a	n/a	-999	22	[0, 0, 0]	n/a	FR1	0	R1120E
7820.442	10.0	2335114	COUNTDOWN_START	n/a	n/a	n/a	-999	23	[0, 0, 0]	n/a	FR1	0	R1120E
7820.443	10.427	2335115	TRIAL	n/a	n/a	n/a	-999	23	[0, 0, 0]	n/a	FR1	0	R1120E
7830.87	0.007	2345542	COUNTDOWN_END	n/a	n/a	n/a	-999	23	[0, 0, 0]	n/a	FR1	0	R1120E
7830.877	1.6	2345549	ORIENT	n/a	n/a	n/a	-999	23	[0, 0, 0]	n/a	FR1	0	R1120E
7833.378	1.6	2348049	WORD	n/a	wordpools/wordpool_EN.txt	SEAL	1	23	[0, 0, 0]	n/a	FR1	0	R1120E
7835.895	1.6	2350566	WORD	n/a	wordpools/wordpool_EN.txt	BAND	2	23	[0, 0, 0]	n/a	FR1	0	R1120E
7838.412	1.6	2353083	WORD	n/a	wordpools/wordpool_EN.txt	WORLD	3	23	[0, 0, 0]	n/a	FR1	0	R1120E
7841.014	1.6	2355685	WORD	n/a	wordpools/wordpool_EN.txt	FRUIT	4	23	[0, 0, 0]	n/a	FR1	0	R1120E
7843.596	1.6	2358267	WORD	n/a	wordpools/wordpool_EN.txt	SWORD	5	23	[0, 0, 0]	n/a	FR1	0	R1120E
7846.163	1.6	2360834	WORD	n/a	wordpools/wordpool_EN.txt	JAR	6	23	[0, 0, 0]	n/a	FR1	0	R1120E
7848.564	1.6	2363234	WORD	n/a	wordpools/wordpool_EN.txt	BREAD	7	23	[0, 0, 0]	n/a	FR1	0	R1120E
7851.164	1.6	2365834	WORD	n/a	wordpools/wordpool_EN.txt	CUP	8	23	[0, 0, 0]	n/a	FR1	0	R1120E
7853.682	1.6	2368352	WORD	n/a	wordpools/wordpool_EN.txt	WALL	9	23	[0, 0, 0]	n/a	FR1	0	R1120E
7856.165	1.6	2370835	WORD	n/a	wordpools/wordpool_EN.txt	STICK	10	23	[0, 0, 0]	n/a	FR1	0	R1120E
7858.632	1.6	2373302	WORD	n/a	wordpools/wordpool_EN.txt	ROSE	11	23	[0, 0, 0]	n/a	FR1	0	R1120E
7861.199	1.6	2375869	WORD	n/a	wordpools/wordpool_EN.txt	LAMP	12	23	[0, 0, 0]	n/a	FR1	0	R1120E
7862.816	0.001	2377485	DISTRACT_START	n/a	n/a	n/a	-999	23	[0, 0, 0]	n/a	FR1	0	R1120E
7862.817	0.016	2377486	START	n/a	n/a	n/a	-999	23	[-999, -999, -999]	n/a	FR1	0	R1120E
7862.833	3.384	2377502	PROB	3.348	n/a	n/a	-999	23	[3, 6, 6]	15.0	FR1	0	R1120E
7866.217	3.284	2380886	PROB	3.253	n/a	n/a	-999	23	[1, 5, 7]	13.0	FR1	0	R1120E
7869.501	2.884	2384170	PROB	2.857	n/a	n/a	-999	23	[9, 8, 1]	18.0	FR1	0	R1120E
7872.385	3.35	2387054	PROB	3.317	n/a	n/a	-999	23	[7, 6, 8]	21.0	FR1	0	R1120E
7875.735	2.767	2390404	PROB	2.743	n/a	n/a	-999	23	[4, 8, 3]	15.0	FR1	0	R1120E
7878.502	3.402	2393170	PROB	3.376	n/a	n/a	-999	23	[2, 9, 1]	12.0	FR1	0	R1120E
7881.904	2.725	2396572	PROB	2.725	n/a	n/a	-999	23	[5, 4, 5]	14.0	FR1	0	R1120E
7884.629	0.008	2399297	STOP	n/a	n/a	n/a	-999	23	[-999, -999, -999]	n/a	FR1	0	R1120E
7884.637	1.201	2399305	DISTRACT_END	n/a	n/a	n/a	-999	23	[0, 0, 0]	n/a	FR1	0	R1120E
7885.838	1.317	2400506	REC_START	n/a	n/a	n/a	-999	23	[0, 0, 0]	n/a	FR1	0	R1120E
7887.155	1.632	2401823	REC_WORD	1.317	n/a	SEAL	-999	23	[0, 0, 0]	n/a	FR1	0	R1120E
7888.787	1.578	2403455	REC_WORD	2.949	n/a	BAND	-999	23	[0, 0, 0]	n/a	FR1	0	R1120E
7890.365	3.681	2405033	REC_WORD	4.527	n/a	WORLD	-999	23	[0, 0, 0]	n/a	FR1	0	R1120E
7894.046	9.184	2408713	REC_WORD	8.208	n/a	STEP	-999	23	[0, 0, 0]	n/a	FR1	0	R1120E
7903.23	1.813	2417897	REC_WORD	17.392	n/a	KISS	-999	23	[0, 0, 0]	n/a	FR1	0	R1120E
7905.043	10.804	2419710	REC_WORD	19.205	n/a	ROSE	-999	23	[0, 0, 0]	n/a	FR1	0	R1120E
7915.847	2.679	2430513	REC_END	n/a	n/a	n/a	-999	23	[0, 0, 0]	n/a	FR1	0	R1120E
7918.526	10.0	2433192	COUNTDOWN_START	n/a	n/a	n/a	-999	24	[0, 0, 0]	n/a	FR1	0	R1120E
7918.526	10.428	2433192	TRIAL	n/a	n/a	n/a	-999	24	[0, 0, 0]	n/a	FR1	0	R1120E
7928.954	0.008	2443619	COUNTDOWN_END	n/a	n/a	n/a	-999	24	[0, 0, 0]	n/a	FR1	0	R1120E
7928.962	1.6	2443627	ORIENT	n/a	n/a	n/a	-999	24	[0, 0, 0]	n/a	FR1	0	R1120E
7931.462	1.6	2446127	WORD	n/a	wordpools/wordpool_EN.txt	BEAR	1	24	[0, 0, 0]	n/a	FR1	0	R1120E
7933.913	1.6	2448578	WORD	n/a	wordpools/wordpool_EN.txt	WING	2	24	[0, 0, 0]	n/a	FR1	0	R1120E
7936.313	1.6	2450978	WORD	n/a	wordpools/wordpool_EN.txt	DOOR	3	24	[0, 0, 0]	n/a	FR1	0	R1120E
7938.696	1.6	2453360	WORD	n/a	wordpools/wordpool_EN.txt	PLANT	4	24	[0, 0, 0]	n/a	FR1	0	R1120E
7941.098	1.6	2455762	WORD	n/a	wordpools/wordpool_EN.txt	ROOT	5	24	[0, 0, 0]	n/a	FR1	0	R1120E
7943.497	1.6	2458161	WORD	n/a	wordpools/wordpool_EN.txt	LEAF	6	24	[0, 0, 0]	n/a	FR1	0	R1120E
7945.982	1.6	2460646	WORD	n/a	wordpools/wordpool_EN.txt	SNOW	7	24	[0, 0, 0]	n/a	FR1	0	R1120E
7948.515	1.6	2463179	WORD	n/a	wordpools/wordpool_EN.txt	BLOOM	8	24	[0, 0, 0]	n/a	FR1	0	R1120E
7950.999	1.6	2465663	WORD	n/a	wordpools/wordpool_EN.txt	STRAW	9	24	[0, 0, 0]	n/a	FR1	0	R1120E
7953.432	1.6	2468095	WORD	n/a	wordpools/wordpool_EN.txt	BUSH	10	24	[0, 0, 0]	n/a	FR1	0	R1120E
7955.933	1.6	2470596	WORD	n/a	wordpools/wordpool_EN.txt	BRANCH	11	24	[0, 0, 0]	n/a	FR1	0	R1120E
7958.416	1.6	2473079	WORD	n/a	wordpools/wordpool_EN.txt	TOY	12	24	[0, 0, 0]	n/a	FR1	0	R1120E
7960.017	0.001	2474680	DISTRACT_START	n/a	n/a	n/a	-999	24	[0, 0, 0]	n/a	FR1	0	R1120E
7960.018	0.016	2474681	START	n/a	n/a	n/a	-999	24	[-999, -999, -999]	n/a	FR1	0	R1120E
7960.034	3.733	2474697	PROB	3.71	n/a	n/a	-999	24	[2, 6, 1]	9.0	FR1	0	R1120E
7963.767	2.467	2478430	PROB	2.441	n/a	n/a	-999	24	[8, 9, 1]	18.0	FR1	0	R1120E
7966.234	3.634	2480897	PROB	3.606	n/a	n/a	-999	24	[9, 2, 6]	17.0	FR1	0	R1120E
7969.868	2.634	2484530	PROB	2.612	n/a	n/a	-999	24	[3, 5, 4]	12.0	FR1	0	R1120E
7972.502	2.452	2487164	PROB	2.419	n/a	n/a	-999	24	[3, 3, 9]	15.0	FR1	0	R1120E
7974.954	2.933	2489616	PROB	2.902	n/a	n/a	-999	24	[6, 1, 2]	9.0	FR1	0	R1120E
7977.887	2.521	2492549	PROB	2.521	n/a	n/a	-999	24	[7, 8, 6]	21.0	FR1	0	R1120E
7980.408	0.012	2495070	STOP	n/a	n/a	n/a	-999	24	[-999, -999, -999]	n/a	FR1	0	R1120E
7980.42	1.118	2495082	DISTRACT_END	n/a	n/a	n/a	-999	24	[0, 0, 0]	n/a	FR1	0	R1120E
7981.538	1.147	2496200	REC_START	n/a	n/a	n/a	-999	24	[0, 0, 0]	n/a	FR1	0	R1120E
7982.685	1.42	2497346	REC_WORD	1.147	n/a	TOY	-999	24	[0, 0, 0]	n/a	FR1	0	R1120E
7984.105	1.262	2498766	REC_WORD	2.567	n/a	BRANCH	-999	24	[0, 0, 0]	n/a	FR1	0	R1120E
7985.367	1.247	2500028	REC_WORD	3.829	n/a	LEAF	-999	24	[0, 0, 0]	n/a	FR1	0	R1120E
7986.614	1.517	2501275	REC_WORD	5.076	n/a	ROOT	-999	24	[0, 0, 0]	n/a	FR1	0	R1120E
7988.131	2.491	2502792	REC_WORD	6.593	n/a	STEM	-999	24	[0, 0, 0]	n/a	FR1	0	R1120E
7990.622	20.925	2505283	REC_WORD	9.084	n/a	BUSH	-999	24	[0, 0, 0]	n/a	FR1	0	R1120E
8011.547	2.43	2526207	REC_END	n/a	n/a	n/a	-999	24	[0, 0, 0]	n/a	FR1	0	R1120E
8013.977	0.0	2528636	TRIAL	n/a	n/a	n/a	-999	25	[0, 0, 0]	n/a	FR1	0	R1120E
8013.977	10.0	2528636	COUNTDOWN_START	n/a	n/a	n/a	-999	25	[0, 0, 0]	n/a	FR1	0	R1120E
8024.405	0.023	2539064	COUNTDOWN_END	n/a	n/a	n/a	-999	25	[0, 0, 0]	n/a	FR1	0	R1120E
8024.428	1.6	2539087	ORIENT	n/a	n/a	n/a	-999	25	[0, 0, 0]	n/a	FR1	0	R1120E
8026.946	1.6	2541604	WORD	n/a	wordpools/wordpool_EN.txt	WOOD	1	25	[0, 0, 0]	n/a	FR1	0	R1120E
8029.546	1.6	2544204	WORD	n/a	wordpools/wordpool_EN.txt	PASTE	2	25	[0, 0, 0]	n/a	FR1	0	R1120E
8032.064	1.6	2546722	WORD	n/a	wordpools/wordpool_EN.txt	FORK	3	25	[0, 0, 0]	n/a	FR1	0	R1120E
8034.463	1.6	2549121	WORD	n/a	wordpools/wordpool_EN.txt	PLATE	4	25	[0, 0, 0]	n/a	FR1	0	R1120E
8036.83	1.6	2551488	WORD	n/a	wordpools/wordpool_EN.txt	CHALK	5	25	[0, 0, 0]	n/a	FR1	0	R1120E
8039.281	1.6	2553939	WORD	n/a	wordpools/wordpool_EN.txt	STONE	6	25	[0, 0, 0]	n/a	FR1	0	R1120E
8041.714	1.6	2556372	WORD	n/a	wordpools/wordpool_EN.txt	CLOTH	7	25	[0, 0, 0]	n/a	FR1	0	R1120E
8044.332	1.6	2558989	WORD	n/a	wordpools/wordpool_EN.txt	BLUSH	8	25	[0, 0, 0]	n/a	FR1	0	R1120E
8046.832	1.6	2561489	WORD	n/a	wordpools/wordpool_EN.txt	GLOVE	9	25	[0, 0, 0]	n/a	FR1	0	R1120E
8049.366	1.6	2564023	WORD	n/a	wordpools/wordpool_EN.txt	TOOL	10	25	[0, 0, 0]	n/a	FR1	0	R1120E
8051.934	1.6	2566591	WORD	n/a	wordpools/wordpool_EN.txt	AXE	11	25	[0, 0, 0]	n/a	FR1	0	R1120E
8054.5	1.6	2569157	WORD	n/a	wordpools/wordpool_EN.txt	VASE	12	25	[0, 0, 0]	n/a	FR1	0	R1120E
8056.117	0.001	2570774	DISTRACT_START	n/a	n/a	n/a	-999	25	[0, 0, 0]	n/a	FR1	0	R1120E
8056.118	0.016	2570775	START	n/a	n/a	n/a	-999	25	[-999, -999, -999]	n/a	FR1	0	R1120E
8056.134	3.55	2570791	PROB	3.516	n/a	n/a	-999	25	[9, 5, 6]	20.0	FR1	0	R1120E
8059.684	5.051	2574340	PROB	5.022	n/a	n/a	-999	25	[1, 3, 2]	6.0	FR1	0	R1120E
8064.735	3.134	2579391	PROB	3.099	n/a	n/a	-999	25	[1, 6, 9]	16.0	FR1	0	R1120E
8067.869	3.101	2582525	PROB	3.07	n/a	n/a	-999	25	[6, 4, 4]	14.0	FR1	0	R1120E
8070.97	4.6	2585626	PROB	4.568	n/a	n/a	-999	25	[5, 3, 9]	17.0	FR1	0	R1120E
8075.57	5.1	2590225	PROB	5.1	n/a	n/a	-999	25	[3, 9, 2]	14.0	FR1	0	R1120E
8080.67	0.018	2595325	STOP	n/a	n/a	n/a	-999	25	[-999, -999, -999]	n/a	FR1	0	R1120E
8080.688	1.184	2595343	DISTRACT_END	n/a	n/a	n/a	-999	25	[0, 0, 0]	n/a	FR1	0	R1120E
8081.872	0.942	2596527	REC_START	n/a	n/a	n/a	-999	25	[0, 0, 0]	n/a	FR1	0	R1120E
8082.814	1.441	2597469	REC_WORD	0.942	n/a	TOOL	-999	25	[0, 0, 0]	n/a	FR1	0	R1120E
8084.255	2.398	2598910	REC_WORD	2.383	n/a	AXE	-999	25	[0, 0, 0]	n/a	FR1	0	R1120E
8086.653	4.973	2601308	REC_WORD	4.781	n/a	VASE	-999	25	[0, 0, 0]	n/a	FR1	0	R1120E
8091.626	2.844	2606280	REC_WORD	9.754	n/a	CHAIR	-999	25	[0, 0, 0]	n/a	FR1	0	R1120E
8094.47	17.411	2609124	REC_WORD	12.598	n/a	STOOL	-999	25	[0, 0, 0]	n/a	FR1	0	R1120E
8111.881	86.112	2626534	REC_END	n/a	n/a	n/a	-999	25	[0, 0, 0]	n/a	FR1	0	R1120E
8197.993	0.0	2712640	SESS_END	n/a	n/a	n/a	-999	25	[0, 0, 0]	n/a	FR1	0	R1120E
