onset	duration	sample	trial_type	response_time	stim_file	item_name	serialpos	list	test	answer	experiment	session	subject
0.0	18.859	588712	SESS_START	n/a	n/a	n/a	-999	-999	[0, 0, 0]	n/a	FR1	0	R1136N
18.859	10.0	607570	COUNTDOWN_START	n/a	n/a	n/a	-999	-999	[0, 0, 0]	n/a	FR1	0	R1136N
29.287	3.741	617998	COUNTDOWN_END	n/a	n/a	n/a	-999	-999	[0, 0, 0]	n/a	FR1	0	R1136N
33.028	1.6	621738	PRACTICE_WORD	n/a	n/a	TONGUE	1	-1	[0, 0, 0]	n/a	FR1	0	R1136N
35.546	1.6	624256	PRACTICE_WORD	n/a	n/a	RHINO	2	-1	[0, 0, 0]	n/a	FR1	0	R1136N
38.112	1.6	626822	PRACTICE_WORD	n/a	n/a	BEAM	3	-1	[0, 0, 0]	n/a	FR1	0	R1136N
40.596	1.6	629306	PRACTICE_WORD	n/a	n/a	FLOOD	4	-1	[0, 0, 0]	n/a	FR1	0	R1136N
42.98	1.6	631690	PRACTICE_WORD	n/a	n/a	COTTON	5	-1	[0, 0, 0]	n/a	FR1	0	R1136N
45.547	1.6	634257	PRACTICE_WORD	n/a	n/a	CHEST	6	-1	[0, 0, 0]	n/a	FR1	0	R1136N
47.964	1.6	636674	PRACTICE_WORD	n/a	n/a	WATCH	7	-1	[0, 0, 0]	n/a	FR1	0	R1136N
50.581	1.6	639290	PRACTICE_WORD	n/a	n/a	IRON	8	-1	[0, 0, 0]	n/a	FR1	0	R1136N
53.164	1.6	641873	PRACTICE_WORD	n/a	n/a	RING	9	-1	[0, 0, 0]	n/a	FR1	0	R1136N
55.532	1.6	644241	PRACTICE_WORD	n/a	n/a	WAGON	10	-1	[0, 0, 0]	n/a	FR1	0	R1136N
57.916	1.6	646625	PRACTICE_WORD	n/a	n/a	CAMEL	11	-1	[0, 0, 0]	n/a	FR1	0	R1136N
60.399	1.6	649108	PRACTICE_WORD	n/a	n/a	ATTIC	12	-1	[0, 0, 0]	n/a	FR1	0	R1136N
62.017	0.0	650726	PRACTICE_DISTRACT_START	n/a	n/a	n/a	-999	-1	[0, 0, 0]	n/a	FR1	0	R1136N
62.017	0.016	650726	START	n/a	n/a	n/a	-999	-1	[-999, -999, -999]	n/a	FR1	0	R1136N
62.033	6.785	650742	PROB	6.749	n/a	n/a	-999	-1	[5, 7, 9]	21.0	FR1	0	R1136N
68.818	4.967	657527	PROB	4.932	n/a	n/a	-999	-1	[3, 4, 2]	9.0	FR1	0	R1136N
73.785	2.817	662493	PROB	2.781	n/a	n/a	-999	-1	[9, 1, 4]	14.0	FR1	0	R1136N
76.602	3.367	665310	PROB	3.348	n/a	n/a	-999	-1	[4, 7, 1]	12.0	FR1	0	R1136N
79.969	2.845	668677	PROB	2.845	n/a	n/a	-999	-1	[6, 9, 1]	16.0	FR1	0	R1136N
82.814	0.006	671522	STOP	n/a	n/a	n/a	-999	-1	[-999, -999, -999]	n/a	FR1	0	R1136N
82.82	0.518	671528	PRACTICE_DISTRACT_END	n/a	n/a	n/a	-999	-1	[0, 0, 0]	n/a	FR1	0	R1136N
83.338	30.516	672046	PRACTICE_REC_START	n/a	n/a	n/a	-999	-1	[0, 0, 0]	n/a	FR1	0	R1136N
113.854	25.959	702560	PRACTICE_REC_END	n/a	n/a	n/a	-999	-1	[0, 0, 0]	n/a	FR1	0	R1136N
139.813	0.0	728518	TRIAL	n/a	n/a	n/a	-999	1	[0, 0, 0]	n/a	FR1	0	R1136N
139.813	10.0	728518	COUNTDOWN_START	n/a	n/a	n/a	-999	1	[0, 0, 0]	n/a	FR1	0	R1136N
150.241	0.006	738945	COUNTDOWN_END	n/a	n/a	n/a	-999	1	[0, 0, 0]	n/a	FR1	0	R1136N
150.247	1.6	738951	ORIENT	n/a	n/a	n/a	-999	1	[0, 0, 0]	n/a	FR1	0	R1136N
152.682	1.6	741386	WORD	n/a	wordpools/wordpool_EN.txt	CAT	1	1	[0, 0, 0]	n/a	FR1	0	R1136N
155.281	1.6	743985	WORD	n/a	wordpools/wordpool_EN.txt	TRAIN	2	1	[0, 0, 0]	n/a	FR1	0	R1136N
157.816	1.6	746520	WORD	n/a	wordpools/wordpool_EN.txt	JEEP	3	1	[0, 0, 0]	n/a	FR1	0	R1136N
160.399	1.6	749103	WORD	n/a	wordpools/wordpool_EN.txt	MOON	4	1	[0, 0, 0]	n/a	FR1	0	R1136N
162.8	1.6	751504	WORD	n/a	wordpools/wordpool_EN.txt	PRINCE	5	1	[0, 0, 0]	n/a	FR1	0	R1136N
165.299	1.6	754003	WORD	n/a	wordpools/wordpool_EN.txt	HEART	6	1	[0, 0, 0]	n/a	FR1	0	R1136N
167.734	1.6	756438	WORD	n/a	wordpools/wordpool_EN.txt	BEAR	7	1	[0, 0, 0]	n/a	FR1	0	R1136N
170.117	1.6	758820	WORD	n/a	wordpools/wordpool_EN.txt	GOLD	8	1	[0, 0, 0]	n/a	FR1	0	R1136N
172.618	1.6	761321	WORD	n/a	wordpools/wordpool_EN.txt	GRAPE	9	1	[0, 0, 0]	n/a	FR1	0	R1136N
175.118	1.6	763821	WORD	n/a	wordpools/wordpool_EN.txt	BALL	10	1	[0, 0, 0]	n/a	FR1	0	R1136N
177.636	1.6	766339	WORD	n/a	wordpools/wordpool_EN.txt	FARM	11	1	[0, 0, 0]	n/a	FR1	0	R1136N
180.02	1.6	768723	WORD	n/a	wordpools/wordpool_EN.txt	APE	12	1	[0, 0, 0]	n/a	FR1	0	R1136N
181.636	0.001	770339	DISTRACT_START	n/a	n/a	n/a	-999	1	[0, 0, 0]	n/a	FR1	0	R1136N
181.637	0.016	770340	START	n/a	n/a	n/a	-999	1	[-999, -999, -999]	n/a	FR1	0	R1136N
181.653	5.001	770356	PROB	4.969	n/a	n/a	-999	1	[9, 4, 4]	17.0	FR1	0	R1136N
186.654	4.151	775357	PROB	4.12	n/a	n/a	-999	1	[3, 9, 8]	20.0	FR1	0	R1136N
190.805	2.817	779507	PROB	2.785	n/a	n/a	-999	1	[8, 2, 7]	17.0	FR1	0	R1136N
193.622	3.3	782324	PROB	3.272	n/a	n/a	-999	1	[5, 8, 3]	16.0	FR1	0	R1136N
196.922	4.001	785624	PROB	3.972	n/a	n/a	-999	1	[3, 4, 1]	8.0	FR1	0	R1136N
200.923	4.37	789625	PROB	4.37	n/a	n/a	-999	1	[6, 2, 9]	17.0	FR1	0	R1136N
205.293	0.013	793995	STOP	n/a	n/a	n/a	-999	1	[-999, -999, -999]	n/a	FR1	0	R1136N
205.306	1.184	794008	DISTRACT_END	n/a	n/a	n/a	-999	1	[0, 0, 0]	n/a	FR1	0	R1136N
206.49	9.039	795192	REC_START	n/a	n/a	n/a	-999	1	[0, 0, 0]	n/a	FR1	0	R1136N
215.529	1.531	804230	REC_WORD	9.039	n/a	GRAPE	-999	1	[0, 0, 0]	n/a	FR1	0	R1136N
217.06	2.879	805761	REC_WORD	10.57	n/a	APE	-999	1	[0, 0, 0]	n/a	FR1	0	R1136N
219.939	16.563	808640	REC_WORD	13.449	n/a	FARM	-999	1	[0, 0, 0]	n/a	FR1	0	R1136N
236.502	2.327	825202	REC_END	n/a	n/a	n/a	-999	1	[0, 0, 0]	n/a	FR1	0	R1136N
238.829	10.0	827529	COUNTDOWN_START	n/a	n/a	n/a	-999	2	[0, 0, 0]	n/a	FR1	0	R1136N
238.829	10.428	827529	TRIAL	n/a	n/a	n/a	-999	2	[0, 0, 0]	n/a	FR1	0	R1136N
249.257	0.006	837956	COUNTDOWN_END	n/a	n/a	n/a	-999	2	[0, 0, 0]	n/a	FR1	0	R1136N
249.263	1.6	837962	ORIENT	n/a	n/a	n/a	-999	2	[0, 0, 0]	n/a	FR1	0	R1136N
251.731	1.6	840430	WORD	n/a	wordpools/wordpool_EN.txt	SHEET	1	2	[0, 0, 0]	n/a	FR1	0	R1136N
254.131	1.6	842830	WORD	n/a	wordpools/wordpool_EN.txt	STAR	2	2	[0, 0, 0]	n/a	FR1	0	R1136N
256.565	1.6	845264	WORD	n/a	wordpools/wordpool_EN.txt	WOLF	3	2	[0, 0, 0]	n/a	FR1	0	R1136N
259.131	1.6	847830	WORD	n/a	wordpools/wordpool_EN.txt	HORSE	4	2	[0, 0, 0]	n/a	FR1	0	R1136N
261.566	1.6	850265	WORD	n/a	wordpools/wordpool_EN.txt	TRASH	5	2	[0, 0, 0]	n/a	FR1	0	R1136N
263.95	1.6	852649	WORD	n/a	wordpools/wordpool_EN.txt	CORD	6	2	[0, 0, 0]	n/a	FR1	0	R1136N
266.333	1.6	855032	WORD	n/a	wordpools/wordpool_EN.txt	ANT	7	2	[0, 0, 0]	n/a	FR1	0	R1136N
268.734	1.6	857432	WORD	n/a	wordpools/wordpool_EN.txt	BOOK	8	2	[0, 0, 0]	n/a	FR1	0	R1136N
271.35	1.6	860048	WORD	n/a	wordpools/wordpool_EN.txt	TOAD	9	2	[0, 0, 0]	n/a	FR1	0	R1136N
273.902	1.6	862600	WORD	n/a	wordpools/wordpool_EN.txt	CASH	10	2	[0, 0, 0]	n/a	FR1	0	R1136N
276.401	1.6	865099	WORD	n/a	wordpools/wordpool_EN.txt	RIB	11	2	[0, 0, 0]	n/a	FR1	0	R1136N
278.836	1.6	867534	WORD	n/a	wordpools/wordpool_EN.txt	EGG	12	2	[0, 0, 0]	n/a	FR1	0	R1136N
280.452	0.001	869150	DISTRACT_START	n/a	n/a	n/a	-999	2	[0, 0, 0]	n/a	FR1	0	R1136N
280.453	0.015	869151	START	n/a	n/a	n/a	-999	2	[-999, -999, -999]	n/a	FR1	0	R1136N
280.468	4.235	869166	PROB	4.202	n/a	n/a	-999	2	[9, 5, 1]	15.0	FR1	0	R1136N
284.703	6.018	873401	PROB	5.983	n/a	n/a	-999	2	[8, 8, 6]	22.0	FR1	0	R1136N
290.721	3.483	879418	PROB	3.452	n/a	n/a	-999	2	[7, 5, 2]	14.0	FR1	0	R1136N
294.204	3.368	882901	PROB	3.346	n/a	n/a	-999	2	[1, 5, 2]	8.0	FR1	0	R1136N
297.572	2.616	886269	PROB	2.593	n/a	n/a	-999	2	[5, 2, 5]	12.0	FR1	0	R1136N
300.188	1.961	888885	PROB	1.961	n/a	n/a	-999	2	[5, 1, 1]	7.0	FR1	0	R1136N
302.149	0.006	890846	STOP	n/a	n/a	n/a	-999	2	[-999, -999, -999]	n/a	FR1	0	R1136N
302.155	1.201	890852	DISTRACT_END	n/a	n/a	n/a	-999	2	[0, 0, 0]	n/a	FR1	0	R1136N
303.356	4.456	892053	REC_START	n/a	n/a	n/a	-999	2	[0, 0, 0]	n/a	FR1	0	R1136N
307.812	0.675	896508	REC_WORD	4.456	n/a	ANT	-999	2	[0, 0, 0]	n/a	FR1	0	R1136N
308.487	24.889	897183	REC_WORD	5.131	n/a	TRASH	-999	2	[0, 0, 0]	n/a	FR1	0	R1136N
333.376	2.269	922071	REC_END	n/a	n/a	n/a	-999	2	[0, 0, 0]	n/a	FR1	0	R1136N
335.645	0.0	924340	TRIAL	n/a	n/a	n/a	-999	3	[0, 0, 0]	n/a	FR1	0	R1136N
335.645	10.0	924340	COUNTDOWN_START	n/a	n/a	n/a	-999	3	[0, 0, 0]	n/a	FR1	0	R1136N
346.073	0.007	934767	COUNTDOWN_END	n/a	n/a	n/a	-999	3	[0, 0, 0]	n/a	FR1	0	R1136N
346.08	1.6	934774	ORIENT	n/a	n/a	n/a	-999	3	[0, 0, 0]	n/a	FR1	0	R1136N
348.597	1.6	937291	WORD	n/a	wordpools/wordpool_EN.txt	TAIL	1	3	[0, 0, 0]	n/a	FR1	0	R1136N
351.163	1.6	939857	WORD	n/a	wordpools/wordpool_EN.txt	MOUSE	2	3	[0, 0, 0]	n/a	FR1	0	R1136N
353.581	1.6	942275	WORD	n/a	wordpools/wordpool_EN.txt	ROPE	3	3	[0, 0, 0]	n/a	FR1	0	R1136N
356.181	1.6	944875	WORD	n/a	wordpools/wordpool_EN.txt	WEB	4	3	[0, 0, 0]	n/a	FR1	0	R1136N
358.549	1.6	947243	WORD	n/a	wordpools/wordpool_EN.txt	MUG	5	3	[0, 0, 0]	n/a	FR1	0	R1136N
361.165	1.6	949859	WORD	n/a	wordpools/wordpool_EN.txt	SKUNK	6	3	[0, 0, 0]	n/a	FR1	0	R1136N
363.683	1.6	952377	WORD	n/a	wordpools/wordpool_EN.txt	SHEEP	7	3	[0, 0, 0]	n/a	FR1	0	R1136N
366.099	1.6	954792	WORD	n/a	wordpools/wordpool_EN.txt	PET	8	3	[0, 0, 0]	n/a	FR1	0	R1136N
368.634	1.6	957327	WORD	n/a	wordpools/wordpool_EN.txt	CLOTH	9	3	[0, 0, 0]	n/a	FR1	0	R1136N
371.068	1.6	959761	WORD	n/a	wordpools/wordpool_EN.txt	HAWK	10	3	[0, 0, 0]	n/a	FR1	0	R1136N
373.668	1.6	962361	WORD	n/a	wordpools/wordpool_EN.txt	FUDGE	11	3	[0, 0, 0]	n/a	FR1	0	R1136N
376.101	1.6	964794	WORD	n/a	wordpools/wordpool_EN.txt	CALF	12	3	[0, 0, 0]	n/a	FR1	0	R1136N
377.702	0.001	966395	DISTRACT_START	n/a	n/a	n/a	-999	3	[0, 0, 0]	n/a	FR1	0	R1136N
377.703	0.016	966396	START	n/a	n/a	n/a	-999	3	[-999, -999, -999]	n/a	FR1	0	R1136N
377.719	3.217	966412	PROB	3.183	n/a	n/a	-999	3	[1, 8, 1]	10.0	FR1	0	R1136N
380.936	2.449	969629	PROB	2.429	n/a	n/a	-999	3	[8, 9, 1]	18.0	FR1	0	R1136N
383.385	3.868	972078	PROB	3.844	n/a	n/a	-999	3	[8, 6, 2]	16.0	FR1	0	R1136N
387.253	2.668	975945	PROB	2.641	n/a	n/a	-999	3	[1, 7, 5]	13.0	FR1	0	R1136N
389.921	2.7	978613	PROB	2.669	n/a	n/a	-999	3	[5, 6, 4]	15.0	FR1	0	R1136N
392.621	2.217	981313	PROB	2.185	n/a	n/a	-999	3	[2, 8, 6]	16.0	FR1	0	R1136N
394.838	3.431	983530	PROB	3.431	n/a	n/a	-999	3	[2, 9, 9]	20.0	FR1	0	R1136N
398.269	0.019	986961	STOP	n/a	n/a	n/a	-999	3	[-999, -999, -999]	n/a	FR1	0	R1136N
398.288	1.201	986980	DISTRACT_END	n/a	n/a	n/a	-999	3	[0, 0, 0]	n/a	FR1	0	R1136N
399.489	29.884	988181	REC_START	n/a	n/a	n/a	-999	3	[0, 0, 0]	n/a	FR1	0	R1136N
429.373	0.127	1018063	REC_WORD_VV	29.884	n/a	<>	-999	3	[0, 0, 0]	n/a	FR1	0	R1136N
429.5	2.943	1018190	REC_END	n/a	n/a	n/a	-999	3	[0, 0, 0]	n/a	FR1	0	R1136N
432.443	10.0	1021133	COUNTDOWN_START	n/a	n/a	n/a	-999	4	[0, 0, 0]	n/a	FR1	0	R1136N
432.444	10.427	1021134	TRIAL	n/a	n/a	n/a	-999	4	[0, 0, 0]	n/a	FR1	0	R1136N
442.871	0.008	1031561	COUNTDOWN_END	n/a	n/a	n/a	-999	4	[0, 0, 0]	n/a	FR1	0	R1136N
442.879	1.6	1031569	ORIENT	n/a	n/a	n/a	-999	4	[0, 0, 0]	n/a	FR1	0	R1136N
445.412	1.6	1034101	WORD	n/a	wordpools/wordpool_EN.txt	NOSE	1	4	[0, 0, 0]	n/a	FR1	0	R1136N
447.93	1.6	1036619	WORD	n/a	wordpools/wordpool_EN.txt	RAKE	2	4	[0, 0, 0]	n/a	FR1	0	R1136N
450.396	1.6	1039085	WORD	n/a	wordpools/wordpool_EN.txt	FOX	3	4	[0, 0, 0]	n/a	FR1	0	R1136N
452.848	1.6	1041537	WORD	n/a	wordpools/wordpool_EN.txt	ZOO	4	4	[0, 0, 0]	n/a	FR1	0	R1136N
455.364	1.6	1044053	WORD	n/a	wordpools/wordpool_EN.txt	SNAKE	5	4	[0, 0, 0]	n/a	FR1	0	R1136N
457.732	1.6	1046421	WORD	n/a	wordpools/wordpool_EN.txt	FLEA	6	4	[0, 0, 0]	n/a	FR1	0	R1136N
460.315	1.6	1049004	WORD	n/a	wordpools/wordpool_EN.txt	HOUSE	7	4	[0, 0, 0]	n/a	FR1	0	R1136N
462.866	1.6	1051555	WORD	n/a	wordpools/wordpool_EN.txt	DUCK	8	4	[0, 0, 0]	n/a	FR1	0	R1136N
465.432	1.6	1054120	WORD	n/a	wordpools/wordpool_EN.txt	PALM	9	4	[0, 0, 0]	n/a	FR1	0	R1136N
468.034	1.6	1056722	WORD	n/a	wordpools/wordpool_EN.txt	CAKE	10	4	[0, 0, 0]	n/a	FR1	0	R1136N
470.501	1.6	1059189	WORD	n/a	wordpools/wordpool_EN.txt	BLUSH	11	4	[0, 0, 0]	n/a	FR1	0	R1136N
472.901	1.6	1061589	WORD	n/a	wordpools/wordpool_EN.txt	BIRD	12	4	[0, 0, 0]	n/a	FR1	0	R1136N
474.518	0.001	1063206	DISTRACT_START	n/a	n/a	n/a	-999	4	[0, 0, 0]	n/a	FR1	0	R1136N
474.519	0.016	1063207	START	n/a	n/a	n/a	-999	4	[-999, -999, -999]	n/a	FR1	0	R1136N
474.535	6.833	1063223	PROB	6.798	n/a	n/a	-999	4	[8, 7, 3]	18.0	FR1	0	R1136N
481.368	5.485	1070056	PROB	5.454	n/a	n/a	-999	4	[8, 6, 3]	17.0	FR1	0	R1136N
486.853	2.366	1075540	PROB	2.336	n/a	n/a	-999	4	[1, 7, 1]	9.0	FR1	0	R1136N
489.219	4.852	1077906	PROB	4.819	n/a	n/a	-999	4	[4, 1, 7]	12.0	FR1	0	R1136N
494.071	3.879	1082758	PROB	3.879	n/a	n/a	-999	4	[1, 8, 5]	14.0	FR1	0	R1136N
497.95	0.005	1086637	STOP	n/a	n/a	n/a	-999	4	[-999, -999, -999]	n/a	FR1	0	R1136N
497.955	1.084	1086642	DISTRACT_END	n/a	n/a	n/a	-999	4	[0, 0, 0]	n/a	FR1	0	R1136N
499.039	1.523	1087726	REC_START	n/a	n/a	n/a	-999	4	[0, 0, 0]	n/a	FR1	0	R1136N
500.562	0.767	1089249	REC_WORD	1.523	n/a	RAKE	-999	4	[0, 0, 0]	n/a	FR1	0	R1136N
501.329	1.311	1090016	REC_WORD	2.29	n/a	ZOO	-999	4	[0, 0, 0]	n/a	FR1	0	R1136N
502.64	2.41	1091327	REC_WORD	3.601	n/a	HOUSE	-999	4	[0, 0, 0]	n/a	FR1	0	R1136N
505.05	24.003	1093736	REC_WORD	6.011	n/a	FLEA	-999	4	[0, 0, 0]	n/a	FR1	0	R1136N
529.053	2.357	1117738	REC_END	n/a	n/a	n/a	-999	4	[0, 0, 0]	n/a	FR1	0	R1136N
531.41	0.0	1120095	TRIAL	n/a	n/a	n/a	-999	5	[0, 0, 0]	n/a	FR1	0	R1136N
531.41	10.0	1120095	COUNTDOWN_START	n/a	n/a	n/a	-999	5	[0, 0, 0]	n/a	FR1	0	R1136N
541.838	0.008	1130523	COUNTDOWN_END	n/a	n/a	n/a	-999	5	[0, 0, 0]	n/a	FR1	0	R1136N
541.846	1.6	1130531	ORIENT	n/a	n/a	n/a	-999	5	[0, 0, 0]	n/a	FR1	0	R1136N
544.295	1.6	1132979	WORD	n/a	wordpools/wordpool_EN.txt	CRANE	1	5	[0, 0, 0]	n/a	FR1	0	R1136N
546.696	1.6	1135380	WORD	n/a	wordpools/wordpool_EN.txt	LOCK	2	5	[0, 0, 0]	n/a	FR1	0	R1136N
549.129	1.6	1137813	WORD	n/a	wordpools/wordpool_EN.txt	CROW	3	5	[0, 0, 0]	n/a	FR1	0	R1136N
551.547	1.6	1140231	WORD	n/a	wordpools/wordpool_EN.txt	OAK	4	5	[0, 0, 0]	n/a	FR1	0	R1136N
554.031	1.6	1142715	WORD	n/a	wordpools/wordpool_EN.txt	HOLE	5	5	[0, 0, 0]	n/a	FR1	0	R1136N
556.531	1.6	1145215	WORD	n/a	wordpools/wordpool_EN.txt	GUARD	6	5	[0, 0, 0]	n/a	FR1	0	R1136N
559.015	1.6	1147699	WORD	n/a	wordpools/wordpool_EN.txt	LIP	7	5	[0, 0, 0]	n/a	FR1	0	R1136N
561.448	1.6	1150132	WORD	n/a	wordpools/wordpool_EN.txt	TOOL	8	5	[0, 0, 0]	n/a	FR1	0	R1136N
563.883	1.6	1152566	WORD	n/a	wordpools/wordpool_EN.txt	COUCH	9	5	[0, 0, 0]	n/a	FR1	0	R1136N
566.265	1.6	1154948	WORD	n/a	wordpools/wordpool_EN.txt	LAWN	10	5	[0, 0, 0]	n/a	FR1	0	R1136N
568.8	1.6	1157483	WORD	n/a	wordpools/wordpool_EN.txt	TENT	11	5	[0, 0, 0]	n/a	FR1	0	R1136N
571.2	1.6	1159883	WORD	n/a	wordpools/wordpool_EN.txt	CUBE	12	5	[0, 0, 0]	n/a	FR1	0	R1136N
572.818	0.001	1161501	DISTRACT_START	n/a	n/a	n/a	-999	5	[0, 0, 0]	n/a	FR1	0	R1136N
572.819	0.015	1161502	START	n/a	n/a	n/a	-999	5	[-999, -999, -999]	n/a	FR1	0	R1136N
572.834	4.851	1161517	PROB	4.828	n/a	n/a	-999	5	[4, 6, 8]	18.0	FR1	0	R1136N
577.685	3.25	1166368	PROB	3.217	n/a	n/a	-999	5	[5, 4, 9]	18.0	FR1	0	R1136N
580.935	2.684	1169618	PROB	2.656	n/a	n/a	-999	5	[7, 4, 9]	20.0	FR1	0	R1136N
583.619	3.7	1172301	PROB	3.666	n/a	n/a	-999	5	[2, 3, 6]	11.0	FR1	0	R1136N
587.319	1.784	1176001	PROB	1.759	n/a	n/a	-999	5	[2, 2, 1]	5.0	FR1	0	R1136N
589.103	3.451	1177785	PROB	3.415	n/a	n/a	-999	5	[6, 5, 8]	19.0	FR1	0	R1136N
592.554	3.547	1181236	PROB	3.547	n/a	n/a	-999	5	[4, 5, 8]	17.0	FR1	0	R1136N
596.101	0.019	1184783	STOP	n/a	n/a	n/a	-999	5	[-999, -999, -999]	n/a	FR1	0	R1136N
596.12	1.201	1184802	DISTRACT_END	n/a	n/a	n/a	-999	5	[0, 0, 0]	n/a	FR1	0	R1136N
597.321	29.86	1186003	REC_START	n/a	n/a	n/a	-999	5	[0, 0, 0]	n/a	FR1	0	R1136N
627.181	0.151	1215861	REC_WORD_VV	29.86	n/a	<>	-999	5	[0, 0, 0]	n/a	FR1	0	R1136N
627.332	1.794	1216012	REC_END	n/a	n/a	n/a	-999	5	[0, 0, 0]	n/a	FR1	0	R1136N
629.126	0.0	1217806	TRIAL	n/a	n/a	n/a	-999	6	[0, 0, 0]	n/a	FR1	0	R1136N
629.126	10.0	1217806	COUNTDOWN_START	n/a	n/a	n/a	-999	6	[0, 0, 0]	n/a	FR1	0	R1136N
639.554	0.008	1228234	COUNTDOWN_END	n/a	n/a	n/a	-999	6	[0, 0, 0]	n/a	FR1	0	R1136N
639.562	1.6	1228242	ORIENT	n/a	n/a	n/a	-999	6	[0, 0, 0]	n/a	FR1	0	R1136N
642.178	1.6	1230858	WORD	n/a	wordpools/wordpool_EN.txt	KEY	1	6	[0, 0, 0]	n/a	FR1	0	R1136N
644.679	1.6	1233358	WORD	n/a	wordpools/wordpool_EN.txt	MAP	2	6	[0, 0, 0]	n/a	FR1	0	R1136N
647.212	1.6	1235891	WORD	n/a	wordpools/wordpool_EN.txt	CLOWN	3	6	[0, 0, 0]	n/a	FR1	0	R1136N
649.713	1.6	1238392	WORD	n/a	wordpools/wordpool_EN.txt	FRUIT	4	6	[0, 0, 0]	n/a	FR1	0	R1136N
652.263	1.6	1240942	WORD	n/a	wordpools/wordpool_EN.txt	FISH	5	6	[0, 0, 0]	n/a	FR1	0	R1136N
654.664	1.6	1243343	WORD	n/a	wordpools/wordpool_EN.txt	CHIEF	6	6	[0, 0, 0]	n/a	FR1	0	R1136N
657.28	1.6	1245959	WORD	n/a	wordpools/wordpool_EN.txt	MILK	7	6	[0, 0, 0]	n/a	FR1	0	R1136N
659.715	1.6	1248394	WORD	n/a	wordpools/wordpool_EN.txt	SHARK	8	6	[0, 0, 0]	n/a	FR1	0	R1136N
662.331	1.6	1251009	WORD	n/a	wordpools/wordpool_EN.txt	FORT	9	6	[0, 0, 0]	n/a	FR1	0	R1136N
664.899	1.6	1253577	WORD	n/a	wordpools/wordpool_EN.txt	SEA	10	6	[0, 0, 0]	n/a	FR1	0	R1136N
667.432	1.6	1256110	WORD	n/a	wordpools/wordpool_EN.txt	JUDGE	11	6	[0, 0, 0]	n/a	FR1	0	R1136N
669.867	1.6	1258545	WORD	n/a	wordpools/wordpool_EN.txt	PASTE	12	6	[0, 0, 0]	n/a	FR1	0	R1136N
671.483	0.001	1260161	DISTRACT_START	n/a	n/a	n/a	-999	6	[0, 0, 0]	n/a	FR1	0	R1136N
671.484	0.016	1260162	START	n/a	n/a	n/a	-999	6	[-999, -999, -999]	n/a	FR1	0	R1136N
671.5	6.301	1260178	PROB	6.274	n/a	n/a	-999	6	[9, 2, 2]	13.0	FR1	0	R1136N
677.801	2.167	1266479	PROB	2.141	n/a	n/a	-999	6	[1, 8, 1]	10.0	FR1	0	R1136N
679.968	4.051	1268646	PROB	4.03	n/a	n/a	-999	6	[3, 8, 8]	19.0	FR1	0	R1136N
684.019	5.15	1272696	PROB	5.13	n/a	n/a	-999	6	[7, 9, 6]	22.0	FR1	0	R1136N
689.169	2.365	1277846	PROB	2.365	n/a	n/a	-999	6	[5, 5, 5]	15.0	FR1	0	R1136N
691.534	0.02	1280211	STOP	n/a	n/a	n/a	-999	6	[-999, -999, -999]	n/a	FR1	0	R1136N
691.554	1.101	1280231	DISTRACT_END	n/a	n/a	n/a	-999	6	[0, 0, 0]	n/a	FR1	0	R1136N
692.655	3.101	1281332	REC_START	n/a	n/a	n/a	-999	6	[0, 0, 0]	n/a	FR1	0	R1136N
695.756	5.755	1284433	REC_WORD	3.101	n/a	SHARK	-999	6	[0, 0, 0]	n/a	FR1	0	R1136N
701.511	21.154	1290188	REC_WORD	8.856	n/a	KEY	-999	6	[0, 0, 0]	n/a	FR1	0	R1136N
722.665	1.693	1311340	REC_END	n/a	n/a	n/a	-999	6	[0, 0, 0]	n/a	FR1	0	R1136N
724.358	0.0	1313033	TRIAL	n/a	n/a	n/a	-999	7	[0, 0, 0]	n/a	FR1	0	R1136N
724.358	10.0	1313033	COUNTDOWN_START	n/a	n/a	n/a	-999	7	[0, 0, 0]	n/a	FR1	0	R1136N
734.786	0.008	1323461	COUNTDOWN_END	n/a	n/a	n/a	-999	7	[0, 0, 0]	n/a	FR1	0	R1136N
734.794	1.6	1323469	ORIENT	n/a	n/a	n/a	-999	7	[0, 0, 0]	n/a	FR1	0	R1136N
737.277	1.6	1325952	WORD	n/a	wordpools/wordpool_EN.txt	STEM	1	7	[0, 0, 0]	n/a	FR1	0	R1136N
739.828	1.6	1328503	WORD	n/a	wordpools/wordpool_EN.txt	WALL	2	7	[0, 0, 0]	n/a	FR1	0	R1136N
742.278	1.6	1330952	WORD	n/a	wordpools/wordpool_EN.txt	GRASS	3	7	[0, 0, 0]	n/a	FR1	0	R1136N
744.762	1.6	1333436	WORD	n/a	wordpools/wordpool_EN.txt	WEED	4	7	[0, 0, 0]	n/a	FR1	0	R1136N
747.312	1.6	1335986	WORD	n/a	wordpools/wordpool_EN.txt	SPONGE	5	7	[0, 0, 0]	n/a	FR1	0	R1136N
749.797	1.6	1338471	WORD	n/a	wordpools/wordpool_EN.txt	SHELL	6	7	[0, 0, 0]	n/a	FR1	0	R1136N
752.196	1.6	1340870	WORD	n/a	wordpools/wordpool_EN.txt	COIN	7	7	[0, 0, 0]	n/a	FR1	0	R1136N
754.597	1.6	1343271	WORD	n/a	wordpools/wordpool_EN.txt	MAT	8	7	[0, 0, 0]	n/a	FR1	0	R1136N
757.23	1.6	1345904	WORD	n/a	wordpools/wordpool_EN.txt	LEAF	9	7	[0, 0, 0]	n/a	FR1	0	R1136N
759.732	1.6	1348406	WORD	n/a	wordpools/wordpool_EN.txt	ROOT	10	7	[0, 0, 0]	n/a	FR1	0	R1136N
762.331	1.6	1351004	WORD	n/a	wordpools/wordpool_EN.txt	SNAIL	11	7	[0, 0, 0]	n/a	FR1	0	R1136N
764.749	1.6	1353422	WORD	n/a	wordpools/wordpool_EN.txt	WORM	12	7	[0, 0, 0]	n/a	FR1	0	R1136N
766.365	0.001	1355038	DISTRACT_START	n/a	n/a	n/a	-999	7	[0, 0, 0]	n/a	FR1	0	R1136N
766.366	0.016	1355039	START	n/a	n/a	n/a	-999	7	[-999, -999, -999]	n/a	FR1	0	R1136N
766.382	5.784	1355055	PROB	5.751	n/a	n/a	-999	7	[3, 4, 2]	9.0	FR1	0	R1136N
772.166	3.768	1360839	PROB	3.736	n/a	n/a	-999	7	[9, 2, 2]	13.0	FR1	0	R1136N
775.934	3.034	1364607	PROB	3.008	n/a	n/a	-999	7	[4, 3, 9]	16.0	FR1	0	R1136N
778.968	3.283	1367641	PROB	3.253	n/a	n/a	-999	7	[2, 8, 9]	19.0	FR1	0	R1136N
782.251	4.555	1370923	PROB	4.555	n/a	n/a	-999	7	[3, 2, 6]	11.0	FR1	0	R1136N
786.806	0.013	1375478	STOP	n/a	n/a	n/a	-999	7	[-999, -999, -999]	n/a	FR1	0	R1136N
786.819	1.151	1375491	DISTRACT_END	n/a	n/a	n/a	-999	7	[0, 0, 0]	n/a	FR1	0	R1136N
787.97	2.346	1376642	REC_START	n/a	n/a	n/a	-999	7	[0, 0, 0]	n/a	FR1	0	R1136N
790.316	1.281	1378988	REC_WORD	2.346	n/a	COIN	-999	7	[0, 0, 0]	n/a	FR1	0	R1136N
791.597	26.387	1380269	REC_WORD	3.627	n/a	WORM	-999	7	[0, 0, 0]	n/a	FR1	0	R1136N
817.984	1.957	1406655	REC_END	n/a	n/a	n/a	-999	7	[0, 0, 0]	n/a	FR1	0	R1136N
819.941	10.0	1408612	COUNTDOWN_START	n/a	n/a	n/a	-999	8	[0, 0, 0]	n/a	FR1	0	R1136N
819.942	10.427	1408613	TRIAL	n/a	n/a	n/a	-999	8	[0, 0, 0]	n/a	FR1	0	R1136N
830.369	0.007	1419039	COUNTDOWN_END	n/a	n/a	n/a	-999	8	[0, 0, 0]	n/a	FR1	0	R1136N
830.376	1.6	1419046	ORIENT	n/a	n/a	n/a	-999	8	[0, 0, 0]	n/a	FR1	0	R1136N
832.76	1.6	1421430	WORD	n/a	wordpools/wordpool_EN.txt	SCHOOL	1	8	[0, 0, 0]	n/a	FR1	0	R1136N
835.21	1.6	1423880	WORD	n/a	wordpools/wordpool_EN.txt	DRESS	2	8	[0, 0, 0]	n/a	FR1	0	R1136N
837.711	1.6	1426381	WORD	n/a	wordpools/wordpool_EN.txt	HORN	3	8	[0, 0, 0]	n/a	FR1	0	R1136N
840.161	1.6	1428830	WORD	n/a	wordpools/wordpool_EN.txt	ROOF	4	8	[0, 0, 0]	n/a	FR1	0	R1136N
842.545	1.6	1431214	WORD	n/a	wordpools/wordpool_EN.txt	STREET	5	8	[0, 0, 0]	n/a	FR1	0	R1136N
845.079	1.6	1433748	WORD	n/a	wordpools/wordpool_EN.txt	SLEEVE	6	8	[0, 0, 0]	n/a	FR1	0	R1136N
847.646	1.6	1436315	WORD	n/a	wordpools/wordpool_EN.txt	DART	7	8	[0, 0, 0]	n/a	FR1	0	R1136N
850.046	1.6	1438715	WORD	n/a	wordpools/wordpool_EN.txt	THUMB	8	8	[0, 0, 0]	n/a	FR1	0	R1136N
852.513	1.6	1441182	WORD	n/a	wordpools/wordpool_EN.txt	PEN	9	8	[0, 0, 0]	n/a	FR1	0	R1136N
854.981	1.6	1443650	WORD	n/a	wordpools/wordpool_EN.txt	VEST	10	8	[0, 0, 0]	n/a	FR1	0	R1136N
857.413	1.6	1446082	WORD	n/a	wordpools/wordpool_EN.txt	STICK	11	8	[0, 0, 0]	n/a	FR1	0	R1136N
859.965	1.6	1448633	WORD	n/a	wordpools/wordpool_EN.txt	PURSE	12	8	[0, 0, 0]	n/a	FR1	0	R1136N
861.582	0.001	1450250	DISTRACT_START	n/a	n/a	n/a	-999	8	[0, 0, 0]	n/a	FR1	0	R1136N
861.583	0.015	1450251	START	n/a	n/a	n/a	-999	8	[-999, -999, -999]	n/a	FR1	0	R1136N
861.598	4.901	1450266	PROB	4.871	n/a	n/a	-999	8	[1, 9, 7]	17.0	FR1	0	R1136N
866.499	5.65	1455167	PROB	5.626	n/a	n/a	-999	8	[6, 8, 4]	18.0	FR1	0	R1136N
872.149	3.835	1460817	PROB	3.809	n/a	n/a	-999	8	[7, 5, 3]	15.0	FR1	0	R1136N
875.984	3.534	1464652	PROB	3.509	n/a	n/a	-999	8	[2, 4, 7]	13.0	FR1	0	R1136N
879.518	3.967	1468185	PROB	3.967	n/a	n/a	-999	8	[4, 2, 1]	7.0	FR1	0	R1136N
883.485	0.017	1472152	STOP	n/a	n/a	n/a	-999	8	[-999, -999, -999]	n/a	FR1	0	R1136N
883.502	1.202	1472169	DISTRACT_END	n/a	n/a	n/a	-999	8	[0, 0, 0]	n/a	FR1	0	R1136N
884.704	1.634	1473371	REC_START	n/a	n/a	n/a	-999	8	[0, 0, 0]	n/a	FR1	0	R1136N
886.338	1.772	1475005	REC_WORD	1.634	n/a	SCHOOL	-999	8	[0, 0, 0]	n/a	FR1	0	R1136N
888.11	1.131	1476777	REC_WORD	3.406	n/a	VEST	-999	8	[0, 0, 0]	n/a	FR1	0	R1136N
889.241	1.663	1477908	REC_WORD	4.537	n/a	PEN	-999	8	[0, 0, 0]	n/a	FR1	0	R1136N
890.904	23.809	1479571	REC_WORD	6.2	n/a	DART	-999	8	[0, 0, 0]	n/a	FR1	0	R1136N
914.713	1.911	1503379	REC_END	n/a	n/a	n/a	-999	8	[0, 0, 0]	n/a	FR1	0	R1136N
916.624	0.0	1505290	TRIAL	n/a	n/a	n/a	-999	9	[0, 0, 0]	n/a	FR1	0	R1136N
916.624	10.0	1505290	COUNTDOWN_START	n/a	n/a	n/a	-999	9	[0, 0, 0]	n/a	FR1	0	R1136N
927.052	0.007	1515717	COUNTDOWN_END	n/a	n/a	n/a	-999	9	[0, 0, 0]	n/a	FR1	0	R1136N
927.059	1.6	1515724	ORIENT	n/a	n/a	n/a	-999	9	[0, 0, 0]	n/a	FR1	0	R1136N
929.643	1.6	1518308	WORD	n/a	wordpools/wordpool_EN.txt	DITCH	1	9	[0, 0, 0]	n/a	FR1	0	R1136N
932.043	1.6	1520708	WORD	n/a	wordpools/wordpool_EN.txt	CHIN	2	9	[0, 0, 0]	n/a	FR1	0	R1136N
934.493	1.6	1523158	WORD	n/a	wordpools/wordpool_EN.txt	BRIDGE	3	9	[0, 0, 0]	n/a	FR1	0	R1136N
936.961	1.6	1525626	WORD	n/a	wordpools/wordpool_EN.txt	TRUCK	4	9	[0, 0, 0]	n/a	FR1	0	R1136N
939.578	1.6	1528242	WORD	n/a	wordpools/wordpool_EN.txt	SMOKE	5	9	[0, 0, 0]	n/a	FR1	0	R1136N
942.161	1.6	1530825	WORD	n/a	wordpools/wordpool_EN.txt	STEAM	6	9	[0, 0, 0]	n/a	FR1	0	R1136N
944.629	1.6	1533293	WORD	n/a	wordpools/wordpool_EN.txt	SLIME	7	9	[0, 0, 0]	n/a	FR1	0	R1136N
947.046	1.6	1535710	WORD	n/a	wordpools/wordpool_EN.txt	SHOE	8	9	[0, 0, 0]	n/a	FR1	0	R1136N
949.495	1.6	1538159	WORD	n/a	wordpools/wordpool_EN.txt	BUSH	9	9	[0, 0, 0]	n/a	FR1	0	R1136N
951.88	1.6	1540544	WORD	n/a	wordpools/wordpool_EN.txt	BARN	10	9	[0, 0, 0]	n/a	FR1	0	R1136N
954.279	1.6	1542943	WORD	n/a	wordpools/wordpool_EN.txt	ROAD	11	9	[0, 0, 0]	n/a	FR1	0	R1136N
956.647	1.6	1545311	WORD	n/a	wordpools/wordpool_EN.txt	FORK	12	9	[0, 0, 0]	n/a	FR1	0	R1136N
958.263	0.001	1546927	DISTRACT_START	n/a	n/a	n/a	-999	9	[0, 0, 0]	n/a	FR1	0	R1136N
958.264	0.016	1546928	START	n/a	n/a	n/a	-999	9	[-999, -999, -999]	n/a	FR1	0	R1136N
958.28	8.101	1546944	PROB	8.069	n/a	n/a	-999	9	[9, 6, 8]	22.0	FR1	0	R1136N
966.381	3.319	1555044	PROB	3.289	n/a	n/a	-999	9	[1, 5, 6]	12.0	FR1	0	R1136N
969.7	4.716	1558363	PROB	4.689	n/a	n/a	-999	9	[4, 5, 7]	16.0	FR1	0	R1136N
974.416	4.462	1563079	PROB	4.462	n/a	n/a	-999	9	[3, 1, 4]	8.0	FR1	0	R1136N
978.878	0.006	1567540	STOP	n/a	n/a	n/a	-999	9	[-999, -999, -999]	n/a	FR1	0	R1136N
978.884	1.201	1567546	DISTRACT_END	n/a	n/a	n/a	-999	9	[0, 0, 0]	n/a	FR1	0	R1136N
980.085	29.767	1568747	REC_START	n/a	n/a	n/a	-999	9	[0, 0, 0]	n/a	FR1	0	R1136N
1009.852	0.246	1598513	REC_WORD_VV	29.767	n/a	<>	-999	9	[0, 0, 0]	n/a	FR1	0	R1136N
1010.098	2.057	1598759	REC_END	n/a	n/a	n/a	-999	9	[0, 0, 0]	n/a	FR1	0	R1136N
1012.155	10.0	1600816	COUNTDOWN_START	n/a	n/a	n/a	-999	10	[0, 0, 0]	n/a	FR1	0	R1136N
1012.156	10.427	1600817	TRIAL	n/a	n/a	n/a	-999	10	[0, 0, 0]	n/a	FR1	0	R1136N
1022.583	0.008	1611243	COUNTDOWN_END	n/a	n/a	n/a	-999	10	[0, 0, 0]	n/a	FR1	0	R1136N
1022.591	1.6	1611251	ORIENT	n/a	n/a	n/a	-999	10	[0, 0, 0]	n/a	FR1	0	R1136N
1025.158	1.6	1613818	WORD	n/a	wordpools/wordpool_EN.txt	BENCH	1	10	[0, 0, 0]	n/a	FR1	0	R1136N
1027.609	1.6	1616269	WORD	n/a	wordpools/wordpool_EN.txt	STRAW	2	10	[0, 0, 0]	n/a	FR1	0	R1136N
1030.009	1.6	1618669	WORD	n/a	wordpools/wordpool_EN.txt	YARD	3	10	[0, 0, 0]	n/a	FR1	0	R1136N
1032.56	1.6	1621220	WORD	n/a	wordpools/wordpool_EN.txt	FOOT	4	10	[0, 0, 0]	n/a	FR1	0	R1136N
1034.994	1.6	1623654	WORD	n/a	wordpools/wordpool_EN.txt	SHIRT	5	10	[0, 0, 0]	n/a	FR1	0	R1136N
1037.376	1.6	1626036	WORD	n/a	wordpools/wordpool_EN.txt	BOWL	6	10	[0, 0, 0]	n/a	FR1	0	R1136N
1039.794	1.6	1628453	WORD	n/a	wordpools/wordpool_EN.txt	FROG	7	10	[0, 0, 0]	n/a	FR1	0	R1136N
1042.377	1.6	1631036	WORD	n/a	wordpools/wordpool_EN.txt	ROSE	8	10	[0, 0, 0]	n/a	FR1	0	R1136N
1044.979	1.6	1633638	WORD	n/a	wordpools/wordpool_EN.txt	DOOR	9	10	[0, 0, 0]	n/a	FR1	0	R1136N
1047.411	1.6	1636070	WORD	n/a	wordpools/wordpool_EN.txt	BRUSH	10	10	[0, 0, 0]	n/a	FR1	0	R1136N
1049.913	1.6	1638572	WORD	n/a	wordpools/wordpool_EN.txt	CHAIR	11	10	[0, 0, 0]	n/a	FR1	0	R1136N
1052.479	1.6	1641138	WORD	n/a	wordpools/wordpool_EN.txt	TIE	12	10	[0, 0, 0]	n/a	FR1	0	R1136N
1054.096	0.001	1642755	DISTRACT_START	n/a	n/a	n/a	-999	10	[0, 0, 0]	n/a	FR1	0	R1136N
1054.097	0.015	1642756	START	n/a	n/a	n/a	-999	10	[-999, -999, -999]	n/a	FR1	0	R1136N
1054.112	5.502	1642771	PROB	5.478	n/a	n/a	-999	10	[4, 6, 5]	15.0	FR1	0	R1136N
1059.614	5.051	1648272	PROB	5.017	n/a	n/a	-999	10	[8, 7, 8]	23.0	FR1	0	R1136N
1064.665	4.084	1653323	PROB	4.061	n/a	n/a	-999	10	[5, 7, 9]	21.0	FR1	0	R1136N
1068.749	3.834	1657407	PROB	3.801	n/a	n/a	-999	10	[8, 5, 4]	17.0	FR1	0	R1136N
1072.583	3.55	1661241	PROB	3.55	n/a	n/a	-999	10	[2, 3, 1]	6.0	FR1	0	R1136N
1076.133	0.016	1664791	STOP	n/a	n/a	n/a	-999	10	[-999, -999, -999]	n/a	FR1	0	R1136N
1076.149	1.134	1664807	DISTRACT_END	n/a	n/a	n/a	-999	10	[0, 0, 0]	n/a	FR1	0	R1136N
1077.283	1.204	1665940	REC_START	n/a	n/a	n/a	-999	10	[0, 0, 0]	n/a	FR1	0	R1136N
1078.487	0.912	1667144	REC_WORD	1.204	n/a	CHAIR	-999	10	[0, 0, 0]	n/a	FR1	0	R1136N
1079.399	27.898	1668056	REC_WORD	2.116	n/a	TIE	-999	10	[0, 0, 0]	n/a	FR1	0	R1136N
1107.297	2.124	1695953	REC_END	n/a	n/a	n/a	-999	10	[0, 0, 0]	n/a	FR1	0	R1136N
1109.421	10.0	1698077	COUNTDOWN_START	n/a	n/a	n/a	-999	11	[0, 0, 0]	n/a	FR1	0	R1136N
1109.422	10.427	1698078	TRIAL	n/a	n/a	n/a	-999	11	[0, 0, 0]	n/a	FR1	0	R1136N
1119.849	0.008	1708504	COUNTDOWN_END	n/a	n/a	n/a	-999	11	[0, 0, 0]	n/a	FR1	0	R1136N
1119.857	1.6	1708512	ORIENT	n/a	n/a	n/a	-999	11	[0, 0, 0]	n/a	FR1	0	R1136N
1122.457	1.6	1711112	WORD	n/a	wordpools/wordpool_EN.txt	JET	1	11	[0, 0, 0]	n/a	FR1	0	R1136N
1124.992	1.6	1713647	WORD	n/a	wordpools/wordpool_EN.txt	FILM	2	11	[0, 0, 0]	n/a	FR1	0	R1136N
1127.475	1.6	1716130	WORD	n/a	wordpools/wordpool_EN.txt	MOLE	3	11	[0, 0, 0]	n/a	FR1	0	R1136N
1130.009	1.6	1718664	WORD	n/a	wordpools/wordpool_EN.txt	BOAT	4	11	[0, 0, 0]	n/a	FR1	0	R1136N
1132.576	1.6	1721231	WORD	n/a	wordpools/wordpool_EN.txt	INK	5	11	[0, 0, 0]	n/a	FR1	0	R1136N
1135.142	1.6	1723797	WORD	n/a	wordpools/wordpool_EN.txt	BOMB	6	11	[0, 0, 0]	n/a	FR1	0	R1136N
1137.677	1.6	1726331	WORD	n/a	wordpools/wordpool_EN.txt	KITE	7	11	[0, 0, 0]	n/a	FR1	0	R1136N
1140.143	1.6	1728797	WORD	n/a	wordpools/wordpool_EN.txt	SOAP	8	11	[0, 0, 0]	n/a	FR1	0	R1136N
1142.661	1.6	1731315	WORD	n/a	wordpools/wordpool_EN.txt	SPARK	9	11	[0, 0, 0]	n/a	FR1	0	R1136N
1145.177	1.6	1733831	WORD	n/a	wordpools/wordpool_EN.txt	WHEEL	10	11	[0, 0, 0]	n/a	FR1	0	R1136N
1147.579	1.6	1736233	WORD	n/a	wordpools/wordpool_EN.txt	POND	11	11	[0, 0, 0]	n/a	FR1	0	R1136N
1150.178	1.6	1738832	WORD	n/a	wordpools/wordpool_EN.txt	NET	12	11	[0, 0, 0]	n/a	FR1	0	R1136N
1151.779	0.001	1740433	DISTRACT_START	n/a	n/a	n/a	-999	11	[0, 0, 0]	n/a	FR1	0	R1136N
1151.78	0.016	1740434	START	n/a	n/a	n/a	-999	11	[-999, -999, -999]	n/a	FR1	0	R1136N
1151.796	5.583	1740450	PROB	5.553	n/a	n/a	-999	11	[4, 9, 3]	16.0	FR1	0	R1136N
1157.379	4.652	1746032	PROB	4.627	n/a	n/a	-999	11	[4, 7, 7]	18.0	FR1	0	R1136N
1162.031	3.15	1750684	PROB	3.126	n/a	n/a	-999	11	[2, 2, 9]	13.0	FR1	0	R1136N
1165.181	2.501	1753834	PROB	2.465	n/a	n/a	-999	11	[4, 1, 2]	7.0	FR1	0	R1136N
1167.682	2.2	1756335	PROB	2.164	n/a	n/a	-999	11	[6, 2, 4]	12.0	FR1	0	R1136N
1169.882	2.283	1758535	PROB	2.283	n/a	n/a	-999	11	[6, 2, 3]	11.0	FR1	0	R1136N
1172.165	0.017	1760818	STOP	n/a	n/a	n/a	-999	11	[-999, -999, -999]	n/a	FR1	0	R1136N
1172.182	1.1	1760835	DISTRACT_END	n/a	n/a	n/a	-999	11	[0, 0, 0]	n/a	FR1	0	R1136N
1173.282	0.727	1761935	REC_START	n/a	n/a	n/a	-999	11	[0, 0, 0]	n/a	FR1	0	R1136N
1174.009	0.829	1762662	REC_WORD	0.727	n/a	WHEEL	-999	11	[0, 0, 0]	n/a	FR1	0	R1136N
1174.838	28.455	1763491	REC_WORD	1.556	n/a	POND	-999	11	[0, 0, 0]	n/a	FR1	0	R1136N
1203.293	2.595	1791944	REC_END	n/a	n/a	n/a	-999	11	[0, 0, 0]	n/a	FR1	0	R1136N
1205.888	0.0	1794539	TRIAL	n/a	n/a	n/a	-999	12	[0, 0, 0]	n/a	FR1	0	R1136N
1205.888	10.0	1794539	COUNTDOWN_START	n/a	n/a	n/a	-999	12	[0, 0, 0]	n/a	FR1	0	R1136N
1216.316	0.006	1804966	COUNTDOWN_END	n/a	n/a	n/a	-999	12	[0, 0, 0]	n/a	FR1	0	R1136N
1216.322	1.6	1804972	ORIENT	n/a	n/a	n/a	-999	12	[0, 0, 0]	n/a	FR1	0	R1136N
1218.707	1.6	1807357	WORD	n/a	wordpools/wordpool_EN.txt	STRING	1	12	[0, 0, 0]	n/a	FR1	0	R1136N
1221.223	1.6	1809873	WORD	n/a	wordpools/wordpool_EN.txt	CLOUD	2	12	[0, 0, 0]	n/a	FR1	0	R1136N
1223.608	1.6	1812258	WORD	n/a	wordpools/wordpool_EN.txt	HOOK	3	12	[0, 0, 0]	n/a	FR1	0	R1136N
1226.157	1.6	1814807	WORD	n/a	wordpools/wordpool_EN.txt	PEA	4	12	[0, 0, 0]	n/a	FR1	0	R1136N
1228.759	1.6	1817409	WORD	n/a	wordpools/wordpool_EN.txt	TREE	5	12	[0, 0, 0]	n/a	FR1	0	R1136N
1231.341	1.6	1819991	WORD	n/a	wordpools/wordpool_EN.txt	HEN	6	12	[0, 0, 0]	n/a	FR1	0	R1136N
1233.743	1.6	1822393	WORD	n/a	wordpools/wordpool_EN.txt	OWL	7	12	[0, 0, 0]	n/a	FR1	0	R1136N
1236.259	1.6	1824908	WORD	n/a	wordpools/wordpool_EN.txt	PIN	8	12	[0, 0, 0]	n/a	FR1	0	R1136N
1238.86	1.6	1827509	WORD	n/a	wordpools/wordpool_EN.txt	PLANE	9	12	[0, 0, 0]	n/a	FR1	0	R1136N
1241.31	1.6	1829959	WORD	n/a	wordpools/wordpool_EN.txt	SKY	10	12	[0, 0, 0]	n/a	FR1	0	R1136N
1243.695	1.6	1832344	WORD	n/a	wordpools/wordpool_EN.txt	NEST	11	12	[0, 0, 0]	n/a	FR1	0	R1136N
1246.311	1.6	1834960	WORD	n/a	wordpools/wordpool_EN.txt	SQUARE	12	12	[0, 0, 0]	n/a	FR1	0	R1136N
1247.929	0.0	1836578	DISTRACT_START	n/a	n/a	n/a	-999	12	[0, 0, 0]	n/a	FR1	0	R1136N
1247.929	0.016	1836578	START	n/a	n/a	n/a	-999	12	[-999, -999, -999]	n/a	FR1	0	R1136N
1247.945	3.917	1836594	PROB	3.893	n/a	n/a	-999	12	[6, 5, 4]	15.0	FR1	0	R1136N
1251.862	2.651	1840511	PROB	2.623	n/a	n/a	-999	12	[6, 4, 7]	17.0	FR1	0	R1136N
1254.513	2.484	1843162	PROB	2.461	n/a	n/a	-999	12	[6, 5, 5]	16.0	FR1	0	R1136N
1256.997	1.633	1845645	PROB	1.601	n/a	n/a	-999	12	[2, 2, 1]	5.0	FR1	0	R1136N
1258.63	5.234	1847278	PROB	5.2	n/a	n/a	-999	12	[7, 9, 9]	25.0	FR1	0	R1136N
1263.864	3.668	1852512	PROB	3.646	n/a	n/a	-999	12	[2, 3, 4]	9.0	FR1	0	R1136N
1267.532	1.849	1856180	PROB	1.849	n/a	n/a	-999	12	[1, 2, 8]	11.0	FR1	0	R1136N
1269.381	0.017	1858029	STOP	n/a	n/a	n/a	-999	12	[-999, -999, -999]	n/a	FR1	0	R1136N
1269.398	1.034	1858046	DISTRACT_END	n/a	n/a	n/a	-999	12	[0, 0, 0]	n/a	FR1	0	R1136N
1270.432	2.33	1859080	REC_START	n/a	n/a	n/a	-999	12	[0, 0, 0]	n/a	FR1	0	R1136N
1272.762	0.769	1861410	REC_WORD	2.33	n/a	HOOK	-999	12	[0, 0, 0]	n/a	FR1	0	R1136N
1273.531	3.303	1862179	REC_WORD	3.099	n/a	HEN	-999	12	[0, 0, 0]	n/a	FR1	0	R1136N
1276.834	17.095	1865481	REC_WORD	6.402	n/a	TREE	-999	12	[0, 0, 0]	n/a	FR1	0	R1136N
1293.929	6.513	1882576	REC_WORD	23.497	n/a	OWL	-999	12	[0, 0, 0]	n/a	FR1	0	R1136N
1300.442	2.412	1889088	REC_END	n/a	n/a	n/a	-999	12	[0, 0, 0]	n/a	FR1	0	R1136N
1302.854	0.0	1891500	TRIAL	n/a	n/a	n/a	-999	13	[0, 0, 0]	n/a	FR1	0	R1136N
1302.854	10.0	1891500	COUNTDOWN_START	n/a	n/a	n/a	-999	13	[0, 0, 0]	n/a	FR1	0	R1136N
1313.282	0.006	1901928	COUNTDOWN_END	n/a	n/a	n/a	-999	13	[0, 0, 0]	n/a	FR1	0	R1136N
1313.288	1.6	1901934	ORIENT	n/a	n/a	n/a	-999	13	[0, 0, 0]	n/a	FR1	0	R1136N
1315.79	1.6	1904435	WORD	n/a	wordpools/wordpool_EN.txt	STEAK	1	13	[0, 0, 0]	n/a	FR1	0	R1136N
1318.406	1.6	1907051	WORD	n/a	wordpools/wordpool_EN.txt	EAR	2	13	[0, 0, 0]	n/a	FR1	0	R1136N
1320.874	1.6	1909519	WORD	n/a	wordpools/wordpool_EN.txt	MOUTH	3	13	[0, 0, 0]	n/a	FR1	0	R1136N
1323.473	1.6	1912118	WORD	n/a	wordpools/wordpool_EN.txt	CAGE	4	13	[0, 0, 0]	n/a	FR1	0	R1136N
1325.858	1.6	1914503	WORD	n/a	wordpools/wordpool_EN.txt	PHONE	5	13	[0, 0, 0]	n/a	FR1	0	R1136N
1328.407	1.6	1917052	WORD	n/a	wordpools/wordpool_EN.txt	MULE	6	13	[0, 0, 0]	n/a	FR1	0	R1136N
1330.859	1.6	1919504	WORD	n/a	wordpools/wordpool_EN.txt	ARK	7	13	[0, 0, 0]	n/a	FR1	0	R1136N
1333.392	1.6	1922037	WORD	n/a	wordpools/wordpool_EN.txt	BOY	8	13	[0, 0, 0]	n/a	FR1	0	R1136N
1336.01	1.6	1924654	WORD	n/a	wordpools/wordpool_EN.txt	TEETH	9	13	[0, 0, 0]	n/a	FR1	0	R1136N
1338.577	1.6	1927221	WORD	n/a	wordpools/wordpool_EN.txt	SEAL	10	13	[0, 0, 0]	n/a	FR1	0	R1136N
1340.994	1.6	1929638	WORD	n/a	wordpools/wordpool_EN.txt	TOOTH	11	13	[0, 0, 0]	n/a	FR1	0	R1136N
1343.377	1.6	1932021	WORD	n/a	wordpools/wordpool_EN.txt	PEAR	12	13	[0, 0, 0]	n/a	FR1	0	R1136N
1344.995	0.0	1933639	DISTRACT_START	n/a	n/a	n/a	-999	13	[0, 0, 0]	n/a	FR1	0	R1136N
1344.995	0.016	1933639	START	n/a	n/a	n/a	-999	13	[-999, -999, -999]	n/a	FR1	0	R1136N
1345.011	6.034	1933655	PROB	6.011	n/a	n/a	-999	13	[7, 4, 7]	18.0	FR1	0	R1136N
1351.045	3.067	1939689	PROB	3.033	n/a	n/a	-999	13	[7, 4, 9]	20.0	FR1	0	R1136N
1354.112	3.935	1942755	PROB	3.902	n/a	n/a	-999	13	[2, 2, 8]	12.0	FR1	0	R1136N
1358.047	2.533	1946690	PROB	2.503	n/a	n/a	-999	13	[2, 3, 7]	12.0	FR1	0	R1136N
1360.58	3.184	1949223	PROB	3.162	n/a	n/a	-999	13	[5, 5, 7]	17.0	FR1	0	R1136N
1363.764	2.369	1952407	PROB	2.369	n/a	n/a	-999	13	[4, 9, 1]	14.0	FR1	0	R1136N
1366.133	0.014	1954776	STOP	n/a	n/a	n/a	-999	13	[-999, -999, -999]	n/a	FR1	0	R1136N
1366.147	1.202	1954790	DISTRACT_END	n/a	n/a	n/a	-999	13	[0, 0, 0]	n/a	FR1	0	R1136N
1367.349	2.835	1955992	REC_START	n/a	n/a	n/a	-999	13	[0, 0, 0]	n/a	FR1	0	R1136N
1370.184	0.755	1958827	REC_WORD	2.835	n/a	TOOTH	-999	13	[0, 0, 0]	n/a	FR1	0	R1136N
1370.939	26.419	1959582	REC_WORD	3.59	n/a	TEETH	-999	13	[0, 0, 0]	n/a	FR1	0	R1136N
1397.358	1.662	1985999	REC_END	n/a	n/a	n/a	-999	13	[0, 0, 0]	n/a	FR1	0	R1136N
1399.02	10.0	1987661	COUNTDOWN_START	n/a	n/a	n/a	-999	14	[0, 0, 0]	n/a	FR1	0	R1136N
1399.02	10.428	1987661	TRIAL	n/a	n/a	n/a	-999	14	[0, 0, 0]	n/a	FR1	0	R1136N
1409.448	0.006	1998089	COUNTDOWN_END	n/a	n/a	n/a	-999	14	[0, 0, 0]	n/a	FR1	0	R1136N
1409.454	1.6	1998095	ORIENT	n/a	n/a	n/a	-999	14	[0, 0, 0]	n/a	FR1	0	R1136N
1411.889	1.6	2000530	WORD	n/a	wordpools/wordpool_EN.txt	SMILE	1	14	[0, 0, 0]	n/a	FR1	0	R1136N
1414.305	1.6	2002945	WORD	n/a	wordpools/wordpool_EN.txt	FAN	2	14	[0, 0, 0]	n/a	FR1	0	R1136N
1416.69	1.6	2005330	WORD	n/a	wordpools/wordpool_EN.txt	CART	3	14	[0, 0, 0]	n/a	FR1	0	R1136N
1419.256	1.6	2007896	WORD	n/a	wordpools/wordpool_EN.txt	SEAT	4	14	[0, 0, 0]	n/a	FR1	0	R1136N
1421.64	1.6	2010280	WORD	n/a	wordpools/wordpool_EN.txt	BOX	5	14	[0, 0, 0]	n/a	FR1	0	R1136N
1424.24	1.6	2012880	WORD	n/a	wordpools/wordpool_EN.txt	GLOVE	6	14	[0, 0, 0]	n/a	FR1	0	R1136N
1426.741	1.6	2015381	WORD	n/a	wordpools/wordpool_EN.txt	WAND	7	14	[0, 0, 0]	n/a	FR1	0	R1136N
1429.224	1.6	2017864	WORD	n/a	wordpools/wordpool_EN.txt	ARM	8	14	[0, 0, 0]	n/a	FR1	0	R1136N
1431.726	1.6	2020366	WORD	n/a	wordpools/wordpool_EN.txt	BAG	9	14	[0, 0, 0]	n/a	FR1	0	R1136N
1434.125	1.6	2022764	WORD	n/a	wordpools/wordpool_EN.txt	BROOM	10	14	[0, 0, 0]	n/a	FR1	0	R1136N
1436.676	1.6	2025315	WORD	n/a	wordpools/wordpool_EN.txt	FENCE	11	14	[0, 0, 0]	n/a	FR1	0	R1136N
1439.192	1.6	2027831	WORD	n/a	wordpools/wordpool_EN.txt	SIGN	12	14	[0, 0, 0]	n/a	FR1	0	R1136N
1440.81	0.001	2029449	DISTRACT_START	n/a	n/a	n/a	-999	14	[0, 0, 0]	n/a	FR1	0	R1136N
1440.811	0.016	2029450	START	n/a	n/a	n/a	-999	14	[-999, -999, -999]	n/a	FR1	0	R1136N
1440.827	3.3	2029466	PROB	3.274	n/a	n/a	-999	14	[6, 1, 1]	8.0	FR1	0	R1136N
1444.127	2.701	2032766	PROB	2.679	n/a	n/a	-999	14	[4, 1, 9]	14.0	FR1	0	R1136N
1446.828	2.549	2035467	PROB	2.529	n/a	n/a	-999	14	[9, 3, 8]	20.0	FR1	0	R1136N
1449.377	3.469	2038016	PROB	3.437	n/a	n/a	-999	14	[6, 2, 4]	12.0	FR1	0	R1136N
1452.846	3.532	2041484	PROB	3.511	n/a	n/a	-999	14	[9, 5, 5]	19.0	FR1	0	R1136N
1456.378	2.968	2045016	PROB	2.939	n/a	n/a	-999	14	[4, 3, 4]	11.0	FR1	0	R1136N
1459.346	3.532	2047984	PROB	3.532	n/a	n/a	-999	14	[3, 6, 8]	17.0	FR1	0	R1136N
1462.878	0.019	2051516	STOP	n/a	n/a	n/a	-999	14	[-999, -999, -999]	n/a	FR1	0	R1136N
1462.897	1.068	2051535	DISTRACT_END	n/a	n/a	n/a	-999	14	[0, 0, 0]	n/a	FR1	0	R1136N
1463.965	1.249	2052603	REC_START	n/a	n/a	n/a	-999	14	[0, 0, 0]	n/a	FR1	0	R1136N
1465.214	28.761	2053852	REC_WORD	1.249	n/a	FENCE	-999	14	[0, 0, 0]	n/a	FR1	0	R1136N
1493.975	1.36	2082611	REC_END	n/a	n/a	n/a	-999	14	[0, 0, 0]	n/a	FR1	0	R1136N
1495.335	0.0	2083971	TRIAL	n/a	n/a	n/a	-999	15	[0, 0, 0]	n/a	FR1	0	R1136N
1495.335	10.0	2083971	COUNTDOWN_START	n/a	n/a	n/a	-999	15	[0, 0, 0]	n/a	FR1	0	R1136N
1505.763	0.008	2094399	COUNTDOWN_END	n/a	n/a	n/a	-999	15	[0, 0, 0]	n/a	FR1	0	R1136N
1505.771	1.6	2094407	ORIENT	n/a	n/a	n/a	-999	15	[0, 0, 0]	n/a	FR1	0	R1136N
1508.17	1.6	2096806	WORD	n/a	wordpools/wordpool_EN.txt	HAT	1	15	[0, 0, 0]	n/a	FR1	0	R1136N
1510.572	1.6	2099208	WORD	n/a	wordpools/wordpool_EN.txt	BATH	2	15	[0, 0, 0]	n/a	FR1	0	R1136N
1513.039	1.6	2101674	WORD	n/a	wordpools/wordpool_EN.txt	COW	3	15	[0, 0, 0]	n/a	FR1	0	R1136N
1515.455	1.6	2104090	WORD	n/a	wordpools/wordpool_EN.txt	GATE	4	15	[0, 0, 0]	n/a	FR1	0	R1136N
1518.056	1.6	2106691	WORD	n/a	wordpools/wordpool_EN.txt	MUD	5	15	[0, 0, 0]	n/a	FR1	0	R1136N
1520.657	1.6	2109292	WORD	n/a	wordpools/wordpool_EN.txt	DIME	6	15	[0, 0, 0]	n/a	FR1	0	R1136N
1523.057	1.6	2111692	WORD	n/a	wordpools/wordpool_EN.txt	MOOSE	7	15	[0, 0, 0]	n/a	FR1	0	R1136N
1525.657	1.6	2114292	WORD	n/a	wordpools/wordpool_EN.txt	SPRING	8	15	[0, 0, 0]	n/a	FR1	0	R1136N
1528.207	1.6	2116842	WORD	n/a	wordpools/wordpool_EN.txt	FACE	9	15	[0, 0, 0]	n/a	FR1	0	R1136N
1530.608	1.6	2119243	WORD	n/a	wordpools/wordpool_EN.txt	GOAT	10	15	[0, 0, 0]	n/a	FR1	0	R1136N
1533.158	1.6	2121792	WORD	n/a	wordpools/wordpool_EN.txt	SINK	11	15	[0, 0, 0]	n/a	FR1	0	R1136N
1535.659	1.6	2124293	WORD	n/a	wordpools/wordpool_EN.txt	TEA	12	15	[0, 0, 0]	n/a	FR1	0	R1136N
1537.275	0.001	2125909	DISTRACT_START	n/a	n/a	n/a	-999	15	[0, 0, 0]	n/a	FR1	0	R1136N
1537.276	0.016	2125910	START	n/a	n/a	n/a	-999	15	[-999, -999, -999]	n/a	FR1	0	R1136N
1537.292	4.951	2125926	PROB	4.929	n/a	n/a	-999	15	[1, 7, 6]	14.0	FR1	0	R1136N
1542.243	2.484	2130877	PROB	2.459	n/a	n/a	-999	15	[7, 9, 1]	17.0	FR1	0	R1136N
1544.727	4.6	2133361	PROB	4.566	n/a	n/a	-999	15	[7, 1, 4]	12.0	FR1	0	R1136N
1549.327	2.435	2137961	PROB	2.407	n/a	n/a	-999	15	[5, 6, 4]	15.0	FR1	0	R1136N
1551.762	3.034	2140395	PROB	3.004	n/a	n/a	-999	15	[4, 6, 7]	17.0	FR1	0	R1136N
1554.796	1.8	2143429	PROB	1.77	n/a	n/a	-999	15	[2, 2, 1]	5.0	FR1	0	R1136N
1556.596	4.195	2145229	PROB	4.195	n/a	n/a	-999	15	[9, 6, 3]	18.0	FR1	0	R1136N
1560.791	0.006	2149424	STOP	n/a	n/a	n/a	-999	15	[-999, -999, -999]	n/a	FR1	0	R1136N
1560.797	1.117	2149430	DISTRACT_END	n/a	n/a	n/a	-999	15	[0, 0, 0]	n/a	FR1	0	R1136N
1561.914	29.95	2150547	REC_START	n/a	n/a	n/a	-999	15	[0, 0, 0]	n/a	FR1	0	R1136N
1591.864	0.06	2180495	REC_WORD_VV	29.95	n/a	<>	-999	15	[0, 0, 0]	n/a	FR1	0	R1136N
1591.924	1.911	2180555	REC_END	n/a	n/a	n/a	-999	15	[0, 0, 0]	n/a	FR1	0	R1136N
1593.835	10.0	2182466	COUNTDOWN_START	n/a	n/a	n/a	-999	16	[0, 0, 0]	n/a	FR1	0	R1136N
1593.836	10.427	2182467	TRIAL	n/a	n/a	n/a	-999	16	[0, 0, 0]	n/a	FR1	0	R1136N
1604.263	0.006	2192894	COUNTDOWN_END	n/a	n/a	n/a	-999	16	[0, 0, 0]	n/a	FR1	0	R1136N
1604.269	1.6	2192900	ORIENT	n/a	n/a	n/a	-999	16	[0, 0, 0]	n/a	FR1	0	R1136N
1606.854	1.6	2195485	WORD	n/a	wordpools/wordpool_EN.txt	LAMP	1	16	[0, 0, 0]	n/a	FR1	0	R1136N
1609.37	1.6	2198001	WORD	n/a	wordpools/wordpool_EN.txt	BOOT	2	16	[0, 0, 0]	n/a	FR1	0	R1136N
1611.855	1.6	2200485	WORD	n/a	wordpools/wordpool_EN.txt	FOG	3	16	[0, 0, 0]	n/a	FR1	0	R1136N
1614.471	1.6	2203101	WORD	n/a	wordpools/wordpool_EN.txt	FLAG	4	16	[0, 0, 0]	n/a	FR1	0	R1136N
1617.073	1.6	2205703	WORD	n/a	wordpools/wordpool_EN.txt	NAIL	5	16	[0, 0, 0]	n/a	FR1	0	R1136N
1619.689	1.6	2208319	WORD	n/a	wordpools/wordpool_EN.txt	PARK	6	16	[0, 0, 0]	n/a	FR1	0	R1136N
1622.073	1.6	2210703	WORD	n/a	wordpools/wordpool_EN.txt	CLOCK	7	16	[0, 0, 0]	n/a	FR1	0	R1136N
1624.557	1.6	2213187	WORD	n/a	wordpools/wordpool_EN.txt	BED	8	16	[0, 0, 0]	n/a	FR1	0	R1136N
1626.991	1.6	2215621	WORD	n/a	wordpools/wordpool_EN.txt	SWORD	9	16	[0, 0, 0]	n/a	FR1	0	R1136N
1629.541	1.6	2218171	WORD	n/a	wordpools/wordpool_EN.txt	BAT	10	16	[0, 0, 0]	n/a	FR1	0	R1136N
1631.992	1.6	2220621	WORD	n/a	wordpools/wordpool_EN.txt	SKI	11	16	[0, 0, 0]	n/a	FR1	0	R1136N
1634.441	1.6	2223070	WORD	n/a	wordpools/wordpool_EN.txt	WHALE	12	16	[0, 0, 0]	n/a	FR1	0	R1136N
1636.059	0.001	2224688	DISTRACT_START	n/a	n/a	n/a	-999	16	[0, 0, 0]	n/a	FR1	0	R1136N
1636.06	0.016	2224689	START	n/a	n/a	n/a	-999	16	[-999, -999, -999]	n/a	FR1	0	R1136N
1636.076	5.717	2224705	PROB	5.682	n/a	n/a	-999	16	[8, 7, 5]	20.0	FR1	0	R1136N
1641.793	4.834	2230422	PROB	4.805	n/a	n/a	-999	16	[6, 9, 7]	22.0	FR1	0	R1136N
1646.627	3.567	2235256	PROB	3.53	n/a	n/a	-999	16	[8, 2, 8]	18.0	FR1	0	R1136N
1650.194	3.635	2238822	PROB	3.604	n/a	n/a	-999	16	[2, 3, 9]	14.0	FR1	0	R1136N
1653.829	2.52	2242457	PROB	2.52	n/a	n/a	-999	16	[8, 3, 3]	14.0	FR1	0	R1136N
1656.349	0.012	2244977	STOP	n/a	n/a	n/a	-999	16	[-999, -999, -999]	n/a	FR1	0	R1136N
1656.361	1.034	2244989	DISTRACT_END	n/a	n/a	n/a	-999	16	[0, 0, 0]	n/a	FR1	0	R1136N
1657.395	29.955	2246023	REC_START	n/a	n/a	n/a	-999	16	[0, 0, 0]	n/a	FR1	0	R1136N
1687.35	0.059	2275977	REC_WORD_VV	29.955	n/a	<>	-999	16	[0, 0, 0]	n/a	FR1	0	R1136N
1687.409	1.675	2276036	REC_END	n/a	n/a	n/a	-999	16	[0, 0, 0]	n/a	FR1	0	R1136N
1689.084	10.0	2277711	COUNTDOWN_START	n/a	n/a	n/a	-999	17	[0, 0, 0]	n/a	FR1	0	R1136N
1689.085	10.427	2277712	TRIAL	n/a	n/a	n/a	-999	17	[0, 0, 0]	n/a	FR1	0	R1136N
1699.512	0.008	2288138	COUNTDOWN_END	n/a	n/a	n/a	-999	17	[0, 0, 0]	n/a	FR1	0	R1136N
1699.52	1.6	2288146	ORIENT	n/a	n/a	n/a	-999	17	[0, 0, 0]	n/a	FR1	0	R1136N
1701.92	1.6	2290546	WORD	n/a	wordpools/wordpool_EN.txt	BREAD	1	17	[0, 0, 0]	n/a	FR1	0	R1136N
1704.52	1.6	2293146	WORD	n/a	wordpools/wordpool_EN.txt	SPOON	2	17	[0, 0, 0]	n/a	FR1	0	R1136N
1706.904	1.6	2295530	WORD	n/a	wordpools/wordpool_EN.txt	RAT	3	17	[0, 0, 0]	n/a	FR1	0	R1136N
1709.37	1.6	2297995	WORD	n/a	wordpools/wordpool_EN.txt	CLAY	4	17	[0, 0, 0]	n/a	FR1	0	R1136N
1711.971	1.6	2300596	WORD	n/a	wordpools/wordpool_EN.txt	PIPE	5	17	[0, 0, 0]	n/a	FR1	0	R1136N
1714.555	1.6	2303180	WORD	n/a	wordpools/wordpool_EN.txt	PIT	6	17	[0, 0, 0]	n/a	FR1	0	R1136N
1716.955	1.6	2305580	WORD	n/a	wordpools/wordpool_EN.txt	CUP	7	17	[0, 0, 0]	n/a	FR1	0	R1136N
1719.488	1.6	2308113	WORD	n/a	wordpools/wordpool_EN.txt	HAND	8	17	[0, 0, 0]	n/a	FR1	0	R1136N
1721.94	1.6	2310565	WORD	n/a	wordpools/wordpool_EN.txt	PEACH	9	17	[0, 0, 0]	n/a	FR1	0	R1136N
1724.574	1.6	2313199	WORD	n/a	wordpools/wordpool_EN.txt	STONE	10	17	[0, 0, 0]	n/a	FR1	0	R1136N
1727.09	1.6	2315715	WORD	n/a	wordpools/wordpool_EN.txt	FLUTE	11	17	[0, 0, 0]	n/a	FR1	0	R1136N
1729.658	1.6	2318282	WORD	n/a	wordpools/wordpool_EN.txt	TOE	12	17	[0, 0, 0]	n/a	FR1	0	R1136N
1731.274	0.001	2319898	DISTRACT_START	n/a	n/a	n/a	-999	17	[0, 0, 0]	n/a	FR1	0	R1136N
1731.275	0.015	2319899	START	n/a	n/a	n/a	-999	17	[-999, -999, -999]	n/a	FR1	0	R1136N
1731.29	5.786	2319914	PROB	5.756	n/a	n/a	-999	17	[4, 2, 9]	15.0	FR1	0	R1136N
1737.076	4.249	2325700	PROB	4.217	n/a	n/a	-999	17	[6, 7, 1]	14.0	FR1	0	R1136N
1741.325	1.867	2329949	PROB	1.84	n/a	n/a	-999	17	[6, 1, 1]	8.0	FR1	0	R1136N
1743.192	4.519	2331816	PROB	4.494	n/a	n/a	-999	17	[7, 4, 7]	18.0	FR1	0	R1136N
1747.711	3.134	2336335	PROB	3.111	n/a	n/a	-999	17	[8, 6, 4]	18.0	FR1	0	R1136N
1750.845	3.36	2339468	PROB	3.36	n/a	n/a	-999	17	[1, 5, 7]	13.0	FR1	0	R1136N
1754.205	0.006	2342828	STOP	n/a	n/a	n/a	-999	17	[-999, -999, -999]	n/a	FR1	0	R1136N
1754.211	1.201	2342834	DISTRACT_END	n/a	n/a	n/a	-999	17	[0, 0, 0]	n/a	FR1	0	R1136N
1755.412	29.651	2344035	REC_START	n/a	n/a	n/a	-999	17	[0, 0, 0]	n/a	FR1	0	R1136N
1785.063	0.359	2373685	REC_WORD_VV	29.651	n/a	<>	-999	17	[0, 0, 0]	n/a	FR1	0	R1136N
1785.422	2.145	2374044	REC_END	n/a	n/a	n/a	-999	17	[0, 0, 0]	n/a	FR1	0	R1136N
1787.567	10.0	2376189	COUNTDOWN_START	n/a	n/a	n/a	-999	18	[0, 0, 0]	n/a	FR1	0	R1136N
1787.568	10.427	2376190	TRIAL	n/a	n/a	n/a	-999	18	[0, 0, 0]	n/a	FR1	0	R1136N
1797.995	0.007	2386616	COUNTDOWN_END	n/a	n/a	n/a	-999	18	[0, 0, 0]	n/a	FR1	0	R1136N
1798.002	1.6	2386623	ORIENT	n/a	n/a	n/a	-999	18	[0, 0, 0]	n/a	FR1	0	R1136N
1800.485	1.6	2389106	WORD	n/a	wordpools/wordpool_EN.txt	DOG	1	18	[0, 0, 0]	n/a	FR1	0	R1136N
1802.936	1.6	2391557	WORD	n/a	wordpools/wordpool_EN.txt	LEG	2	18	[0, 0, 0]	n/a	FR1	0	R1136N
1805.402	1.6	2394023	WORD	n/a	wordpools/wordpool_EN.txt	STOOL	3	18	[0, 0, 0]	n/a	FR1	0	R1136N
1807.82	1.6	2396441	WORD	n/a	wordpools/wordpool_EN.txt	PLATE	4	18	[0, 0, 0]	n/a	FR1	0	R1136N
1810.37	1.6	2398990	WORD	n/a	wordpools/wordpool_EN.txt	CHALK	5	18	[0, 0, 0]	n/a	FR1	0	R1136N
1812.955	1.6	2401575	WORD	n/a	wordpools/wordpool_EN.txt	TRAY	6	18	[0, 0, 0]	n/a	FR1	0	R1136N
1815.539	1.6	2404159	WORD	n/a	wordpools/wordpool_EN.txt	WOOD	7	18	[0, 0, 0]	n/a	FR1	0	R1136N
1818.105	1.6	2406725	WORD	n/a	wordpools/wordpool_EN.txt	GLASS	8	18	[0, 0, 0]	n/a	FR1	0	R1136N
1820.472	1.6	2409092	WORD	n/a	wordpools/wordpool_EN.txt	STAIR	9	18	[0, 0, 0]	n/a	FR1	0	R1136N
1823.006	1.6	2411626	WORD	n/a	wordpools/wordpool_EN.txt	CROWN	10	18	[0, 0, 0]	n/a	FR1	0	R1136N
1825.59	1.6	2414210	WORD	n/a	wordpools/wordpool_EN.txt	SLUSH	11	18	[0, 0, 0]	n/a	FR1	0	R1136N
1828.19	1.6	2416809	WORD	n/a	wordpools/wordpool_EN.txt	SOCK	12	18	[0, 0, 0]	n/a	FR1	0	R1136N
1829.808	0.0	2418427	DISTRACT_START	n/a	n/a	n/a	-999	18	[0, 0, 0]	n/a	FR1	0	R1136N
1829.808	0.016	2418427	START	n/a	n/a	n/a	-999	18	[-999, -999, -999]	n/a	FR1	0	R1136N
1829.824	7.151	2418443	PROB	7.117	n/a	n/a	-999	18	[7, 7, 9]	23.0	FR1	0	R1136N
1836.975	2.25	2425594	PROB	2.222	n/a	n/a	-999	18	[2, 1, 5]	8.0	FR1	0	R1136N
1839.225	5.302	2427844	PROB	5.277	n/a	n/a	-999	18	[6, 7, 1]	14.0	FR1	0	R1136N
1844.527	3.3	2433146	PROB	3.279	n/a	n/a	-999	18	[7, 2, 4]	13.0	FR1	0	R1136N
1847.827	2.498	2436445	PROB	2.498	n/a	n/a	-999	18	[1, 7, 7]	15.0	FR1	0	R1136N
1850.325	0.018	2438943	STOP	n/a	n/a	n/a	-999	18	[-999, -999, -999]	n/a	FR1	0	R1136N
1850.343	1.151	2438961	DISTRACT_END	n/a	n/a	n/a	-999	18	[0, 0, 0]	n/a	FR1	0	R1136N
1851.494	1.167	2440112	REC_START	n/a	n/a	n/a	-999	18	[0, 0, 0]	n/a	FR1	0	R1136N
1852.661	4.894	2441279	REC_WORD	1.167	n/a	DOG	-999	18	[0, 0, 0]	n/a	FR1	0	R1136N
1857.555	23.957	2446173	REC_WORD	6.061	n/a	STOOL	-999	18	[0, 0, 0]	n/a	FR1	0	R1136N
1881.512	2.62	2470129	REC_END	n/a	n/a	n/a	-999	18	[0, 0, 0]	n/a	FR1	0	R1136N
1884.132	0.0	2472749	TRIAL	n/a	n/a	n/a	-999	19	[0, 0, 0]	n/a	FR1	0	R1136N
1884.132	10.0	2472749	COUNTDOWN_START	n/a	n/a	n/a	-999	19	[0, 0, 0]	n/a	FR1	0	R1136N
1894.56	0.008	2483176	COUNTDOWN_END	n/a	n/a	n/a	-999	19	[0, 0, 0]	n/a	FR1	0	R1136N
1894.568	1.6	2483184	ORIENT	n/a	n/a	n/a	-999	19	[0, 0, 0]	n/a	FR1	0	R1136N
1897.184	1.6	2485800	WORD	n/a	wordpools/wordpool_EN.txt	CHEEK	1	19	[0, 0, 0]	n/a	FR1	0	R1136N
1899.652	1.6	2488268	WORD	n/a	wordpools/wordpool_EN.txt	RAIN	2	19	[0, 0, 0]	n/a	FR1	0	R1136N
1902.218	1.6	2490834	WORD	n/a	wordpools/wordpool_EN.txt	TOAST	3	19	[0, 0, 0]	n/a	FR1	0	R1136N
1904.82	1.6	2493436	WORD	n/a	wordpools/wordpool_EN.txt	CAPE	4	19	[0, 0, 0]	n/a	FR1	0	R1136N
1907.353	1.6	2495968	WORD	n/a	wordpools/wordpool_EN.txt	LAND	5	19	[0, 0, 0]	n/a	FR1	0	R1136N
1909.771	1.6	2498386	WORD	n/a	wordpools/wordpool_EN.txt	RICE	6	19	[0, 0, 0]	n/a	FR1	0	R1136N
1912.387	1.6	2501002	WORD	n/a	wordpools/wordpool_EN.txt	DOCK	7	19	[0, 0, 0]	n/a	FR1	0	R1136N
1914.888	1.6	2503503	WORD	n/a	wordpools/wordpool_EN.txt	CANE	8	19	[0, 0, 0]	n/a	FR1	0	R1136N
1917.388	1.6	2506003	WORD	n/a	wordpools/wordpool_EN.txt	SUN	9	19	[0, 0, 0]	n/a	FR1	0	R1136N
1919.922	1.6	2508537	WORD	n/a	wordpools/wordpool_EN.txt	SHIP	10	19	[0, 0, 0]	n/a	FR1	0	R1136N
1922.556	1.6	2511171	WORD	n/a	wordpools/wordpool_EN.txt	EEL	11	19	[0, 0, 0]	n/a	FR1	0	R1136N
1925.122	1.6	2513737	WORD	n/a	wordpools/wordpool_EN.txt	FOAM	12	19	[0, 0, 0]	n/a	FR1	0	R1136N
1926.723	0.001	2515337	DISTRACT_START	n/a	n/a	n/a	-999	19	[0, 0, 0]	n/a	FR1	0	R1136N
1926.724	0.016	2515338	START	n/a	n/a	n/a	-999	19	[-999, -999, -999]	n/a	FR1	0	R1136N
1926.74	4.818	2515354	PROB	4.794	n/a	n/a	-999	19	[4, 6, 6]	16.0	FR1	0	R1136N
1931.558	7.733	2520172	PROB	7.704	n/a	n/a	-999	19	[5, 4, 3]	12.0	FR1	0	R1136N
1939.291	2.235	2527905	PROB	2.211	n/a	n/a	-999	19	[8, 2, 4]	14.0	FR1	0	R1136N
1941.526	3.9	2530140	PROB	3.863	n/a	n/a	-999	19	[9, 5, 3]	17.0	FR1	0	R1136N
1945.426	2.819	2534040	PROB	2.819	n/a	n/a	-999	19	[5, 3, 5]	13.0	FR1	0	R1136N
1948.245	0.014	2536858	STOP	n/a	n/a	n/a	-999	19	[-999, -999, -999]	n/a	FR1	0	R1136N
1948.259	1.068	2536872	DISTRACT_END	n/a	n/a	n/a	-999	19	[0, 0, 0]	n/a	FR1	0	R1136N
1949.327	5.773	2537940	REC_START	n/a	n/a	n/a	-999	19	[0, 0, 0]	n/a	FR1	0	R1136N
1955.1	0.912	2543713	REC_WORD	5.773	n/a	SUN	-999	19	[0, 0, 0]	n/a	FR1	0	R1136N
1956.012	23.325	2544625	REC_WORD	6.685	n/a	EEL	-999	19	[0, 0, 0]	n/a	FR1	0	R1136N
1979.337	2.279	2567949	REC_END	n/a	n/a	n/a	-999	19	[0, 0, 0]	n/a	FR1	0	R1136N
1981.616	0.0	2570228	TRIAL	n/a	n/a	n/a	-999	20	[0, 0, 0]	n/a	FR1	0	R1136N
1981.616	10.0	2570228	COUNTDOWN_START	n/a	n/a	n/a	-999	20	[0, 0, 0]	n/a	FR1	0	R1136N
1992.044	0.007	2580655	COUNTDOWN_END	n/a	n/a	n/a	-999	20	[0, 0, 0]	n/a	FR1	0	R1136N
1992.051	1.6	2580662	ORIENT	n/a	n/a	n/a	-999	20	[0, 0, 0]	n/a	FR1	0	R1136N
1994.535	1.6	2583146	WORD	n/a	wordpools/wordpool_EN.txt	SUIT	1	20	[0, 0, 0]	n/a	FR1	0	R1136N
1997.018	1.6	2585629	WORD	n/a	wordpools/wordpool_EN.txt	SEED	2	20	[0, 0, 0]	n/a	FR1	0	R1136N
1999.434	1.6	2588045	WORD	n/a	wordpools/wordpool_EN.txt	MAIL	3	20	[0, 0, 0]	n/a	FR1	0	R1136N
2002.003	1.6	2590614	WORD	n/a	wordpools/wordpool_EN.txt	FLOOR	4	20	[0, 0, 0]	n/a	FR1	0	R1136N
2004.503	1.6	2593114	WORD	n/a	wordpools/wordpool_EN.txt	VASE	5	20	[0, 0, 0]	n/a	FR1	0	R1136N
2006.92	1.6	2595530	WORD	n/a	wordpools/wordpool_EN.txt	DESK	6	20	[0, 0, 0]	n/a	FR1	0	R1136N
2009.469	1.6	2598079	WORD	n/a	wordpools/wordpool_EN.txt	CONE	7	20	[0, 0, 0]	n/a	FR1	0	R1136N
2012.071	1.6	2600681	WORD	n/a	wordpools/wordpool_EN.txt	ELF	8	20	[0, 0, 0]	n/a	FR1	0	R1136N
2014.655	1.6	2603265	WORD	n/a	wordpools/wordpool_EN.txt	SNOW	9	20	[0, 0, 0]	n/a	FR1	0	R1136N
2017.121	1.6	2605731	WORD	n/a	wordpools/wordpool_EN.txt	POLE	10	20	[0, 0, 0]	n/a	FR1	0	R1136N
2019.722	1.6	2608332	WORD	n/a	wordpools/wordpool_EN.txt	ICE	11	20	[0, 0, 0]	n/a	FR1	0	R1136N
2022.138	1.6	2610748	WORD	n/a	wordpools/wordpool_EN.txt	JUICE	12	20	[0, 0, 0]	n/a	FR1	0	R1136N
2023.739	0.001	2612349	DISTRACT_START	n/a	n/a	n/a	-999	20	[0, 0, 0]	n/a	FR1	0	R1136N
2023.74	0.016	2612350	START	n/a	n/a	n/a	-999	20	[-999, -999, -999]	n/a	FR1	0	R1136N
2023.756	9.384	2612366	PROB	9.361	n/a	n/a	-999	20	[7, 8, 8]	23.0	FR1	0	R1136N
2033.14	1.984	2621749	PROB	1.961	n/a	n/a	-999	20	[5, 1, 1]	7.0	FR1	0	R1136N
2035.124	3.367	2623733	PROB	3.337	n/a	n/a	-999	20	[2, 1, 6]	9.0	FR1	0	R1136N
2038.491	2.817	2627100	PROB	2.786	n/a	n/a	-999	20	[9, 1, 7]	17.0	FR1	0	R1136N
2041.308	4.194	2629917	PROB	4.194	n/a	n/a	-999	20	[3, 3, 5]	11.0	FR1	0	R1136N
2045.502	0.008	2634110	STOP	n/a	n/a	n/a	-999	20	[-999, -999, -999]	n/a	FR1	0	R1136N
2045.51	1.05	2634118	DISTRACT_END	n/a	n/a	n/a	-999	20	[0, 0, 0]	n/a	FR1	0	R1136N
2046.56	29.95	2635168	REC_START	n/a	n/a	n/a	-999	20	[0, 0, 0]	n/a	FR1	0	R1136N
2076.51	0.061	2665117	REC_WORD_VV	29.95	n/a	<>	-999	20	[0, 0, 0]	n/a	FR1	0	R1136N
2076.571	1.543	2665178	REC_END	n/a	n/a	n/a	-999	20	[0, 0, 0]	n/a	FR1	0	R1136N
2078.114	0.0	2666721	TRIAL	n/a	n/a	n/a	-999	21	[0, 0, 0]	n/a	FR1	0	R1136N
2078.114	10.0	2666721	COUNTDOWN_START	n/a	n/a	n/a	-999	21	[0, 0, 0]	n/a	FR1	0	R1136N
2088.542	0.008	2677148	COUNTDOWN_END	n/a	n/a	n/a	-999	21	[0, 0, 0]	n/a	FR1	0	R1136N
2088.55	1.6	2677156	ORIENT	n/a	n/a	n/a	-999	21	[0, 0, 0]	n/a	FR1	0	R1136N
2090.934	1.6	2679540	WORD	n/a	wordpools/wordpool_EN.txt	BRANCH	1	21	[0, 0, 0]	n/a	FR1	0	R1136N
2093.367	1.6	2681973	WORD	n/a	wordpools/wordpool_EN.txt	LAMB	2	21	[0, 0, 0]	n/a	FR1	0	R1136N
2095.785	1.6	2684391	WORD	n/a	wordpools/wordpool_EN.txt	AXE	3	21	[0, 0, 0]	n/a	FR1	0	R1136N
2098.267	1.6	2686873	WORD	n/a	wordpools/wordpool_EN.txt	WORLD	4	21	[0, 0, 0]	n/a	FR1	0	R1136N
2100.819	1.6	2689425	WORD	n/a	wordpools/wordpool_EN.txt	SPEAR	5	21	[0, 0, 0]	n/a	FR1	0	R1136N
2103.218	1.6	2691824	WORD	n/a	wordpools/wordpool_EN.txt	PEARL	6	21	[0, 0, 0]	n/a	FR1	0	R1136N
2105.753	1.6	2694358	WORD	n/a	wordpools/wordpool_EN.txt	BLOOM	7	21	[0, 0, 0]	n/a	FR1	0	R1136N
2108.219	1.6	2696824	WORD	n/a	wordpools/wordpool_EN.txt	THREAD	8	21	[0, 0, 0]	n/a	FR1	0	R1136N
2110.72	1.6	2699325	WORD	n/a	wordpools/wordpool_EN.txt	MOTH	9	21	[0, 0, 0]	n/a	FR1	0	R1136N
2113.22	1.6	2701825	WORD	n/a	wordpools/wordpool_EN.txt	PLANT	10	21	[0, 0, 0]	n/a	FR1	0	R1136N
2115.704	1.6	2704309	WORD	n/a	wordpools/wordpool_EN.txt	FOOD	11	21	[0, 0, 0]	n/a	FR1	0	R1136N
2118.154	1.6	2706759	WORD	n/a	wordpools/wordpool_EN.txt	BEE	12	21	[0, 0, 0]	n/a	FR1	0	R1136N
2119.755	0.001	2708360	DISTRACT_START	n/a	n/a	n/a	-999	21	[0, 0, 0]	n/a	FR1	0	R1136N
2119.756	0.016	2708361	START	n/a	n/a	n/a	-999	21	[-999, -999, -999]	n/a	FR1	0	R1136N
2119.772	4.851	2708377	PROB	4.818	n/a	n/a	-999	21	[4, 7, 4]	15.0	FR1	0	R1136N
2124.623	3.466	2713227	PROB	3.439	n/a	n/a	-999	21	[4, 7, 2]	13.0	FR1	0	R1136N
2128.089	7.602	2716693	PROB	7.581	n/a	n/a	-999	21	[9, 7, 6]	22.0	FR1	0	R1136N
2135.691	3.968	2724295	PROB	3.948	n/a	n/a	-999	21	[5, 6, 1]	12.0	FR1	0	R1136N
2139.659	2.339	2728263	PROB	2.339	n/a	n/a	-999	21	[1, 5, 6]	12.0	FR1	0	R1136N
2141.998	0.011	2730602	STOP	n/a	n/a	n/a	-999	21	[-999, -999, -999]	n/a	FR1	0	R1136N
2142.009	1.2	2730613	DISTRACT_END	n/a	n/a	n/a	-999	21	[0, 0, 0]	n/a	FR1	0	R1136N
2143.209	1.939	2731813	REC_START	n/a	n/a	n/a	-999	21	[0, 0, 0]	n/a	FR1	0	R1136N
2145.148	28.073	2733751	REC_WORD	1.939	n/a	PEARL	-999	21	[0, 0, 0]	n/a	FR1	0	R1136N
2173.221	1.827	2761823	REC_END	n/a	n/a	n/a	-999	21	[0, 0, 0]	n/a	FR1	0	R1136N
2175.048	10.0	2763650	COUNTDOWN_START	n/a	n/a	n/a	-999	22	[0, 0, 0]	n/a	FR1	0	R1136N
2175.048	10.428	2763650	TRIAL	n/a	n/a	n/a	-999	22	[0, 0, 0]	n/a	FR1	0	R1136N
2185.476	0.006	2774077	COUNTDOWN_END	n/a	n/a	n/a	-999	22	[0, 0, 0]	n/a	FR1	0	R1136N
2185.482	1.6	2774083	ORIENT	n/a	n/a	n/a	-999	22	[0, 0, 0]	n/a	FR1	0	R1136N
2187.933	1.6	2776534	WORD	n/a	wordpools/wordpool_EN.txt	TANK	1	22	[0, 0, 0]	n/a	FR1	0	R1136N
2190.483	1.6	2779084	WORD	n/a	wordpools/wordpool_EN.txt	MAZE	2	22	[0, 0, 0]	n/a	FR1	0	R1136N
2192.951	1.6	2781552	WORD	n/a	wordpools/wordpool_EN.txt	CAR	3	22	[0, 0, 0]	n/a	FR1	0	R1136N
2195.433	1.6	2784034	WORD	n/a	wordpools/wordpool_EN.txt	VAN	4	22	[0, 0, 0]	n/a	FR1	0	R1136N
2197.801	1.6	2786402	WORD	n/a	wordpools/wordpool_EN.txt	SAIL	5	22	[0, 0, 0]	n/a	FR1	0	R1136N
2200.234	1.6	2788835	WORD	n/a	wordpools/wordpool_EN.txt	BOARD	6	22	[0, 0, 0]	n/a	FR1	0	R1136N
2202.702	1.6	2791303	WORD	n/a	wordpools/wordpool_EN.txt	SOUP	7	22	[0, 0, 0]	n/a	FR1	0	R1136N
2205.118	1.6	2793718	WORD	n/a	wordpools/wordpool_EN.txt	TOY	8	22	[0, 0, 0]	n/a	FR1	0	R1136N
2207.586	1.6	2796186	WORD	n/a	wordpools/wordpool_EN.txt	BRICK	9	22	[0, 0, 0]	n/a	FR1	0	R1136N
2210.037	1.6	2798637	WORD	n/a	wordpools/wordpool_EN.txt	JAIL	10	22	[0, 0, 0]	n/a	FR1	0	R1136N
2212.521	1.6	2801121	WORD	n/a	wordpools/wordpool_EN.txt	STORM	11	22	[0, 0, 0]	n/a	FR1	0	R1136N
2215.137	1.6	2803737	WORD	n/a	wordpools/wordpool_EN.txt	BANK	12	22	[0, 0, 0]	n/a	FR1	0	R1136N
2216.755	0.0	2805355	DISTRACT_START	n/a	n/a	n/a	-999	22	[0, 0, 0]	n/a	FR1	0	R1136N
2216.755	0.016	2805355	START	n/a	n/a	n/a	-999	22	[-999, -999, -999]	n/a	FR1	0	R1136N
2216.771	6.801	2805371	PROB	6.772	n/a	n/a	-999	22	[6, 6, 9]	21.0	FR1	0	R1136N
2223.572	3.167	2812171	PROB	3.146	n/a	n/a	-999	22	[6, 3, 5]	14.0	FR1	0	R1136N
2226.739	2.834	2815338	PROB	2.811	n/a	n/a	-999	22	[1, 6, 4]	11.0	FR1	0	R1136N
2229.573	2.284	2818172	PROB	2.249	n/a	n/a	-999	22	[2, 3, 7]	12.0	FR1	0	R1136N
2231.857	2.917	2820456	PROB	2.893	n/a	n/a	-999	22	[6, 9, 2]	17.0	FR1	0	R1136N
2234.774	4.695	2823373	PROB	4.695	n/a	n/a	-999	22	[6, 2, 7]	15.0	FR1	0	R1136N
2239.469	0.005	2828068	STOP	n/a	n/a	n/a	-999	22	[-999, -999, -999]	n/a	FR1	0	R1136N
2239.474	1.118	2828073	DISTRACT_END	n/a	n/a	n/a	-999	22	[0, 0, 0]	n/a	FR1	0	R1136N
2240.592	1.129	2829191	REC_START	n/a	n/a	n/a	-999	22	[0, 0, 0]	n/a	FR1	0	R1136N
2241.721	1.304	2830320	REC_WORD	1.129	n/a	TANK	-999	22	[0, 0, 0]	n/a	FR1	0	R1136N
2243.025	27.584	2831623	REC_WORD	2.433	n/a	MAZE	-999	22	[0, 0, 0]	n/a	FR1	0	R1136N
2270.609	1.57	2859206	REC_END	n/a	n/a	n/a	-999	22	[0, 0, 0]	n/a	FR1	0	R1136N
2272.179	10.0	2860776	COUNTDOWN_START	n/a	n/a	n/a	-999	23	[0, 0, 0]	n/a	FR1	0	R1136N
2272.18	10.427	2860777	TRIAL	n/a	n/a	n/a	-999	23	[0, 0, 0]	n/a	FR1	0	R1136N
2282.607	0.008	2871203	COUNTDOWN_END	n/a	n/a	n/a	-999	23	[0, 0, 0]	n/a	FR1	0	R1136N
2282.615	1.6	2871211	ORIENT	n/a	n/a	n/a	-999	23	[0, 0, 0]	n/a	FR1	0	R1136N
2285.082	1.6	2873678	WORD	n/a	wordpools/wordpool_EN.txt	POOL	1	23	[0, 0, 0]	n/a	FR1	0	R1136N
2287.599	1.6	2876195	WORD	n/a	wordpools/wordpool_EN.txt	SALT	2	23	[0, 0, 0]	n/a	FR1	0	R1136N
2290.216	1.6	2878812	WORD	n/a	wordpools/wordpool_EN.txt	OAR	3	23	[0, 0, 0]	n/a	FR1	0	R1136N
2292.617	1.6	2881213	WORD	n/a	wordpools/wordpool_EN.txt	BEAN	4	23	[0, 0, 0]	n/a	FR1	0	R1136N
2295.067	1.6	2883663	WORD	n/a	wordpools/wordpool_EN.txt	SHRIMP	5	23	[0, 0, 0]	n/a	FR1	0	R1136N
2297.634	1.6	2886230	WORD	n/a	wordpools/wordpool_EN.txt	FLAME	6	23	[0, 0, 0]	n/a	FR1	0	R1136N
2300.184	1.6	2888780	WORD	n/a	wordpools/wordpool_EN.txt	GEESE	7	23	[0, 0, 0]	n/a	FR1	0	R1136N
2302.768	1.6	2891363	WORD	n/a	wordpools/wordpool_EN.txt	WING	8	23	[0, 0, 0]	n/a	FR1	0	R1136N
2305.351	1.6	2893946	WORD	n/a	wordpools/wordpool_EN.txt	STOVE	9	23	[0, 0, 0]	n/a	FR1	0	R1136N
2307.769	1.6	2896364	WORD	n/a	wordpools/wordpool_EN.txt	SWAMP	10	23	[0, 0, 0]	n/a	FR1	0	R1136N
2310.269	1.6	2898864	WORD	n/a	wordpools/wordpool_EN.txt	DEER	11	23	[0, 0, 0]	n/a	FR1	0	R1136N
2312.637	1.6	2901232	WORD	n/a	wordpools/wordpool_EN.txt	PIE	12	23	[0, 0, 0]	n/a	FR1	0	R1136N
2314.253	0.001	2902848	DISTRACT_START	n/a	n/a	n/a	-999	23	[0, 0, 0]	n/a	FR1	0	R1136N
2314.254	0.016	2902849	START	n/a	n/a	n/a	-999	23	[-999, -999, -999]	n/a	FR1	0	R1136N
2314.27	3.735	2902865	PROB	3.704	n/a	n/a	-999	23	[8, 8, 8]	24.0	FR1	0	R1136N
2318.005	4.266	2906600	PROB	4.232	n/a	n/a	-999	23	[8, 1, 4]	13.0	FR1	0	R1136N
2322.271	2.235	2910865	PROB	2.206	n/a	n/a	-999	23	[5, 8, 2]	15.0	FR1	0	R1136N
2324.506	6.517	2913100	PROB	6.492	n/a	n/a	-999	23	[7, 8, 6]	21.0	FR1	0	R1136N
2331.023	2.1	2919617	PROB	2.07	n/a	n/a	-999	23	[2, 2, 6]	10.0	FR1	0	R1136N
2333.123	2.564	2921717	PROB	2.564	n/a	n/a	-999	23	[8, 4, 5]	17.0	FR1	0	R1136N
2335.687	0.004	2924281	STOP	n/a	n/a	n/a	-999	23	[-999, -999, -999]	n/a	FR1	0	R1136N
2335.691	1.201	2924285	DISTRACT_END	n/a	n/a	n/a	-999	23	[0, 0, 0]	n/a	FR1	0	R1136N
2336.892	1.537	2925486	REC_START	n/a	n/a	n/a	-999	23	[0, 0, 0]	n/a	FR1	0	R1136N
2338.429	1.242	2927023	REC_WORD	1.537	n/a	OAR	-999	23	[0, 0, 0]	n/a	FR1	0	R1136N
2339.671	1.193	2928265	REC_WORD	2.779	n/a	WING	-999	23	[0, 0, 0]	n/a	FR1	0	R1136N
2340.864	0.845	2929458	REC_WORD	3.972	n/a	PIE	-999	23	[0, 0, 0]	n/a	FR1	0	R1136N
2341.709	25.195	2930302	REC_WORD	4.817	n/a	SHRIMP	-999	23	[0, 0, 0]	n/a	FR1	0	R1136N
2366.904	1.208	2955496	REC_END	n/a	n/a	n/a	-999	23	[0, 0, 0]	n/a	FR1	0	R1136N
2368.112	0.0	2956704	TRIAL	n/a	n/a	n/a	-999	24	[0, 0, 0]	n/a	FR1	0	R1136N
2368.112	10.0	2956704	COUNTDOWN_START	n/a	n/a	n/a	-999	24	[0, 0, 0]	n/a	FR1	0	R1136N
2378.54	0.008	2967132	COUNTDOWN_END	n/a	n/a	n/a	-999	24	[0, 0, 0]	n/a	FR1	0	R1136N
2378.548	1.6	2967140	ORIENT	n/a	n/a	n/a	-999	24	[0, 0, 0]	n/a	FR1	0	R1136N
2381.015	1.6	2969607	WORD	n/a	wordpools/wordpool_EN.txt	BADGE	1	24	[0, 0, 0]	n/a	FR1	0	R1136N
2383.499	1.6	2972090	WORD	n/a	wordpools/wordpool_EN.txt	BAND	2	24	[0, 0, 0]	n/a	FR1	0	R1136N
2385.932	1.6	2974523	WORD	n/a	wordpools/wordpool_EN.txt	DOLL	3	24	[0, 0, 0]	n/a	FR1	0	R1136N
2388.315	1.6	2976906	WORD	n/a	wordpools/wordpool_EN.txt	HOSE	4	24	[0, 0, 0]	n/a	FR1	0	R1136N
2390.917	1.6	2979508	WORD	n/a	wordpools/wordpool_EN.txt	PANTS	5	24	[0, 0, 0]	n/a	FR1	0	R1136N
2393.416	1.6	2982007	WORD	n/a	wordpools/wordpool_EN.txt	ROOM	6	24	[0, 0, 0]	n/a	FR1	0	R1136N
2395.817	1.6	2984408	WORD	n/a	wordpools/wordpool_EN.txt	RUG	7	24	[0, 0, 0]	n/a	FR1	0	R1136N
2398.2	1.6	2986791	WORD	n/a	wordpools/wordpool_EN.txt	HOOF	8	24	[0, 0, 0]	n/a	FR1	0	R1136N
2400.751	1.6	2989342	WORD	n/a	wordpools/wordpool_EN.txt	WAVE	9	24	[0, 0, 0]	n/a	FR1	0	R1136N
2403.234	1.6	2991824	WORD	n/a	wordpools/wordpool_EN.txt	HILL	10	24	[0, 0, 0]	n/a	FR1	0	R1136N
2405.769	1.6	2994359	WORD	n/a	wordpools/wordpool_EN.txt	SHIELD	11	24	[0, 0, 0]	n/a	FR1	0	R1136N
2408.385	1.6	2996975	WORD	n/a	wordpools/wordpool_EN.txt	LAKE	12	24	[0, 0, 0]	n/a	FR1	0	R1136N
2409.986	0.001	2998576	DISTRACT_START	n/a	n/a	n/a	-999	24	[0, 0, 0]	n/a	FR1	0	R1136N
2409.987	0.016	2998577	START	n/a	n/a	n/a	-999	24	[-999, -999, -999]	n/a	FR1	0	R1136N
2410.003	4.634	2998593	PROB	4.603	n/a	n/a	-999	24	[8, 5, 3]	16.0	FR1	0	R1136N
2414.637	4.934	3003227	PROB	4.914	n/a	n/a	-999	24	[3, 1, 2]	6.0	FR1	0	R1136N
2419.571	3.467	3008161	PROB	3.443	n/a	n/a	-999	24	[7, 3, 6]	16.0	FR1	0	R1136N
2423.038	3.001	3011627	PROB	2.968	n/a	n/a	-999	24	[7, 3, 4]	14.0	FR1	0	R1136N
2426.039	5.007	3014628	PROB	5.007	n/a	n/a	-999	24	[5, 8, 3]	16.0	FR1	0	R1136N
2431.046	0.011	3019635	STOP	n/a	n/a	n/a	-999	24	[-999, -999, -999]	n/a	FR1	0	R1136N
2431.057	1.082	3019646	DISTRACT_END	n/a	n/a	n/a	-999	24	[0, 0, 0]	n/a	FR1	0	R1136N
2432.139	1.57	3020728	REC_START	n/a	n/a	n/a	-999	24	[0, 0, 0]	n/a	FR1	0	R1136N
2433.709	1.074	3022298	REC_WORD	1.57	n/a	HILL	-999	24	[0, 0, 0]	n/a	FR1	0	R1136N
2434.783	27.373	3023372	REC_WORD	2.644	n/a	SHIELD	-999	24	[0, 0, 0]	n/a	FR1	0	R1136N
2462.156	1.606	3050743	REC_END	n/a	n/a	n/a	-999	24	[0, 0, 0]	n/a	FR1	0	R1136N
2463.762	0.0	3052349	TRIAL	n/a	n/a	n/a	-999	25	[0, 0, 0]	n/a	FR1	0	R1136N
2463.762	10.0	3052349	COUNTDOWN_START	n/a	n/a	n/a	-999	25	[0, 0, 0]	n/a	FR1	0	R1136N
2474.19	0.006	3062777	COUNTDOWN_END	n/a	n/a	n/a	-999	25	[0, 0, 0]	n/a	FR1	0	R1136N
2474.196	1.6	3062783	ORIENT	n/a	n/a	n/a	-999	25	[0, 0, 0]	n/a	FR1	0	R1136N
2476.647	1.6	3065234	WORD	n/a	wordpools/wordpool_EN.txt	ROCK	1	25	[0, 0, 0]	n/a	FR1	0	R1136N
2479.031	1.6	3067618	WORD	n/a	wordpools/wordpool_EN.txt	CLIFF	2	25	[0, 0, 0]	n/a	FR1	0	R1136N
2481.464	1.6	3070050	WORD	n/a	wordpools/wordpool_EN.txt	FUR	3	25	[0, 0, 0]	n/a	FR1	0	R1136N
2483.932	1.6	3072518	WORD	n/a	wordpools/wordpool_EN.txt	PIG	4	25	[0, 0, 0]	n/a	FR1	0	R1136N
2486.365	1.6	3074951	WORD	n/a	wordpools/wordpool_EN.txt	STORE	5	25	[0, 0, 0]	n/a	FR1	0	R1136N
2488.916	1.6	3077502	WORD	n/a	wordpools/wordpool_EN.txt	JAR	6	25	[0, 0, 0]	n/a	FR1	0	R1136N
2491.449	1.6	3080035	WORD	n/a	wordpools/wordpool_EN.txt	CORN	7	25	[0, 0, 0]	n/a	FR1	0	R1136N
2494.034	1.6	3082620	WORD	n/a	wordpools/wordpool_EN.txt	BEAK	8	25	[0, 0, 0]	n/a	FR1	0	R1136N
2496.45	1.6	3085036	WORD	n/a	wordpools/wordpool_EN.txt	CAVE	9	25	[0, 0, 0]	n/a	FR1	0	R1136N
2498.901	1.6	3087487	WORD	n/a	wordpools/wordpool_EN.txt	BEACH	10	25	[0, 0, 0]	n/a	FR1	0	R1136N
2501.45	1.6	3090035	WORD	n/a	wordpools/wordpool_EN.txt	DRUM	11	25	[0, 0, 0]	n/a	FR1	0	R1136N
2503.969	1.6	3092554	WORD	n/a	wordpools/wordpool_EN.txt	VINE	12	25	[0, 0, 0]	n/a	FR1	0	R1136N
2505.585	0.001	3094170	DISTRACT_START	n/a	n/a	n/a	-999	25	[0, 0, 0]	n/a	FR1	0	R1136N
2505.586	0.016	3094171	START	n/a	n/a	n/a	-999	25	[-999, -999, -999]	n/a	FR1	0	R1136N
2505.602	8.867	3094187	PROB	8.843	n/a	n/a	-999	25	[1, 3, 9]	13.0	FR1	0	R1136N
2514.469	2.817	3103054	PROB	2.792	n/a	n/a	-999	25	[7, 3, 7]	17.0	FR1	0	R1136N
2517.286	2.385	3105871	PROB	2.353	n/a	n/a	-999	25	[9, 1, 1]	11.0	FR1	0	R1136N
2519.671	5.001	3108255	PROB	4.967	n/a	n/a	-999	25	[6, 7, 9]	22.0	FR1	0	R1136N
2524.672	2.773	3113256	PROB	2.773	n/a	n/a	-999	25	[6, 1, 5]	12.0	FR1	0	R1136N
2527.445	0.01	3116029	STOP	n/a	n/a	n/a	-999	25	[-999, -999, -999]	n/a	FR1	0	R1136N
2527.455	1.184	3116039	DISTRACT_END	n/a	n/a	n/a	-999	25	[0, 0, 0]	n/a	FR1	0	R1136N
2528.639	5.993	3117223	REC_START	n/a	n/a	n/a	-999	25	[0, 0, 0]	n/a	FR1	0	R1136N
2534.632	24.024	3123216	REC_WORD	5.993	n/a	HILL	-999	25	[0, 0, 0]	n/a	FR1	0	R1136N
2558.656	8.39	3147239	REC_END	n/a	n/a	n/a	-999	25	[0, 0, 0]	n/a	FR1	0	R1136N
2567.046	0.0	3155628	SESS_END	n/a	n/a	n/a	-999	25	[0, 0, 0]	n/a	FR1	0	R1136N
