onset	duration	sample	trial_type	response_time	stim_file	item_name	serialpos	list	test	answer	experiment	session	subject
0.0	23.199	249938	SESS_START	n/a	n/a	n/a	-999	-999	[0, 0, 0]	n/a	FR1	0	R1572T
23.199	10.0	273137	COUNTDOWN_START	n/a	n/a	n/a	-999	-999	[0, 0, 0]	n/a	FR1	0	R1572T
33.627	3.641	283565	COUNTDOWN_END	n/a	n/a	n/a	-999	-999	[0, 0, 0]	n/a	FR1	0	R1572T
37.268	1.6	287206	PRACTICE_WORD	n/a	n/a	FLOOD	1	-1	[0, 0, 0]	n/a	FR1	0	R1572T
39.818	1.6	289756	PRACTICE_WORD	n/a	n/a	WAGON	2	-1	[0, 0, 0]	n/a	FR1	0	R1572T
42.235	1.6	292173	PRACTICE_WORD	n/a	n/a	ATTIC	3	-1	[0, 0, 0]	n/a	FR1	0	R1572T
44.752	1.6	294689	PRACTICE_WORD	n/a	n/a	WATCH	4	-1	[0, 0, 0]	n/a	FR1	0	R1572T
47.303	1.6	297240	PRACTICE_WORD	n/a	n/a	COTTON	5	-1	[0, 0, 0]	n/a	FR1	0	R1572T
49.736	1.6	299673	PRACTICE_WORD	n/a	n/a	IRON	6	-1	[0, 0, 0]	n/a	FR1	0	R1572T
52.137	1.6	302074	PRACTICE_WORD	n/a	n/a	CHEST	7	-1	[0, 0, 0]	n/a	FR1	0	R1572T
54.604	1.6	304541	PRACTICE_WORD	n/a	n/a	CAMEL	8	-1	[0, 0, 0]	n/a	FR1	0	R1572T
57.087	1.6	307024	PRACTICE_WORD	n/a	n/a	RING	9	-1	[0, 0, 0]	n/a	FR1	0	R1572T
59.488	1.6	309425	PRACTICE_WORD	n/a	n/a	RHINO	10	-1	[0, 0, 0]	n/a	FR1	0	R1572T
61.905	1.6	311842	PRACTICE_WORD	n/a	n/a	TONGUE	11	-1	[0, 0, 0]	n/a	FR1	0	R1572T
64.322	1.6	314259	PRACTICE_WORD	n/a	n/a	BEAM	12	-1	[0, 0, 0]	n/a	FR1	0	R1572T
65.939	0.0	315876	PRACTICE_DISTRACT_START	n/a	n/a	n/a	-999	-1	[0, 0, 0]	n/a	FR1	0	R1572T
65.939	0.016	315876	START	n/a	n/a	n/a	-999	-1	[-999, -999, -999]	n/a	FR1	0	R1572T
65.955	5.168	315892	PROB	5.133	n/a	n/a	-999	-1	[5, 6, 1]	12.0	FR1	0	R1572T
71.123	3.9	321060	PROB	3.876	n/a	n/a	-999	-1	[3, 6, 2]	11.0	FR1	0	R1572T
75.023	4.401	324960	PROB	4.369	n/a	n/a	-999	-1	[5, 6, 9]	19.0	FR1	0	R1572T
79.424	2.983	329361	PROB	2.951	n/a	n/a	-999	-1	[5, 2, 2]	9.0	FR1	0	R1572T
82.407	3.051	332344	PROB	3.016	n/a	n/a	-999	-1	[2, 3, 1]	6.0	FR1	0	R1572T
85.458	3.453	335395	PROB	3.453	n/a	n/a	-999	-1	[4, 4, 3]	11.0	FR1	0	R1572T
88.911	0.014	338848	STOP	n/a	n/a	n/a	-999	-1	[-999, -999, -999]	n/a	FR1	0	R1572T
88.925	0.585	338862	PRACTICE_DISTRACT_END	n/a	n/a	n/a	-999	-1	[0, 0, 0]	n/a	FR1	0	R1572T
89.51	30.515	339447	PRACTICE_REC_START	n/a	n/a	n/a	-999	-1	[0, 0, 0]	n/a	FR1	0	R1572T
120.025	12.739	369962	PRACTICE_REC_END	n/a	n/a	n/a	-999	-1	[0, 0, 0]	n/a	FR1	0	R1572T
132.764	10.0	382700	COUNTDOWN_START	n/a	n/a	n/a	-999	1	[0, 0, 0]	n/a	FR1	0	R1572T
132.765	10.427	382701	TRIAL	n/a	n/a	n/a	-999	1	[0, 0, 0]	n/a	FR1	0	R1572T
143.192	0.007	393128	COUNTDOWN_END	n/a	n/a	n/a	-999	1	[0, 0, 0]	n/a	FR1	0	R1572T
143.199	1.6	393135	ORIENT	n/a	n/a	n/a	-999	1	[0, 0, 0]	n/a	FR1	0	R1572T
145.666	1.6	395602	WORD	n/a	wordpools/wordpool_EN.txt	SHEEP	1	1	[0, 0, 0]	n/a	FR1	0	R1572T
148.15	1.6	398086	WORD	n/a	wordpools/wordpool_EN.txt	GOAT	2	1	[0, 0, 0]	n/a	FR1	0	R1572T
150.75	1.6	400686	WORD	n/a	wordpools/wordpool_EN.txt	MOOSE	3	1	[0, 0, 0]	n/a	FR1	0	R1572T
153.367	1.6	403303	WORD	n/a	wordpools/wordpool_EN.txt	MAIL	4	1	[0, 0, 0]	n/a	FR1	0	R1572T
155.884	1.6	405820	WORD	n/a	wordpools/wordpool_EN.txt	SKI	5	1	[0, 0, 0]	n/a	FR1	0	R1572T
158.351	1.6	408287	WORD	n/a	wordpools/wordpool_EN.txt	BREAD	6	1	[0, 0, 0]	n/a	FR1	0	R1572T
160.735	1.6	410671	WORD	n/a	wordpools/wordpool_EN.txt	HAT	7	1	[0, 0, 0]	n/a	FR1	0	R1572T
163.336	1.6	413272	WORD	n/a	wordpools/wordpool_EN.txt	BADGE	8	1	[0, 0, 0]	n/a	FR1	0	R1572T
165.885	1.6	415821	WORD	n/a	wordpools/wordpool_EN.txt	RICE	9	1	[0, 0, 0]	n/a	FR1	0	R1572T
168.369	1.6	418305	WORD	n/a	wordpools/wordpool_EN.txt	SNOW	10	1	[0, 0, 0]	n/a	FR1	0	R1572T
170.786	1.6	420722	WORD	n/a	wordpools/wordpool_EN.txt	FOG	11	1	[0, 0, 0]	n/a	FR1	0	R1572T
173.27	1.6	423206	WORD	n/a	wordpools/wordpool_EN.txt	STORE	12	1	[0, 0, 0]	n/a	FR1	0	R1572T
174.887	0.0	424823	DISTRACT_START	n/a	n/a	n/a	-999	1	[0, 0, 0]	n/a	FR1	0	R1572T
174.887	0.016	424823	START	n/a	n/a	n/a	-999	1	[-999, -999, -999]	n/a	FR1	0	R1572T
174.903	3.817	424839	PROB	3.796	n/a	n/a	-999	1	[9, 1, 5]	14.0	FR1	0	R1572T
178.72	3.734	428656	PROB	3.699	n/a	n/a	-999	1	[1, 8, 3]	11.0	FR1	0	R1572T
182.454	6.584	432390	PROB	6.556	n/a	n/a	-999	1	[8, 6, 9]	23.0	FR1	0	R1572T
189.038	3.218	438974	PROB	3.181	n/a	n/a	-999	1	[8, 9, 1]	18.0	FR1	0	R1572T
192.256	3.058	442192	PROB	3.058	n/a	n/a	-999	1	[3, 6, 6]	15.0	FR1	0	R1572T
195.314	0.009	445250	STOP	n/a	n/a	n/a	-999	1	[-999, -999, -999]	n/a	FR1	0	R1572T
195.323	1.12	445259	DISTRACT_END	n/a	n/a	n/a	-999	1	[0, 0, 0]	n/a	FR1	0	R1572T
196.443	2.063	446379	REC_START	n/a	n/a	n/a	-999	1	[0, 0, 0]	n/a	FR1	0	R1572T
198.506	1.37	448442	REC_WORD	2.063	n/a	GOAT	2	1	[0, 0, 0]	n/a	FR1	0	R1572T
199.876	2.361	449812	REC_WORD	3.433	n/a	SHEEP	1	1	[0, 0, 0]	n/a	FR1	0	R1572T
202.237	4.925	452173	REC_WORD	5.794	n/a	PIG	-999	1	[0, 0, 0]	n/a	FR1	0	R1572T
207.162	12.266	457098	REC_WORD	10.719	n/a	CAR	-999	1	[0, 0, 0]	n/a	FR1	0	R1572T
219.428	7.022	469364	REC_WORD	22.985	n/a	BADGE	8	1	[0, 0, 0]	n/a	FR1	0	R1572T
226.45	3.011	476385	REC_END	n/a	n/a	n/a	-999	1	[0, 0, 0]	n/a	FR1	0	R1572T
229.461	0.0	479396	TRIAL	n/a	n/a	n/a	-999	2	[0, 0, 0]	n/a	FR1	0	R1572T
229.461	10.0	479396	COUNTDOWN_START	n/a	n/a	n/a	-999	2	[0, 0, 0]	n/a	FR1	0	R1572T
239.889	0.006	489824	COUNTDOWN_END	n/a	n/a	n/a	-999	2	[0, 0, 0]	n/a	FR1	0	R1572T
239.895	1.6	489830	ORIENT	n/a	n/a	n/a	-999	2	[0, 0, 0]	n/a	FR1	0	R1572T
242.296	1.6	492231	WORD	n/a	wordpools/wordpool_EN.txt	LEG	1	2	[0, 0, 0]	n/a	FR1	0	R1572T
244.846	1.6	494781	WORD	n/a	wordpools/wordpool_EN.txt	PIG	2	2	[0, 0, 0]	n/a	FR1	0	R1572T
247.331	1.6	497266	WORD	n/a	wordpools/wordpool_EN.txt	RAT	3	2	[0, 0, 0]	n/a	FR1	0	R1572T
249.897	1.6	499832	WORD	n/a	wordpools/wordpool_EN.txt	CUBE	4	2	[0, 0, 0]	n/a	FR1	0	R1572T
252.414	1.6	502349	WORD	n/a	wordpools/wordpool_EN.txt	HILL	5	2	[0, 0, 0]	n/a	FR1	0	R1572T
254.797	1.6	504732	WORD	n/a	wordpools/wordpool_EN.txt	LAMB	6	2	[0, 0, 0]	n/a	FR1	0	R1572T
257.381	1.6	507316	WORD	n/a	wordpools/wordpool_EN.txt	ROAD	7	2	[0, 0, 0]	n/a	FR1	0	R1572T
259.998	1.6	509933	WORD	n/a	wordpools/wordpool_EN.txt	FENCE	8	2	[0, 0, 0]	n/a	FR1	0	R1572T
262.432	1.6	512367	WORD	n/a	wordpools/wordpool_EN.txt	COW	9	2	[0, 0, 0]	n/a	FR1	0	R1572T
264.849	1.6	514784	WORD	n/a	wordpools/wordpool_EN.txt	PET	10	2	[0, 0, 0]	n/a	FR1	0	R1572T
267.466	1.6	517401	WORD	n/a	wordpools/wordpool_EN.txt	CAT	11	2	[0, 0, 0]	n/a	FR1	0	R1572T
270.066	1.6	520001	WORD	n/a	wordpools/wordpool_EN.txt	CALF	12	2	[0, 0, 0]	n/a	FR1	0	R1572T
271.683	0.001	521618	DISTRACT_START	n/a	n/a	n/a	-999	2	[0, 0, 0]	n/a	FR1	0	R1572T
271.684	0.016	521619	START	n/a	n/a	n/a	-999	2	[-999, -999, -999]	n/a	FR1	0	R1572T
271.7	3.217	521635	PROB	3.194	n/a	n/a	-999	2	[9, 1, 1]	11.0	FR1	0	R1572T
274.917	3.533	524852	PROB	3.497	n/a	n/a	-999	2	[5, 1, 9]	15.0	FR1	0	R1572T
278.45	2.767	528385	PROB	2.74	n/a	n/a	-999	2	[1, 6, 6]	13.0	FR1	0	R1572T
281.217	3.718	531152	PROB	3.685	n/a	n/a	-999	2	[4, 6, 9]	19.0	FR1	0	R1572T
284.935	6.983	534870	PROB	6.983	n/a	n/a	-999	2	[7, 4, 5]	14.0	FR1	0	R1572T
291.918	0.018	541853	STOP	n/a	n/a	n/a	-999	2	[-999, -999, -999]	n/a	FR1	0	R1572T
291.936	1.201	541871	DISTRACT_END	n/a	n/a	n/a	-999	2	[0, 0, 0]	n/a	FR1	0	R1572T
293.137	3.565	543072	REC_START	n/a	n/a	n/a	-999	2	[0, 0, 0]	n/a	FR1	0	R1572T
296.702	1.754	546637	REC_WORD	3.565	n/a	DOG	-999	2	[0, 0, 0]	n/a	FR1	0	R1572T
298.456	1.765	548391	REC_WORD	5.319	n/a	RAT	3	2	[0, 0, 0]	n/a	FR1	0	R1572T
300.221	1.768	550156	REC_WORD	7.084	n/a	CAT	11	2	[0, 0, 0]	n/a	FR1	0	R1572T
301.989	4.44	551924	REC_WORD	8.852	n/a	PIG	2	2	[0, 0, 0]	n/a	FR1	0	R1572T
306.429	11.977	556364	REC_WORD	13.292	n/a	FENCE	8	2	[0, 0, 0]	n/a	FR1	0	R1572T
318.406	4.742	568340	REC_WORD	25.269	n/a	LEG	1	2	[0, 0, 0]	n/a	FR1	0	R1572T
323.148	2.692	573082	REC_END	n/a	n/a	n/a	-999	2	[0, 0, 0]	n/a	FR1	0	R1572T
325.84	10.0	575774	COUNTDOWN_START	n/a	n/a	n/a	-999	3	[0, 0, 0]	n/a	FR1	0	R1572T
325.84	10.428	575774	TRIAL	n/a	n/a	n/a	-999	3	[0, 0, 0]	n/a	FR1	0	R1572T
336.268	0.007	586202	COUNTDOWN_END	n/a	n/a	n/a	-999	3	[0, 0, 0]	n/a	FR1	0	R1572T
336.275	1.6	586209	ORIENT	n/a	n/a	n/a	-999	3	[0, 0, 0]	n/a	FR1	0	R1572T
338.792	1.6	588726	WORD	n/a	wordpools/wordpool_EN.txt	CAPE	1	3	[0, 0, 0]	n/a	FR1	0	R1572T
341.226	1.6	591160	WORD	n/a	wordpools/wordpool_EN.txt	BAG	2	3	[0, 0, 0]	n/a	FR1	0	R1572T
343.793	1.6	593727	WORD	n/a	wordpools/wordpool_EN.txt	MAT	3	3	[0, 0, 0]	n/a	FR1	0	R1572T
346.26	1.6	596194	WORD	n/a	wordpools/wordpool_EN.txt	DOOR	4	3	[0, 0, 0]	n/a	FR1	0	R1572T
348.81	1.6	598744	WORD	n/a	wordpools/wordpool_EN.txt	STOVE	5	3	[0, 0, 0]	n/a	FR1	0	R1572T
351.328	1.6	601262	WORD	n/a	wordpools/wordpool_EN.txt	PURSE	6	3	[0, 0, 0]	n/a	FR1	0	R1572T
353.844	1.6	603778	WORD	n/a	wordpools/wordpool_EN.txt	SHIRT	7	3	[0, 0, 0]	n/a	FR1	0	R1572T
356.461	1.6	606395	WORD	n/a	wordpools/wordpool_EN.txt	BOOT	8	3	[0, 0, 0]	n/a	FR1	0	R1572T
359.095	1.6	609029	WORD	n/a	wordpools/wordpool_EN.txt	BATH	9	3	[0, 0, 0]	n/a	FR1	0	R1572T
361.695	1.6	611629	WORD	n/a	wordpools/wordpool_EN.txt	TEA	10	3	[0, 0, 0]	n/a	FR1	0	R1572T
364.229	1.6	614163	WORD	n/a	wordpools/wordpool_EN.txt	PEA	11	3	[0, 0, 0]	n/a	FR1	0	R1572T
366.646	1.6	616580	WORD	n/a	wordpools/wordpool_EN.txt	CLOTH	12	3	[0, 0, 0]	n/a	FR1	0	R1572T
368.263	0.0	618197	DISTRACT_START	n/a	n/a	n/a	-999	3	[0, 0, 0]	n/a	FR1	0	R1572T
368.263	0.016	618197	START	n/a	n/a	n/a	-999	3	[-999, -999, -999]	n/a	FR1	0	R1572T
368.279	6.251	618213	PROB	6.219	n/a	n/a	-999	3	[6, 8, 4]	18.0	FR1	0	R1572T
374.53	3.067	624464	PROB	3.032	n/a	n/a	-999	3	[1, 4, 1]	6.0	FR1	0	R1572T
377.597	2.817	627531	PROB	2.797	n/a	n/a	-999	3	[5, 1, 6]	12.0	FR1	0	R1572T
380.414	6.334	630348	PROB	6.299	n/a	n/a	-999	3	[4, 2, 3]	11.0	FR1	0	R1572T
386.748	3.429	636682	PROB	3.429	n/a	n/a	-999	3	[1, 3, 7]	11.0	FR1	0	R1572T
390.177	0.005	640111	STOP	n/a	n/a	n/a	-999	3	[-999, -999, -999]	n/a	FR1	0	R1572T
390.182	1.169	640116	DISTRACT_END	n/a	n/a	n/a	-999	3	[0, 0, 0]	n/a	FR1	0	R1572T
391.351	1.495	641285	REC_START	n/a	n/a	n/a	-999	3	[0, 0, 0]	n/a	FR1	0	R1572T
392.846	1.594	642780	REC_WORD	1.495	n/a	BAG	2	3	[0, 0, 0]	n/a	FR1	0	R1572T
394.44	2.895	644374	REC_WORD	3.089	n/a	BATH	9	3	[0, 0, 0]	n/a	FR1	0	R1572T
397.335	6.135	647269	REC_WORD	5.984	n/a	SOAP	-999	3	[0, 0, 0]	n/a	FR1	0	R1572T
403.47	1.897	653403	REC_WORD	12.119	n/a	PURSE	6	3	[0, 0, 0]	n/a	FR1	0	R1572T
405.367	5.744	655300	REC_WORD	14.016	n/a	DOOR	4	3	[0, 0, 0]	n/a	FR1	0	R1572T
411.111	10.249	661044	REC_WORD	19.76	n/a	CAPE	1	3	[0, 0, 0]	n/a	FR1	0	R1572T
421.36	3.927	671293	REC_END	n/a	n/a	n/a	-999	3	[0, 0, 0]	n/a	FR1	0	R1572T
425.287	10.0	675220	COUNTDOWN_START	n/a	n/a	n/a	-999	4	[0, 0, 0]	n/a	FR1	0	R1572T
425.287	10.428	675220	TRIAL	n/a	n/a	n/a	-999	4	[0, 0, 0]	n/a	FR1	0	R1572T
435.715	0.007	685648	COUNTDOWN_END	n/a	n/a	n/a	-999	4	[0, 0, 0]	n/a	FR1	0	R1572T
435.722	1.6	685655	ORIENT	n/a	n/a	n/a	-999	4	[0, 0, 0]	n/a	FR1	0	R1572T
438.272	1.6	688205	WORD	n/a	wordpools/wordpool_EN.txt	PEARL	1	4	[0, 0, 0]	n/a	FR1	0	R1572T
440.706	1.6	690639	WORD	n/a	wordpools/wordpool_EN.txt	STEAM	2	4	[0, 0, 0]	n/a	FR1	0	R1572T
443.173	1.6	693106	WORD	n/a	wordpools/wordpool_EN.txt	JET	3	4	[0, 0, 0]	n/a	FR1	0	R1572T
445.573	1.6	695506	WORD	n/a	wordpools/wordpool_EN.txt	ICE	4	4	[0, 0, 0]	n/a	FR1	0	R1572T
448.107	1.6	698040	WORD	n/a	wordpools/wordpool_EN.txt	SEA	5	4	[0, 0, 0]	n/a	FR1	0	R1572T
450.507	1.6	700440	WORD	n/a	wordpools/wordpool_EN.txt	SPARK	6	4	[0, 0, 0]	n/a	FR1	0	R1572T
453.107	1.6	703040	WORD	n/a	wordpools/wordpool_EN.txt	SUN	7	4	[0, 0, 0]	n/a	FR1	0	R1572T
455.641	1.6	705574	WORD	n/a	wordpools/wordpool_EN.txt	SHARK	8	4	[0, 0, 0]	n/a	FR1	0	R1572T
458.075	1.6	708008	WORD	n/a	wordpools/wordpool_EN.txt	PIT	9	4	[0, 0, 0]	n/a	FR1	0	R1572T
460.692	1.6	710625	WORD	n/a	wordpools/wordpool_EN.txt	MAP	10	4	[0, 0, 0]	n/a	FR1	0	R1572T
463.292	1.6	713225	WORD	n/a	wordpools/wordpool_EN.txt	PLANE	11	4	[0, 0, 0]	n/a	FR1	0	R1572T
465.742	1.6	715675	WORD	n/a	wordpools/wordpool_EN.txt	SAIL	12	4	[0, 0, 0]	n/a	FR1	0	R1572T
467.343	0.002	717276	DISTRACT_START	n/a	n/a	n/a	-999	4	[0, 0, 0]	n/a	FR1	0	R1572T
467.345	0.014	717278	START	n/a	n/a	n/a	-999	4	[-999, -999, -999]	n/a	FR1	0	R1572T
467.359	4.101	717292	PROB	4.071	n/a	n/a	-999	4	[5, 4, 2]	11.0	FR1	0	R1572T
471.46	4.551	721393	PROB	4.521	n/a	n/a	-999	4	[2, 7, 4]	13.0	FR1	0	R1572T
476.011	4.067	725944	PROB	4.034	n/a	n/a	-999	4	[9, 3, 7]	19.0	FR1	0	R1572T
480.078	5.268	730011	PROB	5.239	n/a	n/a	-999	4	[6, 1, 7]	15.0	FR1	0	R1572T
485.346	5.139	735279	PROB	5.139	n/a	n/a	-999	4	[9, 8, 7]	24.0	FR1	0	R1572T
490.485	0.011	740417	STOP	n/a	n/a	n/a	-999	4	[-999, -999, -999]	n/a	FR1	0	R1572T
490.496	1.067	740428	DISTRACT_END	n/a	n/a	n/a	-999	4	[0, 0, 0]	n/a	FR1	0	R1572T
491.563	3.566	741495	REC_START	n/a	n/a	n/a	-999	4	[0, 0, 0]	n/a	FR1	0	R1572T
495.129	1.0	745061	REC_WORD	3.566	n/a	JET	3	4	[0, 0, 0]	n/a	FR1	0	R1572T
496.129	5.198	746061	REC_WORD_VV	4.566	n/a	<>	-999	4	[0, 0, 0]	n/a	FR1	0	R1572T
501.327	3.677	751259	REC_WORD	9.764	n/a	PIG	-999	4	[0, 0, 0]	n/a	FR1	0	R1572T
505.004	4.811	754936	REC_WORD	13.441	n/a	DOOR	-999	4	[0, 0, 0]	n/a	FR1	0	R1572T
509.815	11.759	759747	REC_WORD	18.252	n/a	BATH	-999	4	[0, 0, 0]	n/a	FR1	0	R1572T
521.574	2.976	771506	REC_END	n/a	n/a	n/a	-999	4	[0, 0, 0]	n/a	FR1	0	R1572T
524.55	10.0	774482	COUNTDOWN_START	n/a	n/a	n/a	-999	5	[0, 0, 0]	n/a	FR1	0	R1572T
524.551	10.427	774483	TRIAL	n/a	n/a	n/a	-999	5	[0, 0, 0]	n/a	FR1	0	R1572T
534.978	0.007	784910	COUNTDOWN_END	n/a	n/a	n/a	-999	5	[0, 0, 0]	n/a	FR1	0	R1572T
534.985	1.6	784917	ORIENT	n/a	n/a	n/a	-999	5	[0, 0, 0]	n/a	FR1	0	R1572T
537.419	1.6	787351	WORD	n/a	wordpools/wordpool_EN.txt	CLOCK	1	5	[0, 0, 0]	n/a	FR1	0	R1572T
539.886	1.6	789818	WORD	n/a	wordpools/wordpool_EN.txt	FORT	2	5	[0, 0, 0]	n/a	FR1	0	R1572T
542.419	1.6	792351	WORD	n/a	wordpools/wordpool_EN.txt	PIE	3	5	[0, 0, 0]	n/a	FR1	0	R1572T
544.886	1.6	794818	WORD	n/a	wordpools/wordpool_EN.txt	VAN	4	5	[0, 0, 0]	n/a	FR1	0	R1572T
547.42	1.6	797352	WORD	n/a	wordpools/wordpool_EN.txt	FLEA	5	5	[0, 0, 0]	n/a	FR1	0	R1572T
550.02	1.6	799952	WORD	n/a	wordpools/wordpool_EN.txt	SHIELD	6	5	[0, 0, 0]	n/a	FR1	0	R1572T
552.588	1.6	802520	WORD	n/a	wordpools/wordpool_EN.txt	WEED	7	5	[0, 0, 0]	n/a	FR1	0	R1572T
555.138	1.6	805070	WORD	n/a	wordpools/wordpool_EN.txt	CAR	8	5	[0, 0, 0]	n/a	FR1	0	R1572T
557.555	1.6	807487	WORD	n/a	wordpools/wordpool_EN.txt	CONE	9	5	[0, 0, 0]	n/a	FR1	0	R1572T
559.972	1.6	809904	WORD	n/a	wordpools/wordpool_EN.txt	JAIL	10	5	[0, 0, 0]	n/a	FR1	0	R1572T
562.456	1.6	812388	WORD	n/a	wordpools/wordpool_EN.txt	PHONE	11	5	[0, 0, 0]	n/a	FR1	0	R1572T
565.006	1.6	814938	WORD	n/a	wordpools/wordpool_EN.txt	BAND	12	5	[0, 0, 0]	n/a	FR1	0	R1572T
566.623	0.0	816555	DISTRACT_START	n/a	n/a	n/a	-999	5	[0, 0, 0]	n/a	FR1	0	R1572T
566.623	0.016	816555	START	n/a	n/a	n/a	-999	5	[-999, -999, -999]	n/a	FR1	0	R1572T
566.639	2.801	816571	PROB	2.778	n/a	n/a	-999	5	[3, 1, 2]	6.0	FR1	0	R1572T
569.44	2.367	819372	PROB	2.345	n/a	n/a	-999	5	[1, 3, 1]	5.0	FR1	0	R1572T
571.807	7.717	821739	PROB	7.689	n/a	n/a	-999	5	[4, 6, 6]	15.0	FR1	0	R1572T
579.524	3.434	829455	PROB	3.412	n/a	n/a	-999	5	[2, 4, 3]	9.0	FR1	0	R1572T
582.958	2.534	832889	PROB	2.498	n/a	n/a	-999	5	[3, 5, 5]	13.0	FR1	0	R1572T
585.492	4.324	835423	PROB	4.324	n/a	n/a	-999	5	[7, 7, 5]	19.0	FR1	0	R1572T
589.816	0.01	839747	STOP	n/a	n/a	n/a	-999	5	[-999, -999, -999]	n/a	FR1	0	R1572T
589.826	1.168	839757	DISTRACT_END	n/a	n/a	n/a	-999	5	[0, 0, 0]	n/a	FR1	0	R1572T
590.994	22.036	840925	REC_START	n/a	n/a	n/a	-999	5	[0, 0, 0]	n/a	FR1	0	R1572T
613.03	1.816	862961	REC_WORD	22.036	n/a	SEA	-999	5	[0, 0, 0]	n/a	FR1	0	R1572T
614.846	6.159	864777	REC_WORD	23.852	n/a	CLOCK	1	5	[0, 0, 0]	n/a	FR1	0	R1572T
621.005	69.302	870936	REC_END	n/a	n/a	n/a	-999	5	[0, 0, 0]	n/a	FR1	0	R1572T
690.307	0.016	940237	START	n/a	n/a	n/a	-999	6	[-999, -999, -999]	n/a	FR1	0	R1572T
690.323	5.217	940253	PROB	5.192	n/a	n/a	-999	6	[3, 5, 3]	3.0	FR1	0	R1572T
695.54	0.884	945470	PROB	0.847	n/a	n/a	-999	6	[4, 1, 3]	2.0	FR1	0	R1572T
696.424	0.666	946354	PROB	0.635	n/a	n/a	-999	6	[7, 3, 6]	2.0	FR1	0	R1572T
697.09	1.084	947020	PROB	1.057	n/a	n/a	-999	6	[1, 2, 6]	2.0	FR1	0	R1572T
698.174	0.767	948104	PROB	0.733	n/a	n/a	-999	6	[4, 5, 2]	2.0	FR1	0	R1572T
698.941	1.133	948871	PROB	1.102	n/a	n/a	-999	6	[7, 1, 8]	2.0	FR1	0	R1572T
700.074	2.017	950004	PROB	1.993	n/a	n/a	-999	6	[7, 9, 4]	2.0	FR1	0	R1572T
702.091	0.817	952021	PROB	0.791	n/a	n/a	-999	6	[2, 1, 1]	2.0	FR1	0	R1572T
702.908	0.7	952838	PROB	0.663	n/a	n/a	-999	6	[9, 5, 9]	2.0	FR1	0	R1572T
703.608	0.583	953538	PROB	0.563	n/a	n/a	-999	6	[7, 4, 6]	2.0	FR1	0	R1572T
704.191	0.4	954121	PROB	0.364	n/a	n/a	-999	6	[4, 5, 2]	2.0	FR1	0	R1572T
704.591	0.317	954521	PROB	0.284	n/a	n/a	-999	6	[5, 5, 6]	2.0	FR1	0	R1572T
704.908	0.267	954838	PROB	0.23	n/a	n/a	-999	6	[7, 3, 7]	2.0	FR1	0	R1572T
705.175	0.233	955105	PROB	0.212	n/a	n/a	-999	6	[1, 8, 8]	2.0	FR1	0	R1572T
705.408	0.2	955338	PROB	0.178	n/a	n/a	-999	6	[1, 2, 8]	2.0	FR1	0	R1572T
705.608	0.284	955538	PROB	0.259	n/a	n/a	-999	6	[1, 8, 9]	2.0	FR1	0	R1572T
705.892	0.216	955822	PROB	0.19	n/a	n/a	-999	6	[8, 4, 8]	2.0	FR1	0	R1572T
706.108	0.334	956038	PROB	0.31	n/a	n/a	-999	6	[3, 1, 2]	2.0	FR1	0	R1572T
706.442	0.95	956372	PROB	0.92	n/a	n/a	-999	6	[2, 6, 3]	4.0	FR1	0	R1572T
707.392	0.583	957322	PROB	0.554	n/a	n/a	-999	6	[3, 5, 6]	6.0	FR1	0	R1572T
707.975	0.884	957905	PROB	0.86	n/a	n/a	-999	6	[2, 2, 5]	7.0	FR1	0	R1572T
708.859	4.999	958789	PROB	4.999	n/a	n/a	-999	6	[6, 9, 1]	16.0	FR1	0	R1572T
713.858	0.0	963788	STOP	n/a	n/a	n/a	-999	6	[-999, -999, -999]	n/a	FR1	0	R1572T
