onset	duration	sample	trial_type	response_time	stim_file	item_name	serialpos	list	test	answer	experiment	session	subject
0.0	23.408	101771	SESS_START	n/a	n/a	n/a	-999	-999	[0, 0, 0]	n/a	FR1	1	R1137E
23.408	10.0	113474	COUNTDOWN_START	n/a	n/a	n/a	-999	-999	[0, 0, 0]	n/a	FR1	1	R1137E
33.836	3.642	118688	COUNTDOWN_END	n/a	n/a	n/a	-999	-999	[0, 0, 0]	n/a	FR1	1	R1137E
37.478	1.6	120509	PRACTICE_WORD	n/a	n/a	WAGON	1	-1	[0, 0, 0]	n/a	FR1	1	R1137E
39.928	1.6	121734	PRACTICE_WORD	n/a	n/a	RHINO	2	-1	[0, 0, 0]	n/a	FR1	1	R1137E
42.312	1.6	122926	PRACTICE_WORD	n/a	n/a	COTTON	3	-1	[0, 0, 0]	n/a	FR1	1	R1137E
44.695	1.6	124117	PRACTICE_WORD	n/a	n/a	RING	4	-1	[0, 0, 0]	n/a	FR1	1	R1137E
47.113	1.6	125326	PRACTICE_WORD	n/a	n/a	ATTIC	5	-1	[0, 0, 0]	n/a	FR1	1	R1137E
49.696	1.6	126618	PRACTICE_WORD	n/a	n/a	IRON	6	-1	[0, 0, 0]	n/a	FR1	1	R1137E
52.263	1.6	127901	PRACTICE_WORD	n/a	n/a	WATCH	7	-1	[0, 0, 0]	n/a	FR1	1	R1137E
54.732	1.6	129135	PRACTICE_WORD	n/a	n/a	CAMEL	8	-1	[0, 0, 0]	n/a	FR1	1	R1137E
57.264	1.6	130401	PRACTICE_WORD	n/a	n/a	CHEST	9	-1	[0, 0, 0]	n/a	FR1	1	R1137E
59.816	1.6	131677	PRACTICE_WORD	n/a	n/a	BEAM	10	-1	[0, 0, 0]	n/a	FR1	1	R1137E
62.349	1.6	132944	PRACTICE_WORD	n/a	n/a	FLOOD	11	-1	[0, 0, 0]	n/a	FR1	1	R1137E
64.883	1.6	134211	PRACTICE_WORD	n/a	n/a	TONGUE	12	-1	[0, 0, 0]	n/a	FR1	1	R1137E
66.499	0.001	135019	PRACTICE_DISTRACT_START	n/a	n/a	n/a	-999	-1	[0, 0, 0]	n/a	FR1	1	R1137E
66.5	0.016	135019	START	n/a	n/a	n/a	-999	-1	[-999, -999, -999]	n/a	FR1	1	R1137E
66.516	4.801	135027	PROB	4.779	n/a	n/a	-999	-1	[6, 9, 9]	24.0	FR1	1	R1137E
71.317	2.784	137427	PROB	2.763	n/a	n/a	-999	-1	[4, 1, 1]	6.0	FR1	1	R1137E
74.101	3.384	138819	PROB	3.363	n/a	n/a	-999	-1	[4, 9, 9]	22.0	FR1	1	R1137E
77.485	6.434	140511	PROB	6.395	n/a	n/a	-999	-1	[4, 8, 7]	19.0	FR1	1	R1137E
83.919	2.567	143728	PROB	2.537	n/a	n/a	-999	-1	[3, 4, 1]	8.0	FR1	1	R1137E
86.486	4.689	145011	PROB	4.689	n/a	n/a	-999	-1	[2, 6, 5]	13.0	FR1	1	R1137E
91.175	0.012	147356	STOP	n/a	n/a	n/a	-999	-1	[-999, -999, -999]	n/a	FR1	1	R1137E
91.187	0.653	147362	PRACTICE_DISTRACT_END	n/a	n/a	n/a	-999	-1	[0, 0, 0]	n/a	FR1	1	R1137E
91.84	30.514	147688	PRACTICE_REC_START	n/a	n/a	n/a	-999	-1	[0, 0, 0]	n/a	FR1	1	R1137E
122.354	9.24	162945	PRACTICE_REC_END	n/a	n/a	n/a	-999	-1	[0, 0, 0]	n/a	FR1	1	R1137E
131.594	0.0	167564	TRIAL	n/a	n/a	n/a	-999	1	[0, 0, 0]	n/a	FR1	1	R1137E
131.594	10.0	167564	COUNTDOWN_START	n/a	n/a	n/a	-999	1	[0, 0, 0]	n/a	FR1	1	R1137E
142.022	0.007	172778	COUNTDOWN_END	n/a	n/a	n/a	-999	1	[0, 0, 0]	n/a	FR1	1	R1137E
142.029	1.6	172781	ORIENT	n/a	n/a	n/a	-999	1	[0, 0, 0]	n/a	FR1	1	R1137E
144.48	1.6	174007	WORD	n/a	wordpools/wordpool_EN.txt	SNAIL	1	1	[0, 0, 0]	n/a	FR1	1	R1137E
146.881	1.6	175207	WORD	n/a	wordpools/wordpool_EN.txt	CROW	2	1	[0, 0, 0]	n/a	FR1	1	R1137E
149.28	1.6	176407	WORD	n/a	wordpools/wordpool_EN.txt	MOTH	3	1	[0, 0, 0]	n/a	FR1	1	R1137E
151.882	1.6	177708	WORD	n/a	wordpools/wordpool_EN.txt	BRANCH	4	1	[0, 0, 0]	n/a	FR1	1	R1137E
154.481	1.6	179007	WORD	n/a	wordpools/wordpool_EN.txt	MOUSE	5	1	[0, 0, 0]	n/a	FR1	1	R1137E
157.065	1.6	180299	WORD	n/a	wordpools/wordpool_EN.txt	WEB	6	1	[0, 0, 0]	n/a	FR1	1	R1137E
159.616	1.6	181574	WORD	n/a	wordpools/wordpool_EN.txt	RAKE	7	1	[0, 0, 0]	n/a	FR1	1	R1137E
162.166	1.6	182849	WORD	n/a	wordpools/wordpool_EN.txt	KITE	8	1	[0, 0, 0]	n/a	FR1	1	R1137E
164.768	1.6	184150	WORD	n/a	wordpools/wordpool_EN.txt	HAWK	9	1	[0, 0, 0]	n/a	FR1	1	R1137E
167.184	1.6	185358	WORD	n/a	wordpools/wordpool_EN.txt	SNAKE	10	1	[0, 0, 0]	n/a	FR1	1	R1137E
169.584	1.6	186558	WORD	n/a	wordpools/wordpool_EN.txt	OWL	11	1	[0, 0, 0]	n/a	FR1	1	R1137E
172.201	1.6	187867	WORD	n/a	wordpools/wordpool_EN.txt	TENT	12	1	[0, 0, 0]	n/a	FR1	1	R1137E
173.802	0.001	188667	DISTRACT_START	n/a	n/a	n/a	-999	1	[0, 0, 0]	n/a	FR1	1	R1137E
173.803	0.016	188668	START	n/a	n/a	n/a	-999	1	[-999, -999, -999]	n/a	FR1	1	R1137E
173.819	3.099	188676	PROB	3.067	n/a	n/a	-999	1	[3, 9, 1]	13.0	FR1	1	R1137E
176.918	2.869	190225	PROB	2.84	n/a	n/a	-999	1	[1, 3, 9]	13.0	FR1	1	R1137E
179.787	3.0	191659	PROB	2.97	n/a	n/a	-999	1	[3, 7, 3]	13.0	FR1	1	R1137E
182.787	2.75	193159	PROB	2.73	n/a	n/a	-999	1	[7, 6, 4]	17.0	FR1	1	R1137E
185.537	3.184	194534	PROB	3.147	n/a	n/a	-999	1	[1, 7, 9]	17.0	FR1	1	R1137E
188.721	4.068	196126	PROB	4.045	n/a	n/a	-999	1	[4, 7, 7]	18.0	FR1	1	R1137E
192.789	5.231	198160	PROB	5.231	n/a	n/a	-999	1	[7, 2, 6]	15.0	FR1	1	R1137E
198.02	0.019	200775	STOP	n/a	n/a	n/a	-999	1	[-999, -999, -999]	n/a	FR1	1	R1137E
198.039	1.157	200785	DISTRACT_END	n/a	n/a	n/a	-999	1	[0, 0, 0]	n/a	FR1	1	R1137E
199.196	1.861	201363	REC_START	n/a	n/a	n/a	-999	1	[0, 0, 0]	n/a	FR1	1	R1137E
201.057	2.791	202294	REC_WORD	1.861	n/a	MOTH	-999	1	[0, 0, 0]	n/a	FR1	1	R1137E
203.848	1.788	203689	REC_WORD	4.652	n/a	SNAIL	-999	1	[0, 0, 0]	n/a	FR1	1	R1137E
205.636	5.036	204583	REC_WORD	6.44	n/a	CROW	-999	1	[0, 0, 0]	n/a	FR1	1	R1137E
210.672	18.526	207101	REC_WORD	11.476	n/a	RAKE	-999	1	[0, 0, 0]	n/a	FR1	1	R1137E
229.198	2.097	216364	REC_END	n/a	n/a	n/a	-999	1	[0, 0, 0]	n/a	FR1	1	R1137E
231.295	0.0	217412	TRIAL	n/a	n/a	n/a	-999	2	[0, 0, 0]	n/a	FR1	1	R1137E
231.295	10.0	217412	COUNTDOWN_START	n/a	n/a	n/a	-999	2	[0, 0, 0]	n/a	FR1	1	R1137E
241.723	0.008	222626	COUNTDOWN_END	n/a	n/a	n/a	-999	2	[0, 0, 0]	n/a	FR1	1	R1137E
241.731	1.6	222630	ORIENT	n/a	n/a	n/a	-999	2	[0, 0, 0]	n/a	FR1	1	R1137E
244.164	1.6	223846	WORD	n/a	wordpools/wordpool_EN.txt	PARK	1	2	[0, 0, 0]	n/a	FR1	1	R1137E
246.732	1.6	225130	WORD	n/a	wordpools/wordpool_EN.txt	BALL	2	2	[0, 0, 0]	n/a	FR1	1	R1137E
249.114	1.6	226321	WORD	n/a	wordpools/wordpool_EN.txt	FACE	3	2	[0, 0, 0]	n/a	FR1	1	R1137E
251.615	1.6	227571	WORD	n/a	wordpools/wordpool_EN.txt	FAN	4	2	[0, 0, 0]	n/a	FR1	1	R1137E
254.132	1.6	228830	WORD	n/a	wordpools/wordpool_EN.txt	SQUARE	5	2	[0, 0, 0]	n/a	FR1	1	R1137E
256.666	1.6	230097	WORD	n/a	wordpools/wordpool_EN.txt	BAT	6	2	[0, 0, 0]	n/a	FR1	1	R1137E
259.166	1.6	231347	WORD	n/a	wordpools/wordpool_EN.txt	SLIME	7	2	[0, 0, 0]	n/a	FR1	1	R1137E
261.717	1.6	232622	WORD	n/a	wordpools/wordpool_EN.txt	STONE	8	2	[0, 0, 0]	n/a	FR1	1	R1137E
264.134	1.6	233831	WORD	n/a	wordpools/wordpool_EN.txt	CLAY	9	2	[0, 0, 0]	n/a	FR1	1	R1137E
266.601	1.6	235064	WORD	n/a	wordpools/wordpool_EN.txt	MOON	10	2	[0, 0, 0]	n/a	FR1	1	R1137E
269.168	1.6	236347	WORD	n/a	wordpools/wordpool_EN.txt	STOVE	11	2	[0, 0, 0]	n/a	FR1	1	R1137E
271.618	1.6	237572	WORD	n/a	wordpools/wordpool_EN.txt	BROOM	12	2	[0, 0, 0]	n/a	FR1	1	R1137E
273.235	0.001	238381	DISTRACT_START	n/a	n/a	n/a	-999	2	[0, 0, 0]	n/a	FR1	1	R1137E
273.236	0.016	238381	START	n/a	n/a	n/a	-999	2	[-999, -999, -999]	n/a	FR1	1	R1137E
273.252	2.585	238389	PROB	2.564	n/a	n/a	-999	2	[4, 1, 3]	8.0	FR1	1	R1137E
275.837	5.034	239682	PROB	5.002	n/a	n/a	-999	2	[4, 7, 8]	19.0	FR1	1	R1137E
280.871	5.083	242199	PROB	5.057	n/a	n/a	-999	2	[5, 7, 6]	18.0	FR1	1	R1137E
285.954	3.301	244740	PROB	3.271	n/a	n/a	-999	2	[4, 6, 7]	17.0	FR1	1	R1137E
289.255	4.345	246390	PROB	4.345	n/a	n/a	-999	2	[8, 9, 9]	26.0	FR1	1	R1137E
293.6	0.006	248563	STOP	n/a	n/a	n/a	-999	2	[-999, -999, -999]	n/a	FR1	1	R1137E
293.606	1.135	248566	DISTRACT_END	n/a	n/a	n/a	-999	2	[0, 0, 0]	n/a	FR1	1	R1137E
294.741	3.076	249133	REC_START	n/a	n/a	n/a	-999	2	[0, 0, 0]	n/a	FR1	1	R1137E
297.817	2.8	250671	REC_WORD	3.076	n/a	PARK	-999	2	[0, 0, 0]	n/a	FR1	1	R1137E
300.617	19.297	252071	REC_WORD	5.876	n/a	STOVE	-999	2	[0, 0, 0]	n/a	FR1	1	R1137E
319.914	2.136	261719	REC_WORD	25.173	n/a	PARK	-999	2	[0, 0, 0]	n/a	FR1	1	R1137E
322.05	2.7	262787	REC_WORD	27.309	n/a	BALL	-999	2	[0, 0, 0]	n/a	FR1	1	R1137E
324.75	2.345	264137	REC_END	n/a	n/a	n/a	-999	2	[0, 0, 0]	n/a	FR1	1	R1137E
327.095	10.0	265309	COUNTDOWN_START	n/a	n/a	n/a	-999	3	[0, 0, 0]	n/a	FR1	1	R1137E
327.095	10.428	265309	TRIAL	n/a	n/a	n/a	-999	3	[0, 0, 0]	n/a	FR1	1	R1137E
337.523	0.007	270523	COUNTDOWN_END	n/a	n/a	n/a	-999	3	[0, 0, 0]	n/a	FR1	1	R1137E
337.53	1.6	270527	ORIENT	n/a	n/a	n/a	-999	3	[0, 0, 0]	n/a	FR1	1	R1137E
339.915	1.6	271719	WORD	n/a	wordpools/wordpool_EN.txt	LEG	1	3	[0, 0, 0]	n/a	FR1	1	R1137E
342.297	1.6	272910	WORD	n/a	wordpools/wordpool_EN.txt	CORD	2	3	[0, 0, 0]	n/a	FR1	1	R1137E
344.665	1.6	274094	WORD	n/a	wordpools/wordpool_EN.txt	BOX	3	3	[0, 0, 0]	n/a	FR1	1	R1137E
347.065	1.6	275294	WORD	n/a	wordpools/wordpool_EN.txt	HORN	4	3	[0, 0, 0]	n/a	FR1	1	R1137E
349.482	1.6	276502	WORD	n/a	wordpools/wordpool_EN.txt	FENCE	5	3	[0, 0, 0]	n/a	FR1	1	R1137E
351.9	1.6	277711	WORD	n/a	wordpools/wordpool_EN.txt	BENCH	6	3	[0, 0, 0]	n/a	FR1	1	R1137E
354.333	1.6	278928	WORD	n/a	wordpools/wordpool_EN.txt	TRAY	7	3	[0, 0, 0]	n/a	FR1	1	R1137E
356.901	1.6	280212	WORD	n/a	wordpools/wordpool_EN.txt	TOY	8	3	[0, 0, 0]	n/a	FR1	1	R1137E
359.301	1.6	281411	WORD	n/a	wordpools/wordpool_EN.txt	HOLE	9	3	[0, 0, 0]	n/a	FR1	1	R1137E
361.785	1.6	282653	WORD	n/a	wordpools/wordpool_EN.txt	BATH	10	3	[0, 0, 0]	n/a	FR1	1	R1137E
364.351	1.6	283936	WORD	n/a	wordpools/wordpool_EN.txt	JAR	11	3	[0, 0, 0]	n/a	FR1	1	R1137E
366.935	1.6	285228	WORD	n/a	wordpools/wordpool_EN.txt	HOSE	12	3	[0, 0, 0]	n/a	FR1	1	R1137E
368.552	0.001	286037	DISTRACT_START	n/a	n/a	n/a	-999	3	[0, 0, 0]	n/a	FR1	1	R1137E
368.553	0.016	286037	START	n/a	n/a	n/a	-999	3	[-999, -999, -999]	n/a	FR1	1	R1137E
368.569	4.884	286045	PROB	4.863	n/a	n/a	-999	3	[8, 3, 7]	18.0	FR1	1	R1137E
373.453	3.567	288487	PROB	3.539	n/a	n/a	-999	3	[9, 2, 7]	18.0	FR1	1	R1137E
377.02	2.617	290270	PROB	2.596	n/a	n/a	-999	3	[2, 3, 3]	8.0	FR1	1	R1137E
379.637	4.468	291579	PROB	4.435	n/a	n/a	-999	3	[7, 1, 5]	13.0	FR1	1	R1137E
384.105	3.6	293813	PROB	3.567	n/a	n/a	-999	3	[9, 6, 4]	19.0	FR1	1	R1137E
387.705	3.184	295613	PROB	3.184	n/a	n/a	-999	3	[7, 4, 1]	12.0	FR1	1	R1137E
390.889	0.018	297205	STOP	n/a	n/a	n/a	-999	3	[-999, -999, -999]	n/a	FR1	1	R1137E
390.907	1.116	297214	DISTRACT_END	n/a	n/a	n/a	-999	3	[0, 0, 0]	n/a	FR1	1	R1137E
392.023	2.988	297772	REC_START	n/a	n/a	n/a	-999	3	[0, 0, 0]	n/a	FR1	1	R1137E
395.011	1.942	299265	REC_WORD	2.988	n/a	PARK	-999	3	[0, 0, 0]	n/a	FR1	1	R1137E
396.953	2.116	300236	REC_WORD	4.93	n/a	JAR	-999	3	[0, 0, 0]	n/a	FR1	1	R1137E
399.069	0.999	301294	REC_WORD	7.046	n/a	LEG	-999	3	[0, 0, 0]	n/a	FR1	1	R1137E
400.068	6.623	301794	REC_WORD	8.045	n/a	CORD	-999	3	[0, 0, 0]	n/a	FR1	1	R1137E
406.691	2.173	305105	REC_WORD	14.668	n/a	BALL	-999	3	[0, 0, 0]	n/a	FR1	1	R1137E
408.864	13.168	306192	REC_WORD	16.841	n/a	CAMEL	-999	3	[0, 0, 0]	n/a	FR1	1	R1137E
422.032	1.946	312775	REC_END	n/a	n/a	n/a	-999	3	[0, 0, 0]	n/a	FR1	1	R1137E
423.978	10.0	313748	COUNTDOWN_START	n/a	n/a	n/a	-999	4	[0, 0, 0]	n/a	FR1	1	R1137E
423.979	10.427	313749	TRIAL	n/a	n/a	n/a	-999	4	[0, 0, 0]	n/a	FR1	1	R1137E
434.406	0.008	318962	COUNTDOWN_END	n/a	n/a	n/a	-999	4	[0, 0, 0]	n/a	FR1	1	R1137E
434.414	1.6	318966	ORIENT	n/a	n/a	n/a	-999	4	[0, 0, 0]	n/a	FR1	1	R1137E
436.997	1.6	320257	WORD	n/a	wordpools/wordpool_EN.txt	STICK	1	4	[0, 0, 0]	n/a	FR1	1	R1137E
439.464	1.6	321491	WORD	n/a	wordpools/wordpool_EN.txt	DIME	2	4	[0, 0, 0]	n/a	FR1	1	R1137E
442.032	1.6	322775	WORD	n/a	wordpools/wordpool_EN.txt	JEEP	3	4	[0, 0, 0]	n/a	FR1	1	R1137E
444.449	1.6	323983	WORD	n/a	wordpools/wordpool_EN.txt	PIT	4	4	[0, 0, 0]	n/a	FR1	1	R1137E
447.066	1.6	325292	WORD	n/a	wordpools/wordpool_EN.txt	FOX	5	4	[0, 0, 0]	n/a	FR1	1	R1137E
449.533	1.6	326525	WORD	n/a	wordpools/wordpool_EN.txt	WOLF	6	4	[0, 0, 0]	n/a	FR1	1	R1137E
452.033	1.6	327775	WORD	n/a	wordpools/wordpool_EN.txt	ANT	7	4	[0, 0, 0]	n/a	FR1	1	R1137E
454.434	1.6	328975	WORD	n/a	wordpools/wordpool_EN.txt	SHIELD	8	4	[0, 0, 0]	n/a	FR1	1	R1137E
456.835	1.6	330176	WORD	n/a	wordpools/wordpool_EN.txt	ROCK	9	4	[0, 0, 0]	n/a	FR1	1	R1137E
459.335	1.6	331426	WORD	n/a	wordpools/wordpool_EN.txt	CRANE	10	4	[0, 0, 0]	n/a	FR1	1	R1137E
461.952	1.6	332734	WORD	n/a	wordpools/wordpool_EN.txt	NEST	11	4	[0, 0, 0]	n/a	FR1	1	R1137E
464.536	1.6	334026	WORD	n/a	wordpools/wordpool_EN.txt	BEAK	12	4	[0, 0, 0]	n/a	FR1	1	R1137E
466.153	0.0	334835	DISTRACT_START	n/a	n/a	n/a	-999	4	[0, 0, 0]	n/a	FR1	1	R1137E
466.153	0.016	334835	START	n/a	n/a	n/a	-999	4	[-999, -999, -999]	n/a	FR1	1	R1137E
466.169	2.517	334843	PROB	2.492	n/a	n/a	-999	4	[6, 4, 3]	13.0	FR1	1	R1137E
468.686	5.618	336101	PROB	5.583	n/a	n/a	-999	4	[9, 8, 6]	23.0	FR1	1	R1137E
474.304	2.15	338910	PROB	2.125	n/a	n/a	-999	4	[8, 1, 2]	11.0	FR1	1	R1137E
476.454	3.402	339985	PROB	3.376	n/a	n/a	-999	4	[1, 2, 8]	11.0	FR1	1	R1137E
479.856	4.967	341686	PROB	4.934	n/a	n/a	-999	4	[9, 4, 2]	15.0	FR1	1	R1137E
484.823	3.007	344169	PROB	3.007	n/a	n/a	-999	4	[2, 8, 5]	15.0	FR1	1	R1137E
487.83	0.011	345672	STOP	n/a	n/a	n/a	-999	4	[-999, -999, -999]	n/a	FR1	1	R1137E
487.841	1.133	345678	DISTRACT_END	n/a	n/a	n/a	-999	4	[0, 0, 0]	n/a	FR1	1	R1137E
488.974	1.554	346244	REC_START	n/a	n/a	n/a	-999	4	[0, 0, 0]	n/a	FR1	1	R1137E
490.528	1.073	347021	REC_WORD	1.554	n/a	JEEP	-999	4	[0, 0, 0]	n/a	FR1	1	R1137E
491.601	1.076	347558	REC_WORD	2.627	n/a	WOLF	-999	4	[0, 0, 0]	n/a	FR1	1	R1137E
492.677	1.26	348096	REC_WORD	3.703	n/a	BEAK	-999	4	[0, 0, 0]	n/a	FR1	1	R1137E
493.937	0.952	348726	REC_WORD	4.963	n/a	CROW	-999	4	[0, 0, 0]	n/a	FR1	1	R1137E
494.889	2.314	349202	REC_WORD	5.915	n/a	CORD	-999	4	[0, 0, 0]	n/a	FR1	1	R1137E
497.203	21.779	350359	REC_WORD	8.229	n/a	ANT	-999	4	[0, 0, 0]	n/a	FR1	1	R1137E
518.982	8.515	361248	REC_END	n/a	n/a	n/a	-999	4	[0, 0, 0]	n/a	FR1	1	R1137E
527.497	0.0	365505	TRIAL	n/a	n/a	n/a	-999	5	[0, 0, 0]	n/a	FR1	1	R1137E
527.497	10.0	365505	COUNTDOWN_START	n/a	n/a	n/a	-999	5	[0, 0, 0]	n/a	FR1	1	R1137E
537.925	0.007	370719	COUNTDOWN_END	n/a	n/a	n/a	-999	5	[0, 0, 0]	n/a	FR1	1	R1137E
537.932	1.6	370722	ORIENT	n/a	n/a	n/a	-999	5	[0, 0, 0]	n/a	FR1	1	R1137E
540.466	1.6	371989	WORD	n/a	wordpools/wordpool_EN.txt	PURSE	1	5	[0, 0, 0]	n/a	FR1	1	R1137E
543.033	1.6	373272	WORD	n/a	wordpools/wordpool_EN.txt	OAK	2	5	[0, 0, 0]	n/a	FR1	1	R1137E
545.566	1.6	374539	WORD	n/a	wordpools/wordpool_EN.txt	CHEEK	3	5	[0, 0, 0]	n/a	FR1	1	R1137E
548.05	1.6	375781	WORD	n/a	wordpools/wordpool_EN.txt	CANE	4	5	[0, 0, 0]	n/a	FR1	1	R1137E
550.467	1.6	376989	WORD	n/a	wordpools/wordpool_EN.txt	MAZE	5	5	[0, 0, 0]	n/a	FR1	1	R1137E
552.934	1.6	378223	WORD	n/a	wordpools/wordpool_EN.txt	CHIN	6	5	[0, 0, 0]	n/a	FR1	1	R1137E
555.451	1.6	379481	WORD	n/a	wordpools/wordpool_EN.txt	SMILE	7	5	[0, 0, 0]	n/a	FR1	1	R1137E
558.069	1.6	380790	WORD	n/a	wordpools/wordpool_EN.txt	FROG	8	5	[0, 0, 0]	n/a	FR1	1	R1137E
560.519	1.6	382015	WORD	n/a	wordpools/wordpool_EN.txt	ROSE	9	5	[0, 0, 0]	n/a	FR1	1	R1137E
562.919	1.6	383215	WORD	n/a	wordpools/wordpool_EN.txt	COUCH	10	5	[0, 0, 0]	n/a	FR1	1	R1137E
565.537	1.6	384524	WORD	n/a	wordpools/wordpool_EN.txt	LAWN	11	5	[0, 0, 0]	n/a	FR1	1	R1137E
567.954	1.6	385732	WORD	n/a	wordpools/wordpool_EN.txt	MAT	12	5	[0, 0, 0]	n/a	FR1	1	R1137E
569.571	0.0	386541	DISTRACT_START	n/a	n/a	n/a	-999	5	[0, 0, 0]	n/a	FR1	1	R1137E
569.571	0.016	386541	START	n/a	n/a	n/a	-999	5	[-999, -999, -999]	n/a	FR1	1	R1137E
569.587	2.434	386549	PROB	2.407	n/a	n/a	-999	5	[9, 3, 9]	21.0	FR1	1	R1137E
572.021	1.7	387766	PROB	1.669	n/a	n/a	-999	5	[5, 5, 3]	13.0	FR1	1	R1137E
573.721	2.334	388616	PROB	2.313	n/a	n/a	-999	5	[1, 8, 8]	17.0	FR1	1	R1137E
576.055	5.769	389782	PROB	5.737	n/a	n/a	-999	5	[8, 4, 4]	16.0	FR1	1	R1137E
581.824	2.483	392667	PROB	2.447	n/a	n/a	-999	5	[9, 9, 2]	20.0	FR1	1	R1137E
584.307	1.95	393908	PROB	1.924	n/a	n/a	-999	5	[5, 5, 5]	15.0	FR1	1	R1137E
586.257	3.1	394883	PROB	3.07	n/a	n/a	-999	5	[8, 2, 5]	15.0	FR1	1	R1137E
589.357	11.581	396433	PROB	11.581	n/a	n/a	-999	5	[9, 5, 8]	22.0	FR1	1	R1137E
600.938	0.005	402223	STOP	n/a	n/a	n/a	-999	5	[-999, -999, -999]	n/a	FR1	1	R1137E
600.943	1.034	402226	DISTRACT_END	n/a	n/a	n/a	-999	5	[0, 0, 0]	n/a	FR1	1	R1137E
601.977	3.533	402743	REC_START	n/a	n/a	n/a	-999	5	[0, 0, 0]	n/a	FR1	1	R1137E
605.51	1.549	404509	REC_WORD	3.533	n/a	COUCH	-999	5	[0, 0, 0]	n/a	FR1	1	R1137E
607.059	2.428	405284	REC_WORD	5.082	n/a	OAK	-999	5	[0, 0, 0]	n/a	FR1	1	R1137E
609.487	4.053	406498	REC_WORD	7.51	n/a	PURSE	-999	5	[0, 0, 0]	n/a	FR1	1	R1137E
613.54	8.685	408524	REC_WORD	11.563	n/a	FROG	-999	5	[0, 0, 0]	n/a	FR1	1	R1137E
622.225	3.937	412866	REC_WORD	20.248	n/a	SMILE	-999	5	[0, 0, 0]	n/a	FR1	1	R1137E
626.162	5.823	414835	REC_WORD	24.185	n/a	OAK	-999	5	[0, 0, 0]	n/a	FR1	1	R1137E
631.985	2.48	417746	REC_END	n/a	n/a	n/a	-999	5	[0, 0, 0]	n/a	FR1	1	R1137E
634.465	0.0	418986	TRIAL	n/a	n/a	n/a	-999	6	[0, 0, 0]	n/a	FR1	1	R1137E
634.465	10.0	418986	COUNTDOWN_START	n/a	n/a	n/a	-999	6	[0, 0, 0]	n/a	FR1	1	R1137E
644.893	0.008	424200	COUNTDOWN_END	n/a	n/a	n/a	-999	6	[0, 0, 0]	n/a	FR1	1	R1137E
644.901	1.6	424204	ORIENT	n/a	n/a	n/a	-999	6	[0, 0, 0]	n/a	FR1	1	R1137E
647.468	1.6	425487	WORD	n/a	wordpools/wordpool_EN.txt	STOOL	1	6	[0, 0, 0]	n/a	FR1	1	R1137E
649.869	1.6	426687	WORD	n/a	wordpools/wordpool_EN.txt	SOCK	2	6	[0, 0, 0]	n/a	FR1	1	R1137E
652.485	1.6	427995	WORD	n/a	wordpools/wordpool_EN.txt	LOCK	3	6	[0, 0, 0]	n/a	FR1	1	R1137E
655.069	1.6	429287	WORD	n/a	wordpools/wordpool_EN.txt	PALM	4	6	[0, 0, 0]	n/a	FR1	1	R1137E
657.553	1.6	430529	WORD	n/a	wordpools/wordpool_EN.txt	BOWL	5	6	[0, 0, 0]	n/a	FR1	1	R1137E
660.086	1.6	431796	WORD	n/a	wordpools/wordpool_EN.txt	WALL	6	6	[0, 0, 0]	n/a	FR1	1	R1137E
662.52	1.6	433013	WORD	n/a	wordpools/wordpool_EN.txt	STEAK	7	6	[0, 0, 0]	n/a	FR1	1	R1137E
665.137	1.6	434321	WORD	n/a	wordpools/wordpool_EN.txt	LAMP	8	6	[0, 0, 0]	n/a	FR1	1	R1137E
667.654	1.6	435579	WORD	n/a	wordpools/wordpool_EN.txt	CHAIR	9	6	[0, 0, 0]	n/a	FR1	1	R1137E
670.155	1.6	436830	WORD	n/a	wordpools/wordpool_EN.txt	JUICE	10	6	[0, 0, 0]	n/a	FR1	1	R1137E
672.655	1.6	438080	WORD	n/a	wordpools/wordpool_EN.txt	WEED	11	6	[0, 0, 0]	n/a	FR1	1	R1137E
675.072	1.6	439288	WORD	n/a	wordpools/wordpool_EN.txt	DOLL	12	6	[0, 0, 0]	n/a	FR1	1	R1137E
676.689	0.001	440097	DISTRACT_START	n/a	n/a	n/a	-999	6	[0, 0, 0]	n/a	FR1	1	R1137E
676.69	0.016	440097	START	n/a	n/a	n/a	-999	6	[-999, -999, -999]	n/a	FR1	1	R1137E
676.706	3.185	440105	PROB	3.164	n/a	n/a	-999	6	[3, 2, 3]	8.0	FR1	1	R1137E
679.891	3.299	441698	PROB	3.274	n/a	n/a	-999	6	[1, 6, 3]	10.0	FR1	1	R1137E
683.19	3.001	443347	PROB	2.967	n/a	n/a	-999	6	[3, 1, 8]	12.0	FR1	1	R1137E
686.191	2.75	444847	PROB	2.719	n/a	n/a	-999	6	[9, 2, 9]	20.0	FR1	1	R1137E
688.941	5.135	446222	PROB	5.104	n/a	n/a	-999	6	[7, 7, 5]	19.0	FR1	1	R1137E
694.076	4.617	448790	PROB	4.617	n/a	n/a	-999	6	[7, 7, 5]	19.0	FR1	1	R1137E
698.693	0.017	451098	STOP	n/a	n/a	n/a	-999	6	[-999, -999, -999]	n/a	FR1	1	R1137E
698.71	1.168	451107	DISTRACT_END	n/a	n/a	n/a	-999	6	[0, 0, 0]	n/a	FR1	1	R1137E
699.878	1.43	451691	REC_START	n/a	n/a	n/a	-999	6	[0, 0, 0]	n/a	FR1	1	R1137E
701.308	2.394	452406	REC_WORD	1.43	n/a	WEED	-999	6	[0, 0, 0]	n/a	FR1	1	R1137E
703.702	19.182	453602	REC_WORD	3.824	n/a	SOCK	-999	6	[0, 0, 0]	n/a	FR1	1	R1137E
722.884	7.006	463193	REC_WORD	23.006	n/a	STOOL	-999	6	[0, 0, 0]	n/a	FR1	1	R1137E
729.89	2.692	466696	REC_END	n/a	n/a	n/a	-999	6	[0, 0, 0]	n/a	FR1	1	R1137E
732.582	0.0	468042	TRIAL	n/a	n/a	n/a	-999	7	[0, 0, 0]	n/a	FR1	1	R1137E
732.582	10.0	468042	COUNTDOWN_START	n/a	n/a	n/a	-999	7	[0, 0, 0]	n/a	FR1	1	R1137E
743.01	0.008	473255	COUNTDOWN_END	n/a	n/a	n/a	-999	7	[0, 0, 0]	n/a	FR1	1	R1137E
743.018	1.6	473259	ORIENT	n/a	n/a	n/a	-999	7	[0, 0, 0]	n/a	FR1	1	R1137E
745.501	1.6	474501	WORD	n/a	wordpools/wordpool_EN.txt	CAPE	1	7	[0, 0, 0]	n/a	FR1	1	R1137E
747.918	1.6	475709	WORD	n/a	wordpools/wordpool_EN.txt	PLANE	2	7	[0, 0, 0]	n/a	FR1	1	R1137E
750.336	1.6	476918	WORD	n/a	wordpools/wordpool_EN.txt	PEARL	3	7	[0, 0, 0]	n/a	FR1	1	R1137E
752.919	1.6	478210	WORD	n/a	wordpools/wordpool_EN.txt	CLOUD	4	7	[0, 0, 0]	n/a	FR1	1	R1137E
755.436	1.6	479468	WORD	n/a	wordpools/wordpool_EN.txt	SPARK	5	7	[0, 0, 0]	n/a	FR1	1	R1137E
757.987	1.6	480743	WORD	n/a	wordpools/wordpool_EN.txt	DOOR	6	7	[0, 0, 0]	n/a	FR1	1	R1137E
760.371	1.6	481935	WORD	n/a	wordpools/wordpool_EN.txt	VAN	7	7	[0, 0, 0]	n/a	FR1	1	R1137E
762.755	1.6	483127	WORD	n/a	wordpools/wordpool_EN.txt	FUDGE	8	7	[0, 0, 0]	n/a	FR1	1	R1137E
765.172	1.6	484336	WORD	n/a	wordpools/wordpool_EN.txt	SHIP	9	7	[0, 0, 0]	n/a	FR1	1	R1137E
767.722	1.6	485611	WORD	n/a	wordpools/wordpool_EN.txt	SKY	10	7	[0, 0, 0]	n/a	FR1	1	R1137E
770.239	1.6	486869	WORD	n/a	wordpools/wordpool_EN.txt	STAR	11	7	[0, 0, 0]	n/a	FR1	1	R1137E
772.69	1.6	488095	WORD	n/a	wordpools/wordpool_EN.txt	DRUM	12	7	[0, 0, 0]	n/a	FR1	1	R1137E
774.306	0.001	488903	DISTRACT_START	n/a	n/a	n/a	-999	7	[0, 0, 0]	n/a	FR1	1	R1137E
774.307	0.016	488903	START	n/a	n/a	n/a	-999	7	[-999, -999, -999]	n/a	FR1	1	R1137E
774.323	3.634	488911	PROB	3.601	n/a	n/a	-999	7	[7, 6, 7]	20.0	FR1	1	R1137E
777.957	3.584	490728	PROB	3.559	n/a	n/a	-999	7	[8, 1, 4]	13.0	FR1	1	R1137E
781.541	5.501	492520	PROB	5.467	n/a	n/a	-999	7	[8, 3, 4]	15.0	FR1	1	R1137E
787.042	2.167	495270	PROB	2.142	n/a	n/a	-999	7	[1, 3, 9]	13.0	FR1	1	R1137E
789.209	2.568	496354	PROB	2.544	n/a	n/a	-999	7	[1, 9, 9]	19.0	FR1	1	R1137E
791.777	2.316	497638	PROB	2.295	n/a	n/a	-999	7	[4, 2, 5]	11.0	FR1	1	R1137E
794.093	3.235	498795	PROB	3.235	n/a	n/a	-999	7	[5, 8, 5]	18.0	FR1	1	R1137E
797.328	0.016	500413	STOP	n/a	n/a	n/a	-999	7	[-999, -999, -999]	n/a	FR1	1	R1137E
797.344	1.084	500421	DISTRACT_END	n/a	n/a	n/a	-999	7	[0, 0, 0]	n/a	FR1	1	R1137E
798.428	2.174	500963	REC_START	n/a	n/a	n/a	-999	7	[0, 0, 0]	n/a	FR1	1	R1137E
800.602	2.415	502050	REC_WORD	2.174	n/a	CAPE	-999	7	[0, 0, 0]	n/a	FR1	1	R1137E
803.017	2.072	503257	REC_WORD	4.589	n/a	PLANE	-999	7	[0, 0, 0]	n/a	FR1	1	R1137E
805.089	11.729	504293	REC_WORD	6.661	n/a	SKY	-999	7	[0, 0, 0]	n/a	FR1	1	R1137E
816.818	11.618	510157	REC_WORD	18.39	n/a	MOP	-999	7	[0, 0, 0]	n/a	FR1	1	R1137E
828.436	2.247	515966	REC_END	n/a	n/a	n/a	-999	7	[0, 0, 0]	n/a	FR1	1	R1137E
830.683	0.0	517089	TRIAL	n/a	n/a	n/a	-999	8	[0, 0, 0]	n/a	FR1	1	R1137E
830.683	10.0	517089	COUNTDOWN_START	n/a	n/a	n/a	-999	8	[0, 0, 0]	n/a	FR1	1	R1137E
841.111	0.007	522303	COUNTDOWN_END	n/a	n/a	n/a	-999	8	[0, 0, 0]	n/a	FR1	1	R1137E
841.118	1.6	522307	ORIENT	n/a	n/a	n/a	-999	8	[0, 0, 0]	n/a	FR1	1	R1137E
843.719	1.6	523607	WORD	n/a	wordpools/wordpool_EN.txt	CAT	1	8	[0, 0, 0]	n/a	FR1	1	R1137E
846.302	1.6	524899	WORD	n/a	wordpools/wordpool_EN.txt	KEY	2	8	[0, 0, 0]	n/a	FR1	1	R1137E
848.703	1.6	526099	WORD	n/a	wordpools/wordpool_EN.txt	WHALE	3	8	[0, 0, 0]	n/a	FR1	1	R1137E
851.237	1.6	527366	WORD	n/a	wordpools/wordpool_EN.txt	SIGN	4	8	[0, 0, 0]	n/a	FR1	1	R1137E
853.654	1.6	528574	WORD	n/a	wordpools/wordpool_EN.txt	CAR	5	8	[0, 0, 0]	n/a	FR1	1	R1137E
856.087	1.6	529791	WORD	n/a	wordpools/wordpool_EN.txt	WAVE	6	8	[0, 0, 0]	n/a	FR1	1	R1137E
858.604	1.6	531049	WORD	n/a	wordpools/wordpool_EN.txt	JAIL	7	8	[0, 0, 0]	n/a	FR1	1	R1137E
861.055	1.6	532275	WORD	n/a	wordpools/wordpool_EN.txt	JUDGE	8	8	[0, 0, 0]	n/a	FR1	1	R1137E
863.639	1.6	533567	WORD	n/a	wordpools/wordpool_EN.txt	DRESS	9	8	[0, 0, 0]	n/a	FR1	1	R1137E
866.139	1.6	534816	WORD	n/a	wordpools/wordpool_EN.txt	EAR	10	8	[0, 0, 0]	n/a	FR1	1	R1137E
868.623	1.6	536058	WORD	n/a	wordpools/wordpool_EN.txt	SKI	11	8	[0, 0, 0]	n/a	FR1	1	R1137E
871.057	1.6	537275	WORD	n/a	wordpools/wordpool_EN.txt	TRAIN	12	8	[0, 0, 0]	n/a	FR1	1	R1137E
872.674	0.0	538084	DISTRACT_START	n/a	n/a	n/a	-999	8	[0, 0, 0]	n/a	FR1	1	R1137E
872.674	0.016	538084	START	n/a	n/a	n/a	-999	8	[-999, -999, -999]	n/a	FR1	1	R1137E
872.69	4.868	538092	PROB	4.835	n/a	n/a	-999	8	[8, 4, 1]	13.0	FR1	1	R1137E
877.558	3.185	540526	PROB	3.159	n/a	n/a	-999	8	[2, 2, 7]	11.0	FR1	1	R1137E
880.743	3.633	542118	PROB	3.598	n/a	n/a	-999	8	[2, 4, 9]	15.0	FR1	1	R1137E
884.376	2.35	543934	PROB	2.325	n/a	n/a	-999	8	[2, 3, 6]	11.0	FR1	1	R1137E
886.726	4.418	545109	PROB	4.391	n/a	n/a	-999	8	[8, 8, 7]	23.0	FR1	1	R1137E
891.144	3.805	547318	PROB	3.805	n/a	n/a	-999	8	[3, 3, 8]	14.0	FR1	1	R1137E
894.949	0.012	549221	STOP	n/a	n/a	n/a	-999	8	[-999, -999, -999]	n/a	FR1	1	R1137E
894.961	1.134	549227	DISTRACT_END	n/a	n/a	n/a	-999	8	[0, 0, 0]	n/a	FR1	1	R1137E
896.095	5.692	549794	REC_START	n/a	n/a	n/a	-999	8	[0, 0, 0]	n/a	FR1	1	R1137E
901.787	1.66	552639	REC_WORD	5.692	n/a	CAT	-999	8	[0, 0, 0]	n/a	FR1	1	R1137E
903.447	2.014	553469	REC_WORD	7.352	n/a	MOP	-999	8	[0, 0, 0]	n/a	FR1	1	R1137E
905.461	3.71	554476	REC_WORD	9.366	n/a	PEARL	-999	8	[0, 0, 0]	n/a	FR1	1	R1137E
909.171	16.932	556331	REC_WORD	13.076	n/a	SKI	-999	8	[0, 0, 0]	n/a	FR1	1	R1137E
926.103	2.781	564797	REC_END	n/a	n/a	n/a	-999	8	[0, 0, 0]	n/a	FR1	1	R1137E
928.884	10.0	566187	COUNTDOWN_START	n/a	n/a	n/a	-999	9	[0, 0, 0]	n/a	FR1	1	R1137E
928.885	10.427	566188	TRIAL	n/a	n/a	n/a	-999	9	[0, 0, 0]	n/a	FR1	1	R1137E
939.312	0.007	571401	COUNTDOWN_END	n/a	n/a	n/a	-999	9	[0, 0, 0]	n/a	FR1	1	R1137E
939.319	1.6	571404	ORIENT	n/a	n/a	n/a	-999	9	[0, 0, 0]	n/a	FR1	1	R1137E
941.737	1.6	572613	WORD	n/a	wordpools/wordpool_EN.txt	GOLD	1	9	[0, 0, 0]	n/a	FR1	1	R1137E
944.12	1.6	573805	WORD	n/a	wordpools/wordpool_EN.txt	JET	2	9	[0, 0, 0]	n/a	FR1	1	R1137E
946.738	1.6	575114	WORD	n/a	wordpools/wordpool_EN.txt	CASH	3	9	[0, 0, 0]	n/a	FR1	1	R1137E
949.304	1.6	576397	WORD	n/a	wordpools/wordpool_EN.txt	BANK	4	9	[0, 0, 0]	n/a	FR1	1	R1137E
951.905	1.6	577697	WORD	n/a	wordpools/wordpool_EN.txt	BOMB	5	9	[0, 0, 0]	n/a	FR1	1	R1137E
954.288	1.6	578889	WORD	n/a	wordpools/wordpool_EN.txt	MAIL	6	9	[0, 0, 0]	n/a	FR1	1	R1137E
956.889	1.6	580189	WORD	n/a	wordpools/wordpool_EN.txt	BOOK	7	9	[0, 0, 0]	n/a	FR1	1	R1137E
959.439	1.6	581464	WORD	n/a	wordpools/wordpool_EN.txt	DART	8	9	[0, 0, 0]	n/a	FR1	1	R1137E
961.89	1.6	582689	WORD	n/a	wordpools/wordpool_EN.txt	MAP	9	9	[0, 0, 0]	n/a	FR1	1	R1137E
964.306	1.6	583897	WORD	n/a	wordpools/wordpool_EN.txt	FORT	10	9	[0, 0, 0]	n/a	FR1	1	R1137E
966.758	1.6	585123	WORD	n/a	wordpools/wordpool_EN.txt	TOAD	11	9	[0, 0, 0]	n/a	FR1	1	R1137E
969.341	1.6	586415	WORD	n/a	wordpools/wordpool_EN.txt	FILM	12	9	[0, 0, 0]	n/a	FR1	1	R1137E
970.958	0.0	587223	DISTRACT_START	n/a	n/a	n/a	-999	9	[0, 0, 0]	n/a	FR1	1	R1137E
970.958	0.016	587223	START	n/a	n/a	n/a	-999	9	[-999, -999, -999]	n/a	FR1	1	R1137E
970.974	3.284	587231	PROB	3.253	n/a	n/a	-999	9	[3, 6, 4]	13.0	FR1	1	R1137E
974.258	2.451	588873	PROB	2.416	n/a	n/a	-999	9	[2, 1, 8]	11.0	FR1	1	R1137E
976.709	3.034	590098	PROB	3.013	n/a	n/a	-999	9	[9, 6, 1]	16.0	FR1	1	R1137E
979.743	4.517	591615	PROB	4.491	n/a	n/a	-999	9	[9, 2, 7]	18.0	FR1	1	R1137E
984.26	4.585	593874	PROB	4.551	n/a	n/a	-999	9	[9, 4, 4]	17.0	FR1	1	R1137E
988.845	7.895	596166	PROB	7.895	n/a	n/a	-999	9	[4, 9, 6]	19.0	FR1	1	R1137E
996.74	0.006	600113	STOP	n/a	n/a	n/a	-999	9	[-999, -999, -999]	n/a	FR1	1	R1137E
996.746	1.168	600116	DISTRACT_END	n/a	n/a	n/a	-999	9	[0, 0, 0]	n/a	FR1	1	R1137E
997.914	1.487	600700	REC_START	n/a	n/a	n/a	-999	9	[0, 0, 0]	n/a	FR1	1	R1137E
999.401	6.032	601444	REC_WORD	1.487	n/a	TOAD	-999	9	[0, 0, 0]	n/a	FR1	1	R1137E
1005.433	2.199	604460	REC_WORD	7.519	n/a	MOP	-999	9	[0, 0, 0]	n/a	FR1	1	R1137E
1007.632	3.183	605559	REC_WORD	9.718	n/a	MAP	-999	9	[0, 0, 0]	n/a	FR1	1	R1137E
1010.815	2.146	607150	REC_WORD	12.901	n/a	PEARL	-999	9	[0, 0, 0]	n/a	FR1	1	R1137E
1012.961	11.144	608223	REC_WORD	15.047	n/a	BANK	-999	9	[0, 0, 0]	n/a	FR1	1	R1137E
1024.105	3.816	613795	REC_WORD	26.191	n/a	MAIL	-999	9	[0, 0, 0]	n/a	FR1	1	R1137E
1027.921	2.831	615703	REC_END	n/a	n/a	n/a	-999	9	[0, 0, 0]	n/a	FR1	1	R1137E
1030.752	0.0	617118	TRIAL	n/a	n/a	n/a	-999	10	[0, 0, 0]	n/a	FR1	1	R1137E
1030.752	10.0	617118	COUNTDOWN_START	n/a	n/a	n/a	-999	10	[0, 0, 0]	n/a	FR1	1	R1137E
1041.18	0.006	622332	COUNTDOWN_END	n/a	n/a	n/a	-999	10	[0, 0, 0]	n/a	FR1	1	R1137E
1041.186	1.6	622335	ORIENT	n/a	n/a	n/a	-999	10	[0, 0, 0]	n/a	FR1	1	R1137E
1043.654	1.6	623569	WORD	n/a	wordpools/wordpool_EN.txt	GRASS	1	10	[0, 0, 0]	n/a	FR1	1	R1137E
1046.27	1.6	624877	WORD	n/a	wordpools/wordpool_EN.txt	CLOWN	2	10	[0, 0, 0]	n/a	FR1	1	R1137E
1048.671	1.6	626077	WORD	n/a	wordpools/wordpool_EN.txt	WOOD	3	10	[0, 0, 0]	n/a	FR1	1	R1137E
1051.272	1.6	627378	WORD	n/a	wordpools/wordpool_EN.txt	CALF	4	10	[0, 0, 0]	n/a	FR1	1	R1137E
1053.74	1.6	628612	WORD	n/a	wordpools/wordpool_EN.txt	FORK	5	10	[0, 0, 0]	n/a	FR1	1	R1137E
1056.322	1.6	629903	WORD	n/a	wordpools/wordpool_EN.txt	ARM	6	10	[0, 0, 0]	n/a	FR1	1	R1137E
1058.891	1.6	631187	WORD	n/a	wordpools/wordpool_EN.txt	SPOON	7	10	[0, 0, 0]	n/a	FR1	1	R1137E
1061.34	1.6	632412	WORD	n/a	wordpools/wordpool_EN.txt	PEAR	8	10	[0, 0, 0]	n/a	FR1	1	R1137E
1063.775	1.6	633629	WORD	n/a	wordpools/wordpool_EN.txt	SPONGE	9	10	[0, 0, 0]	n/a	FR1	1	R1137E
1066.174	1.6	634828	WORD	n/a	wordpools/wordpool_EN.txt	FISH	10	10	[0, 0, 0]	n/a	FR1	1	R1137E
1068.776	1.6	636129	WORD	n/a	wordpools/wordpool_EN.txt	EGG	11	10	[0, 0, 0]	n/a	FR1	1	R1137E
1071.158	1.6	637320	WORD	n/a	wordpools/wordpool_EN.txt	WORLD	12	10	[0, 0, 0]	n/a	FR1	1	R1137E
1072.759	0.001	638121	DISTRACT_START	n/a	n/a	n/a	-999	10	[0, 0, 0]	n/a	FR1	1	R1137E
1072.76	0.016	638121	START	n/a	n/a	n/a	-999	10	[-999, -999, -999]	n/a	FR1	1	R1137E
1072.776	5.9	638129	PROB	5.868	n/a	n/a	-999	10	[8, 7, 4]	19.0	FR1	1	R1137E
1078.676	2.318	641079	PROB	2.295	n/a	n/a	-999	10	[3, 9, 1]	13.0	FR1	1	R1137E
1080.994	2.751	642238	PROB	2.73	n/a	n/a	-999	10	[3, 7, 7]	17.0	FR1	1	R1137E
1083.745	2.816	643613	PROB	2.786	n/a	n/a	-999	10	[3, 1, 5]	9.0	FR1	1	R1137E
1086.561	5.235	645021	PROB	5.215	n/a	n/a	-999	10	[6, 1, 5]	12.0	FR1	1	R1137E
1091.796	3.611	647639	PROB	3.611	n/a	n/a	-999	10	[7, 5, 4]	16.0	FR1	1	R1137E
1095.407	0.006	649444	STOP	n/a	n/a	n/a	-999	10	[-999, -999, -999]	n/a	FR1	1	R1137E
1095.413	1.184	649447	DISTRACT_END	n/a	n/a	n/a	-999	10	[0, 0, 0]	n/a	FR1	1	R1137E
1096.597	6.255	650039	REC_START	n/a	n/a	n/a	-999	10	[0, 0, 0]	n/a	FR1	1	R1137E
1102.852	14.362	653166	REC_WORD	6.255	n/a	GRASS	-999	10	[0, 0, 0]	n/a	FR1	1	R1137E
1117.214	9.391	660347	REC_WORD	20.617	n/a	FUDGE	-999	10	[0, 0, 0]	n/a	FR1	1	R1137E
1126.605	35.553	665042	REC_END	n/a	n/a	n/a	-999	10	[0, 0, 0]	n/a	FR1	1	R1137E
1162.158	10.0	682818	COUNTDOWN_START	n/a	n/a	n/a	-999	11	[0, 0, 0]	n/a	FR1	1	R1137E
1162.158	10.428	682818	TRIAL	n/a	n/a	n/a	-999	11	[0, 0, 0]	n/a	FR1	1	R1137E
1172.586	0.007	688032	COUNTDOWN_END	n/a	n/a	n/a	-999	11	[0, 0, 0]	n/a	FR1	1	R1137E
1172.593	1.6	688035	ORIENT	n/a	n/a	n/a	-999	11	[0, 0, 0]	n/a	FR1	1	R1137E
1175.01	1.6	689243	WORD	n/a	wordpools/wordpool_EN.txt	CROWN	1	11	[0, 0, 0]	n/a	FR1	1	R1137E
1177.627	1.6	690552	WORD	n/a	wordpools/wordpool_EN.txt	TEETH	2	11	[0, 0, 0]	n/a	FR1	1	R1137E
1180.211	1.6	691844	WORD	n/a	wordpools/wordpool_EN.txt	TREE	3	11	[0, 0, 0]	n/a	FR1	1	R1137E
1182.762	1.6	693119	WORD	n/a	wordpools/wordpool_EN.txt	HOOF	4	11	[0, 0, 0]	n/a	FR1	1	R1137E
1185.278	1.6	694377	WORD	n/a	wordpools/wordpool_EN.txt	BEE	5	11	[0, 0, 0]	n/a	FR1	1	R1137E
1187.712	1.6	695594	WORD	n/a	wordpools/wordpool_EN.txt	DOG	6	11	[0, 0, 0]	n/a	FR1	1	R1137E
1190.279	1.6	696878	WORD	n/a	wordpools/wordpool_EN.txt	BUSH	7	11	[0, 0, 0]	n/a	FR1	1	R1137E
1192.747	1.6	698111	WORD	n/a	wordpools/wordpool_EN.txt	SEAL	8	11	[0, 0, 0]	n/a	FR1	1	R1137E
1195.347	1.6	699411	WORD	n/a	wordpools/wordpool_EN.txt	GRAPE	9	11	[0, 0, 0]	n/a	FR1	1	R1137E
1197.848	1.6	700662	WORD	n/a	wordpools/wordpool_EN.txt	WORM	10	11	[0, 0, 0]	n/a	FR1	1	R1137E
1200.381	1.6	701928	WORD	n/a	wordpools/wordpool_EN.txt	SEED	11	11	[0, 0, 0]	n/a	FR1	1	R1137E
1202.916	1.6	703196	WORD	n/a	wordpools/wordpool_EN.txt	COW	12	11	[0, 0, 0]	n/a	FR1	1	R1137E
1204.532	0.0	704004	DISTRACT_START	n/a	n/a	n/a	-999	11	[0, 0, 0]	n/a	FR1	1	R1137E
1204.532	0.016	704004	START	n/a	n/a	n/a	-999	11	[-999, -999, -999]	n/a	FR1	1	R1137E
1204.548	3.651	704012	PROB	3.625	n/a	n/a	-999	11	[4, 2, 5]	11.0	FR1	1	R1137E
1208.199	4.134	705837	PROB	4.11	n/a	n/a	-999	11	[6, 3, 2]	11.0	FR1	1	R1137E
1212.333	2.051	707904	PROB	2.016	n/a	n/a	-999	11	[1, 5, 1]	7.0	FR1	1	R1137E
1214.384	3.95	708929	PROB	3.924	n/a	n/a	-999	11	[8, 9, 4]	21.0	FR1	1	R1137E
1218.334	4.318	710904	PROB	4.295	n/a	n/a	-999	11	[8, 2, 3]	13.0	FR1	1	R1137E
1222.652	2.873	713063	PROB	2.873	n/a	n/a	-999	11	[6, 1, 4]	11.0	FR1	1	R1137E
1225.525	0.01	714500	STOP	n/a	n/a	n/a	-999	11	[-999, -999, -999]	n/a	FR1	1	R1137E
1225.535	1.118	714505	DISTRACT_END	n/a	n/a	n/a	-999	11	[0, 0, 0]	n/a	FR1	1	R1137E
1226.653	1.17	715064	REC_START	n/a	n/a	n/a	-999	11	[0, 0, 0]	n/a	FR1	1	R1137E
1227.823	1.036	715648	REC_WORD	1.17	n/a	COW	-999	11	[0, 0, 0]	n/a	FR1	1	R1137E
1228.859	2.037	716166	REC_WORD	2.206	n/a	CROWN	-999	11	[0, 0, 0]	n/a	FR1	1	R1137E
1230.896	7.286	717185	REC_WORD	4.243	n/a	BEE	-999	11	[0, 0, 0]	n/a	FR1	1	R1137E
1238.182	9.798	720828	REC_WORD	11.529	n/a	DIRT	-999	11	[0, 0, 0]	n/a	FR1	1	R1137E
1247.98	2.58	725726	REC_WORD	21.327	n/a	WORM	-999	11	[0, 0, 0]	n/a	FR1	1	R1137E
1250.56	6.101	727016	REC_WORD	23.907	n/a	HOOF	-999	11	[0, 0, 0]	n/a	FR1	1	R1137E
1256.661	2.63	730067	REC_END	n/a	n/a	n/a	-999	11	[0, 0, 0]	n/a	FR1	1	R1137E
1259.291	10.0	731382	COUNTDOWN_START	n/a	n/a	n/a	-999	12	[0, 0, 0]	n/a	FR1	1	R1137E
1259.292	10.427	731382	TRIAL	n/a	n/a	n/a	-999	12	[0, 0, 0]	n/a	FR1	1	R1137E
1269.719	0.008	736595	COUNTDOWN_END	n/a	n/a	n/a	-999	12	[0, 0, 0]	n/a	FR1	1	R1137E
1269.727	1.6	736599	ORIENT	n/a	n/a	n/a	-999	12	[0, 0, 0]	n/a	FR1	1	R1137E
1272.21	1.6	737841	WORD	n/a	wordpools/wordpool_EN.txt	PLANT	1	12	[0, 0, 0]	n/a	FR1	1	R1137E
1274.778	1.6	739125	WORD	n/a	wordpools/wordpool_EN.txt	BIRD	2	12	[0, 0, 0]	n/a	FR1	1	R1137E
1277.378	1.6	740425	WORD	n/a	wordpools/wordpool_EN.txt	SHELL	3	12	[0, 0, 0]	n/a	FR1	1	R1137E
1279.846	1.6	741659	WORD	n/a	wordpools/wordpool_EN.txt	FOOD	4	12	[0, 0, 0]	n/a	FR1	1	R1137E
1282.312	1.6	742891	WORD	n/a	wordpools/wordpool_EN.txt	TAIL	5	12	[0, 0, 0]	n/a	FR1	1	R1137E
1284.814	1.6	744142	WORD	n/a	wordpools/wordpool_EN.txt	SWAMP	6	12	[0, 0, 0]	n/a	FR1	1	R1137E
1287.33	1.6	745400	WORD	n/a	wordpools/wordpool_EN.txt	GEESE	7	12	[0, 0, 0]	n/a	FR1	1	R1137E
1289.764	1.6	746617	WORD	n/a	wordpools/wordpool_EN.txt	BEACH	8	12	[0, 0, 0]	n/a	FR1	1	R1137E
1292.181	1.6	747826	WORD	n/a	wordpools/wordpool_EN.txt	DUCK	9	12	[0, 0, 0]	n/a	FR1	1	R1137E
1294.648	1.6	749059	WORD	n/a	wordpools/wordpool_EN.txt	FUR	10	12	[0, 0, 0]	n/a	FR1	1	R1137E
1297.198	1.6	750334	WORD	n/a	wordpools/wordpool_EN.txt	BLUSH	11	12	[0, 0, 0]	n/a	FR1	1	R1137E
1299.766	1.6	751618	WORD	n/a	wordpools/wordpool_EN.txt	WING	12	12	[0, 0, 0]	n/a	FR1	1	R1137E
1301.382	0.001	752426	DISTRACT_START	n/a	n/a	n/a	-999	12	[0, 0, 0]	n/a	FR1	1	R1137E
1301.383	0.016	752426	START	n/a	n/a	n/a	-999	12	[-999, -999, -999]	n/a	FR1	1	R1137E
1301.399	3.368	752434	PROB	3.343	n/a	n/a	-999	12	[8, 1, 1]	10.0	FR1	1	R1137E
1304.767	3.466	754118	PROB	3.43	n/a	n/a	-999	12	[1, 5, 6]	12.0	FR1	1	R1137E
1308.233	1.967	755851	PROB	1.932	n/a	n/a	-999	12	[8, 2, 1]	11.0	FR1	1	R1137E
1310.2	5.134	756835	PROB	5.112	n/a	n/a	-999	12	[6, 5, 3]	14.0	FR1	1	R1137E
1315.334	1.868	759402	PROB	1.834	n/a	n/a	-999	12	[3, 9, 1]	13.0	FR1	1	R1137E
1317.202	2.634	760336	PROB	2.607	n/a	n/a	-999	12	[4, 7, 3]	14.0	FR1	1	R1137E
1319.836	2.212	761652	PROB	2.212	n/a	n/a	-999	12	[5, 8, 2]	15.0	FR1	1	R1137E
1322.048	0.005	762758	STOP	n/a	n/a	n/a	-999	12	[-999, -999, -999]	n/a	FR1	1	R1137E
1322.053	1.101	762761	DISTRACT_END	n/a	n/a	n/a	-999	12	[0, 0, 0]	n/a	FR1	1	R1137E
1323.154	1.367	763311	REC_START	n/a	n/a	n/a	-999	12	[0, 0, 0]	n/a	FR1	1	R1137E
1324.521	1.433	763995	REC_WORD	1.367	n/a	DUCK	-999	12	[0, 0, 0]	n/a	FR1	1	R1137E
1325.954	9.621	764711	REC_WORD	2.8	n/a	BUSH	-999	12	[0, 0, 0]	n/a	FR1	1	R1137E
1335.575	8.039	769522	REC_WORD	12.421	n/a	PEAR	-999	12	[0, 0, 0]	n/a	FR1	1	R1137E
1343.614	4.785	773541	REC_WORD	20.46	n/a	SNAIL	-999	12	[0, 0, 0]	n/a	FR1	1	R1137E
1348.399	4.769	775933	REC_WORD	25.245	n/a	TAIL	-999	12	[0, 0, 0]	n/a	FR1	1	R1137E
1353.168	3.291	778318	REC_END	n/a	n/a	n/a	-999	12	[0, 0, 0]	n/a	FR1	1	R1137E
1356.459	10.0	779963	COUNTDOWN_START	n/a	n/a	n/a	-999	13	[0, 0, 0]	n/a	FR1	1	R1137E
1356.459	10.428	779963	TRIAL	n/a	n/a	n/a	-999	13	[0, 0, 0]	n/a	FR1	1	R1137E
1366.887	0.008	785177	COUNTDOWN_END	n/a	n/a	n/a	-999	13	[0, 0, 0]	n/a	FR1	1	R1137E
1366.895	1.6	785181	ORIENT	n/a	n/a	n/a	-999	13	[0, 0, 0]	n/a	FR1	1	R1137E
1369.461	1.6	786464	WORD	n/a	wordpools/wordpool_EN.txt	VASE	1	13	[0, 0, 0]	n/a	FR1	1	R1137E
1371.896	1.6	787681	WORD	n/a	wordpools/wordpool_EN.txt	HOUSE	2	13	[0, 0, 0]	n/a	FR1	1	R1137E
1374.512	1.6	788989	WORD	n/a	wordpools/wordpool_EN.txt	ROOM	3	13	[0, 0, 0]	n/a	FR1	1	R1137E
1377.112	1.6	790289	WORD	n/a	wordpools/wordpool_EN.txt	VEST	4	13	[0, 0, 0]	n/a	FR1	1	R1137E
1379.613	1.6	791539	WORD	n/a	wordpools/wordpool_EN.txt	HILL	5	13	[0, 0, 0]	n/a	FR1	1	R1137E
1382.213	1.6	792839	WORD	n/a	wordpools/wordpool_EN.txt	CAGE	6	13	[0, 0, 0]	n/a	FR1	1	R1137E
1384.697	1.6	794081	WORD	n/a	wordpools/wordpool_EN.txt	WAND	7	13	[0, 0, 0]	n/a	FR1	1	R1137E
1387.264	1.6	795365	WORD	n/a	wordpools/wordpool_EN.txt	STRAW	8	13	[0, 0, 0]	n/a	FR1	1	R1137E
1389.849	1.6	796657	WORD	n/a	wordpools/wordpool_EN.txt	BARN	9	13	[0, 0, 0]	n/a	FR1	1	R1137E
1392.315	1.6	797890	WORD	n/a	wordpools/wordpool_EN.txt	TOE	10	13	[0, 0, 0]	n/a	FR1	1	R1137E
1394.733	1.6	799099	WORD	n/a	wordpools/wordpool_EN.txt	DESK	11	13	[0, 0, 0]	n/a	FR1	1	R1137E
1397.332	1.6	800398	WORD	n/a	wordpools/wordpool_EN.txt	MUG	12	13	[0, 0, 0]	n/a	FR1	1	R1137E
1398.949	0.001	801207	DISTRACT_START	n/a	n/a	n/a	-999	13	[0, 0, 0]	n/a	FR1	1	R1137E
1398.95	0.016	801207	START	n/a	n/a	n/a	-999	13	[-999, -999, -999]	n/a	FR1	1	R1137E
1398.966	3.417	801215	PROB	3.397	n/a	n/a	-999	13	[8, 1, 9]	18.0	FR1	1	R1137E
1402.383	6.502	802924	PROB	6.476	n/a	n/a	-999	13	[7, 4, 9]	20.0	FR1	1	R1137E
1408.885	2.851	806174	PROB	2.822	n/a	n/a	-999	13	[3, 5, 7]	15.0	FR1	1	R1137E
1411.736	1.816	807600	PROB	1.795	n/a	n/a	-999	13	[5, 1, 5]	11.0	FR1	1	R1137E
1413.552	4.951	808508	PROB	4.915	n/a	n/a	-999	13	[6, 7, 5]	18.0	FR1	1	R1137E
1418.503	1.844	810983	PROB	1.844	n/a	n/a	-999	13	[5, 9, 1]	15.0	FR1	1	R1137E
1420.347	0.006	811905	STOP	n/a	n/a	n/a	-999	13	[-999, -999, -999]	n/a	FR1	1	R1137E
1420.353	1.051	811908	DISTRACT_END	n/a	n/a	n/a	-999	13	[0, 0, 0]	n/a	FR1	1	R1137E
1421.404	0.976	812434	REC_START	n/a	n/a	n/a	-999	13	[0, 0, 0]	n/a	FR1	1	R1137E
1422.38	1.311	812922	REC_WORD	0.976	n/a	STRAW	-999	13	[0, 0, 0]	n/a	FR1	1	R1137E
1423.691	1.516	813577	REC_WORD	2.287	n/a	DESK	-999	13	[0, 0, 0]	n/a	FR1	1	R1137E
1425.207	0.925	814335	REC_WORD	3.803	n/a	VASE	-999	13	[0, 0, 0]	n/a	FR1	1	R1137E
1426.132	4.627	814798	REC_WORD	4.728	n/a	HOUSE	-999	13	[0, 0, 0]	n/a	FR1	1	R1137E
1430.759	20.653	817111	REC_WORD	9.355	n/a	MOUSE	-999	13	[0, 0, 0]	n/a	FR1	1	R1137E
1451.412	20.501	827437	REC_END	n/a	n/a	n/a	-999	13	[0, 0, 0]	n/a	FR1	1	R1137E
1471.913	0.0	837687	TRIAL	n/a	n/a	n/a	-999	14	[0, 0, 0]	n/a	FR1	1	R1137E
1471.913	10.0	837687	COUNTDOWN_START	n/a	n/a	n/a	-999	14	[0, 0, 0]	n/a	FR1	1	R1137E
1482.341	0.006	842900	COUNTDOWN_END	n/a	n/a	n/a	-999	14	[0, 0, 0]	n/a	FR1	1	R1137E
1482.347	1.6	842903	ORIENT	n/a	n/a	n/a	-999	14	[0, 0, 0]	n/a	FR1	1	R1137E
1484.815	1.6	844137	WORD	n/a	wordpools/wordpool_EN.txt	PASTE	1	14	[0, 0, 0]	n/a	FR1	1	R1137E
1487.281	1.6	845370	WORD	n/a	wordpools/wordpool_EN.txt	SHEET	2	14	[0, 0, 0]	n/a	FR1	1	R1137E
1489.665	1.6	846562	WORD	n/a	wordpools/wordpool_EN.txt	TOOL	3	14	[0, 0, 0]	n/a	FR1	1	R1137E
1492.282	1.6	847871	WORD	n/a	wordpools/wordpool_EN.txt	TANK	4	14	[0, 0, 0]	n/a	FR1	1	R1137E
1494.649	1.6	849054	WORD	n/a	wordpools/wordpool_EN.txt	COIN	5	14	[0, 0, 0]	n/a	FR1	1	R1137E
1497.2	1.6	850330	WORD	n/a	wordpools/wordpool_EN.txt	STEM	6	14	[0, 0, 0]	n/a	FR1	1	R1137E
1499.717	1.6	851588	WORD	n/a	wordpools/wordpool_EN.txt	NET	7	14	[0, 0, 0]	n/a	FR1	1	R1137E
1502.101	1.6	852780	WORD	n/a	wordpools/wordpool_EN.txt	MOOSE	8	14	[0, 0, 0]	n/a	FR1	1	R1137E
1504.551	1.6	854005	WORD	n/a	wordpools/wordpool_EN.txt	INK	9	14	[0, 0, 0]	n/a	FR1	1	R1137E
1506.952	1.6	855205	WORD	n/a	wordpools/wordpool_EN.txt	TOOTH	10	14	[0, 0, 0]	n/a	FR1	1	R1137E
1509.452	1.6	856455	WORD	n/a	wordpools/wordpool_EN.txt	FRUIT	11	14	[0, 0, 0]	n/a	FR1	1	R1137E
1511.986	1.6	857722	WORD	n/a	wordpools/wordpool_EN.txt	RICE	12	14	[0, 0, 0]	n/a	FR1	1	R1137E
1513.603	0.0	858531	DISTRACT_START	n/a	n/a	n/a	-999	14	[0, 0, 0]	n/a	FR1	1	R1137E
1513.603	0.016	858531	START	n/a	n/a	n/a	-999	14	[-999, -999, -999]	n/a	FR1	1	R1137E
1513.619	3.152	858539	PROB	3.131	n/a	n/a	-999	14	[7, 9, 3]	19.0	FR1	1	R1137E
1516.771	2.849	860115	PROB	2.826	n/a	n/a	-999	14	[9, 3, 1]	13.0	FR1	1	R1137E
1519.62	4.551	861539	PROB	4.515	n/a	n/a	-999	14	[1, 5, 7]	14.0	FR1	1	R1137E
1524.171	2.851	863814	PROB	2.828	n/a	n/a	-999	14	[5, 4, 6]	15.0	FR1	1	R1137E
1527.022	4.885	865240	PROB	4.85	n/a	n/a	-999	14	[5, 7, 8]	20.0	FR1	1	R1137E
1531.907	4.949	867682	PROB	4.949	n/a	n/a	-999	14	[9, 7, 4]	20.0	FR1	1	R1137E
1536.856	0.018	870156	STOP	n/a	n/a	n/a	-999	14	[-999, -999, -999]	n/a	FR1	1	R1137E
1536.874	1.1	870165	DISTRACT_END	n/a	n/a	n/a	-999	14	[0, 0, 0]	n/a	FR1	1	R1137E
1537.974	1.655	870715	REC_START	n/a	n/a	n/a	-999	14	[0, 0, 0]	n/a	FR1	1	R1137E
1539.629	1.031	871543	REC_WORD	1.655	n/a	MOOSE	-999	14	[0, 0, 0]	n/a	FR1	1	R1137E
1540.66	4.612	872058	REC_WORD	2.686	n/a	INK	-999	14	[0, 0, 0]	n/a	FR1	1	R1137E
1545.272	22.711	874364	REC_WORD	7.298	n/a	TEETH	-999	14	[0, 0, 0]	n/a	FR1	1	R1137E
1567.983	3.246	885719	REC_END	n/a	n/a	n/a	-999	14	[0, 0, 0]	n/a	FR1	1	R1137E
1571.229	10.0	887342	COUNTDOWN_START	n/a	n/a	n/a	-999	15	[0, 0, 0]	n/a	FR1	1	R1137E
1571.23	10.427	887343	TRIAL	n/a	n/a	n/a	-999	15	[0, 0, 0]	n/a	FR1	1	R1137E
1581.657	0.008	892556	COUNTDOWN_END	n/a	n/a	n/a	-999	15	[0, 0, 0]	n/a	FR1	1	R1137E
1581.665	1.6	892560	ORIENT	n/a	n/a	n/a	-999	15	[0, 0, 0]	n/a	FR1	1	R1137E
1584.065	1.6	893760	WORD	n/a	wordpools/wordpool_EN.txt	STORE	1	15	[0, 0, 0]	n/a	FR1	1	R1137E
1586.582	1.6	895018	WORD	n/a	wordpools/wordpool_EN.txt	BEAR	2	15	[0, 0, 0]	n/a	FR1	1	R1137E
1589.099	1.6	896277	WORD	n/a	wordpools/wordpool_EN.txt	BLOOM	3	15	[0, 0, 0]	n/a	FR1	1	R1137E
1591.5	1.6	897477	WORD	n/a	wordpools/wordpool_EN.txt	SHEEP	4	15	[0, 0, 0]	n/a	FR1	1	R1137E
1594.117	1.6	898785	WORD	n/a	wordpools/wordpool_EN.txt	DEER	5	15	[0, 0, 0]	n/a	FR1	1	R1137E
1596.617	1.6	900035	WORD	n/a	wordpools/wordpool_EN.txt	SMOKE	6	15	[0, 0, 0]	n/a	FR1	1	R1137E
1599.084	1.6	901269	WORD	n/a	wordpools/wordpool_EN.txt	BREAD	7	15	[0, 0, 0]	n/a	FR1	1	R1137E
1601.635	1.6	902544	WORD	n/a	wordpools/wordpool_EN.txt	FLUTE	8	15	[0, 0, 0]	n/a	FR1	1	R1137E
1604.069	1.6	903761	WORD	n/a	wordpools/wordpool_EN.txt	FARM	9	15	[0, 0, 0]	n/a	FR1	1	R1137E
1606.535	1.6	904994	WORD	n/a	wordpools/wordpool_EN.txt	HORSE	10	15	[0, 0, 0]	n/a	FR1	1	R1137E
1609.119	1.6	906286	WORD	n/a	wordpools/wordpool_EN.txt	HEART	11	15	[0, 0, 0]	n/a	FR1	1	R1137E
1611.553	1.6	907503	WORD	n/a	wordpools/wordpool_EN.txt	PRINCE	12	15	[0, 0, 0]	n/a	FR1	1	R1137E
1613.17	0.001	908311	DISTRACT_START	n/a	n/a	n/a	-999	15	[0, 0, 0]	n/a	FR1	1	R1137E
1613.171	0.016	908312	START	n/a	n/a	n/a	-999	15	[-999, -999, -999]	n/a	FR1	1	R1137E
1613.187	2.635	908320	PROB	2.602	n/a	n/a	-999	15	[8, 8, 3]	19.0	FR1	1	R1137E
1615.822	2.366	909637	PROB	2.334	n/a	n/a	-999	15	[2, 4, 2]	8.0	FR1	1	R1137E
1618.188	3.334	910820	PROB	3.313	n/a	n/a	-999	15	[3, 4, 4]	11.0	FR1	1	R1137E
1621.522	6.051	912487	PROB	6.015	n/a	n/a	-999	15	[8, 4, 1]	13.0	FR1	1	R1137E
1627.573	3.484	915512	PROB	3.452	n/a	n/a	-999	15	[6, 3, 6]	15.0	FR1	1	R1137E
1631.057	2.689	917254	PROB	2.689	n/a	n/a	-999	15	[6, 3, 6]	15.0	FR1	1	R1137E
1633.746	0.012	918599	STOP	n/a	n/a	n/a	-999	15	[-999, -999, -999]	n/a	FR1	1	R1137E
1633.758	1.202	918605	DISTRACT_END	n/a	n/a	n/a	-999	15	[0, 0, 0]	n/a	FR1	1	R1137E
1634.96	2.031	919206	REC_START	n/a	n/a	n/a	-999	15	[0, 0, 0]	n/a	FR1	1	R1137E
1636.991	8.398	920221	REC_WORD	2.031	n/a	FLUTE	-999	15	[0, 0, 0]	n/a	FR1	1	R1137E
1645.389	1.707	924420	REC_WORD	10.429	n/a	BEAR	-999	15	[0, 0, 0]	n/a	FR1	1	R1137E
1647.096	1.878	925273	REC_WORD	12.136	n/a	MOOSE	-999	15	[0, 0, 0]	n/a	FR1	1	R1137E
1648.974	15.992	926212	REC_WORD	14.014	n/a	DUCK	-999	15	[0, 0, 0]	n/a	FR1	1	R1137E
1664.966	3.047	934208	REC_END	n/a	n/a	n/a	-999	15	[0, 0, 0]	n/a	FR1	1	R1137E
1668.013	0.0	935731	TRIAL	n/a	n/a	n/a	-999	16	[0, 0, 0]	n/a	FR1	1	R1137E
1668.013	10.0	935731	COUNTDOWN_START	n/a	n/a	n/a	-999	16	[0, 0, 0]	n/a	FR1	1	R1137E
1678.441	0.007	940945	COUNTDOWN_END	n/a	n/a	n/a	-999	16	[0, 0, 0]	n/a	FR1	1	R1137E
1678.448	1.6	940949	ORIENT	n/a	n/a	n/a	-999	16	[0, 0, 0]	n/a	FR1	1	R1137E
1680.833	1.6	942141	WORD	n/a	wordpools/wordpool_EN.txt	BRUSH	1	16	[0, 0, 0]	n/a	FR1	1	R1137E
1683.333	1.6	943391	WORD	n/a	wordpools/wordpool_EN.txt	STRING	2	16	[0, 0, 0]	n/a	FR1	1	R1137E
1685.884	1.6	944666	WORD	n/a	wordpools/wordpool_EN.txt	DOCK	3	16	[0, 0, 0]	n/a	FR1	1	R1137E
1688.467	1.6	945958	WORD	n/a	wordpools/wordpool_EN.txt	STORM	4	16	[0, 0, 0]	n/a	FR1	1	R1137E
1690.852	1.6	947150	WORD	n/a	wordpools/wordpool_EN.txt	BRIDGE	5	16	[0, 0, 0]	n/a	FR1	1	R1137E
1693.384	1.6	948416	WORD	n/a	wordpools/wordpool_EN.txt	ROAD	6	16	[0, 0, 0]	n/a	FR1	1	R1137E
1695.968	1.6	949708	WORD	n/a	wordpools/wordpool_EN.txt	BAG	7	16	[0, 0, 0]	n/a	FR1	1	R1137E
1698.368	1.6	950908	WORD	n/a	wordpools/wordpool_EN.txt	ROOF	8	16	[0, 0, 0]	n/a	FR1	1	R1137E
1700.969	1.6	952208	WORD	n/a	wordpools/wordpool_EN.txt	PEACH	9	16	[0, 0, 0]	n/a	FR1	1	R1137E
1703.519	1.6	953483	WORD	n/a	wordpools/wordpool_EN.txt	STAIR	10	16	[0, 0, 0]	n/a	FR1	1	R1137E
1706.12	1.6	954784	WORD	n/a	wordpools/wordpool_EN.txt	MUD	11	16	[0, 0, 0]	n/a	FR1	1	R1137E
1708.704	1.6	956076	WORD	n/a	wordpools/wordpool_EN.txt	CUBE	12	16	[0, 0, 0]	n/a	FR1	1	R1137E
1710.321	0.0	956884	DISTRACT_START	n/a	n/a	n/a	-999	16	[0, 0, 0]	n/a	FR1	1	R1137E
1710.321	0.016	956884	START	n/a	n/a	n/a	-999	16	[-999, -999, -999]	n/a	FR1	1	R1137E
1710.337	2.984	956892	PROB	2.957	n/a	n/a	-999	16	[8, 9, 1]	18.0	FR1	1	R1137E
1713.321	3.284	958384	PROB	3.253	n/a	n/a	-999	16	[1, 1, 5]	7.0	FR1	1	R1137E
1716.605	3.934	960026	PROB	3.912	n/a	n/a	-999	16	[7, 8, 7]	22.0	FR1	1	R1137E
1720.539	5.184	961993	PROB	5.151	n/a	n/a	-999	16	[4, 8, 5]	17.0	FR1	1	R1137E
1725.723	2.651	964585	PROB	2.615	n/a	n/a	-999	16	[3, 3, 2]	8.0	FR1	1	R1137E
1728.374	3.196	965910	PROB	3.196	n/a	n/a	-999	16	[7, 7, 6]	20.0	FR1	1	R1137E
1731.57	0.004	967508	STOP	n/a	n/a	n/a	-999	16	[-999, -999, -999]	n/a	FR1	1	R1137E
1731.574	1.169	967510	DISTRACT_END	n/a	n/a	n/a	-999	16	[0, 0, 0]	n/a	FR1	1	R1137E
1732.743	1.845	968095	REC_START	n/a	n/a	n/a	-999	16	[0, 0, 0]	n/a	FR1	1	R1137E
1734.588	1.439	969017	REC_WORD	1.845	n/a	STORE	-999	16	[0, 0, 0]	n/a	FR1	1	R1137E
1736.027	1.681	969736	REC_WORD	3.284	n/a	PEACH	-999	16	[0, 0, 0]	n/a	FR1	1	R1137E
1737.708	1.871	970577	REC_WORD	4.965	n/a	ROOF	-999	16	[0, 0, 0]	n/a	FR1	1	R1137E
1739.579	9.37	971512	REC_WORD	6.836	n/a	PEAR	-999	16	[0, 0, 0]	n/a	FR1	1	R1137E
1748.949	3.276	976197	REC_WORD	16.206	n/a	MUD	-999	16	[0, 0, 0]	n/a	FR1	1	R1137E
1752.225	10.526	977835	REC_WORD	19.482	n/a	STING	-999	16	[0, 0, 0]	n/a	FR1	1	R1137E
1762.751	2.646	983098	REC_END	n/a	n/a	n/a	-999	16	[0, 0, 0]	n/a	FR1	1	R1137E
1765.397	10.0	984421	COUNTDOWN_START	n/a	n/a	n/a	-999	17	[0, 0, 0]	n/a	FR1	1	R1137E
1765.397	10.428	984421	TRIAL	n/a	n/a	n/a	-999	17	[0, 0, 0]	n/a	FR1	1	R1137E
1775.825	0.008	989634	COUNTDOWN_END	n/a	n/a	n/a	-999	17	[0, 0, 0]	n/a	FR1	1	R1137E
1775.833	1.6	989638	ORIENT	n/a	n/a	n/a	-999	17	[0, 0, 0]	n/a	FR1	1	R1137E
1778.282	1.6	990863	WORD	n/a	wordpools/wordpool_EN.txt	MULE	1	17	[0, 0, 0]	n/a	FR1	1	R1137E
1780.867	1.6	992155	WORD	n/a	wordpools/wordpool_EN.txt	SEAT	2	17	[0, 0, 0]	n/a	FR1	1	R1137E
1783.333	1.6	993388	WORD	n/a	wordpools/wordpool_EN.txt	OAR	3	17	[0, 0, 0]	n/a	FR1	1	R1137E
1785.951	1.6	994697	WORD	n/a	wordpools/wordpool_EN.txt	SUN	4	17	[0, 0, 0]	n/a	FR1	1	R1137E
1788.401	1.6	995922	WORD	n/a	wordpools/wordpool_EN.txt	ICE	5	17	[0, 0, 0]	n/a	FR1	1	R1137E
1790.835	1.6	997139	WORD	n/a	wordpools/wordpool_EN.txt	CONE	6	17	[0, 0, 0]	n/a	FR1	1	R1137E
1793.285	1.6	998364	WORD	n/a	wordpools/wordpool_EN.txt	PLATE	7	17	[0, 0, 0]	n/a	FR1	1	R1137E
1795.82	1.6	999631	WORD	n/a	wordpools/wordpool_EN.txt	WHEEL	8	17	[0, 0, 0]	n/a	FR1	1	R1137E
1798.436	1.6	1000939	WORD	n/a	wordpools/wordpool_EN.txt	SCHOOL	9	17	[0, 0, 0]	n/a	FR1	1	R1137E
1800.953	1.6	1002198	WORD	n/a	wordpools/wordpool_EN.txt	ROOT	10	17	[0, 0, 0]	n/a	FR1	1	R1137E
1803.42	1.6	1003431	WORD	n/a	wordpools/wordpool_EN.txt	FOG	11	17	[0, 0, 0]	n/a	FR1	1	R1137E
1805.921	1.6	1004682	WORD	n/a	wordpools/wordpool_EN.txt	NAIL	12	17	[0, 0, 0]	n/a	FR1	1	R1137E
1807.538	0.0	1005490	DISTRACT_START	n/a	n/a	n/a	-999	17	[0, 0, 0]	n/a	FR1	1	R1137E
1807.538	0.016	1005490	START	n/a	n/a	n/a	-999	17	[-999, -999, -999]	n/a	FR1	1	R1137E
1807.554	2.634	1005498	PROB	2.61	n/a	n/a	-999	17	[5, 3, 3]	11.0	FR1	1	R1137E
1810.188	2.467	1006815	PROB	2.44	n/a	n/a	-999	17	[9, 7, 3]	19.0	FR1	1	R1137E
1812.655	2.152	1008048	PROB	2.126	n/a	n/a	-999	17	[2, 3, 7]	12.0	FR1	1	R1137E
1814.807	8.084	1009124	PROB	8.057	n/a	n/a	-999	17	[8, 7, 9]	24.0	FR1	1	R1137E
1822.891	2.516	1013166	PROB	2.484	n/a	n/a	-999	17	[4, 3, 7]	14.0	FR1	1	R1137E
1825.407	6.602	1014424	PROB	6.602	n/a	n/a	-999	17	[4, 8, 5]	17.0	FR1	1	R1137E
1832.009	0.016	1017725	STOP	n/a	n/a	n/a	-999	17	[-999, -999, -999]	n/a	FR1	1	R1137E
1832.025	1.218	1017733	DISTRACT_END	n/a	n/a	n/a	-999	17	[0, 0, 0]	n/a	FR1	1	R1137E
1833.243	1.214	1018342	REC_START	n/a	n/a	n/a	-999	17	[0, 0, 0]	n/a	FR1	1	R1137E
1834.457	2.624	1018949	REC_WORD	1.214	n/a	CONE	-999	17	[0, 0, 0]	n/a	FR1	1	R1137E
1837.081	6.083	1020261	REC_WORD	3.838	n/a	ICE	-999	17	[0, 0, 0]	n/a	FR1	1	R1137E
1843.164	6.336	1023302	REC_WORD	9.921	n/a	WHEEL	-999	17	[0, 0, 0]	n/a	FR1	1	R1137E
1849.5	6.155	1026470	REC_WORD	16.257	n/a	OAR	-999	17	[0, 0, 0]	n/a	FR1	1	R1137E
1855.655	3.504	1029547	REC_WORD	22.412	n/a	MULE	-999	17	[0, 0, 0]	n/a	FR1	1	R1137E
1859.159	4.092	1031299	REC_WORD	25.916	n/a	PEACH	-999	17	[0, 0, 0]	n/a	FR1	1	R1137E
1863.251	2.515	1033345	REC_END	n/a	n/a	n/a	-999	17	[0, 0, 0]	n/a	FR1	1	R1137E
1865.766	0.0	1034602	TRIAL	n/a	n/a	n/a	-999	18	[0, 0, 0]	n/a	FR1	1	R1137E
1865.766	10.0	1034602	COUNTDOWN_START	n/a	n/a	n/a	-999	18	[0, 0, 0]	n/a	FR1	1	R1137E
1876.194	0.006	1039816	COUNTDOWN_END	n/a	n/a	n/a	-999	18	[0, 0, 0]	n/a	FR1	1	R1137E
1876.2	1.6	1039819	ORIENT	n/a	n/a	n/a	-999	18	[0, 0, 0]	n/a	FR1	1	R1137E
1878.785	1.6	1041112	WORD	n/a	wordpools/wordpool_EN.txt	LEAF	1	18	[0, 0, 0]	n/a	FR1	1	R1137E
1881.334	1.6	1042386	WORD	n/a	wordpools/wordpool_EN.txt	SAIL	2	18	[0, 0, 0]	n/a	FR1	1	R1137E
1883.769	1.6	1043603	WORD	n/a	wordpools/wordpool_EN.txt	SPEAR	3	18	[0, 0, 0]	n/a	FR1	1	R1137E
1886.285	1.6	1044861	WORD	n/a	wordpools/wordpool_EN.txt	VINE	4	18	[0, 0, 0]	n/a	FR1	1	R1137E
1888.903	1.6	1046170	WORD	n/a	wordpools/wordpool_EN.txt	LAND	5	18	[0, 0, 0]	n/a	FR1	1	R1137E
1891.386	1.6	1047412	WORD	n/a	wordpools/wordpool_EN.txt	TEA	6	18	[0, 0, 0]	n/a	FR1	1	R1137E
1893.854	1.6	1048646	WORD	n/a	wordpools/wordpool_EN.txt	CAVE	7	18	[0, 0, 0]	n/a	FR1	1	R1137E
1896.287	1.6	1049862	WORD	n/a	wordpools/wordpool_EN.txt	PEA	8	18	[0, 0, 0]	n/a	FR1	1	R1137E
1898.838	1.6	1051137	WORD	n/a	wordpools/wordpool_EN.txt	BOY	9	18	[0, 0, 0]	n/a	FR1	1	R1137E
1901.221	1.6	1052329	WORD	n/a	wordpools/wordpool_EN.txt	CORN	10	18	[0, 0, 0]	n/a	FR1	1	R1137E
1903.756	1.6	1053596	WORD	n/a	wordpools/wordpool_EN.txt	SEA	11	18	[0, 0, 0]	n/a	FR1	1	R1137E
1906.355	1.6	1054896	WORD	n/a	wordpools/wordpool_EN.txt	CHIEF	12	18	[0, 0, 0]	n/a	FR1	1	R1137E
1907.972	0.001	1055704	DISTRACT_START	n/a	n/a	n/a	-999	18	[0, 0, 0]	n/a	FR1	1	R1137E
1907.973	0.016	1055705	START	n/a	n/a	n/a	-999	18	[-999, -999, -999]	n/a	FR1	1	R1137E
1907.989	4.617	1055713	PROB	4.595	n/a	n/a	-999	18	[1, 6, 7]	14.0	FR1	1	R1137E
1912.606	3.467	1058021	PROB	3.442	n/a	n/a	-999	18	[1, 4, 5]	10.0	FR1	1	R1137E
1916.073	1.967	1059754	PROB	1.936	n/a	n/a	-999	18	[8, 2, 2]	12.0	FR1	1	R1137E
1918.04	3.835	1060738	PROB	3.802	n/a	n/a	-999	18	[4, 8, 3]	15.0	FR1	1	R1137E
1921.875	5.134	1062655	PROB	5.105	n/a	n/a	-999	18	[5, 9, 9]	23.0	FR1	1	R1137E
1927.009	2.139	1065222	PROB	2.139	n/a	n/a	-999	18	[1, 6, 2]	9.0	FR1	1	R1137E
1929.148	0.011	1066292	STOP	n/a	n/a	n/a	-999	18	[-999, -999, -999]	n/a	FR1	1	R1137E
1929.159	1.217	1066297	DISTRACT_END	n/a	n/a	n/a	-999	18	[0, 0, 0]	n/a	FR1	1	R1137E
1930.376	5.249	1066906	REC_START	n/a	n/a	n/a	-999	18	[0, 0, 0]	n/a	FR1	1	R1137E
1935.625	2.805	1069530	REC_WORD	5.249	n/a	LAND	-999	18	[0, 0, 0]	n/a	FR1	1	R1137E
1938.43	4.719	1070932	REC_WORD	8.054	n/a	ICE	-999	18	[0, 0, 0]	n/a	FR1	1	R1137E
1943.149	3.229	1073292	REC_WORD	12.773	n/a	PEA	-999	18	[0, 0, 0]	n/a	FR1	1	R1137E
1946.378	2.145	1074906	REC_WORD	16.002	n/a	SEA	-999	18	[0, 0, 0]	n/a	FR1	1	R1137E
1948.523	2.578	1075979	REC_WORD	18.147	n/a	TEA	-999	18	[0, 0, 0]	n/a	FR1	1	R1137E
1951.101	9.284	1077268	REC_WORD	20.725	n/a	CHIEF	-999	18	[0, 0, 0]	n/a	FR1	1	R1137E
1960.385	19.533	1081909	REC_END	n/a	n/a	n/a	-999	18	[0, 0, 0]	n/a	FR1	1	R1137E
1979.918	0.0	1091675	TRIAL	n/a	n/a	n/a	-999	19	[0, 0, 0]	n/a	FR1	1	R1137E
1979.918	10.0	1091675	COUNTDOWN_START	n/a	n/a	n/a	-999	19	[0, 0, 0]	n/a	FR1	1	R1137E
1990.346	0.007	1096889	COUNTDOWN_END	n/a	n/a	n/a	-999	19	[0, 0, 0]	n/a	FR1	1	R1137E
1990.353	1.6	1096892	ORIENT	n/a	n/a	n/a	-999	19	[0, 0, 0]	n/a	FR1	1	R1137E
1992.97	1.6	1098201	WORD	n/a	wordpools/wordpool_EN.txt	TRUCK	1	19	[0, 0, 0]	n/a	FR1	1	R1137E
1995.554	1.6	1099493	WORD	n/a	wordpools/wordpool_EN.txt	SLEEVE	2	19	[0, 0, 0]	n/a	FR1	1	R1137E
1998.004	1.6	1100718	WORD	n/a	wordpools/wordpool_EN.txt	PET	3	19	[0, 0, 0]	n/a	FR1	1	R1137E
2000.388	1.6	1101910	WORD	n/a	wordpools/wordpool_EN.txt	APE	4	19	[0, 0, 0]	n/a	FR1	1	R1137E
2002.873	1.6	1103152	WORD	n/a	wordpools/wordpool_EN.txt	GLASS	5	19	[0, 0, 0]	n/a	FR1	1	R1137E
2005.256	1.6	1104344	WORD	n/a	wordpools/wordpool_EN.txt	SHOE	6	19	[0, 0, 0]	n/a	FR1	1	R1137E
2007.706	1.6	1105568	WORD	n/a	wordpools/wordpool_EN.txt	ZOO	7	19	[0, 0, 0]	n/a	FR1	1	R1137E
2010.157	1.6	1106794	WORD	n/a	wordpools/wordpool_EN.txt	CUP	8	19	[0, 0, 0]	n/a	FR1	1	R1137E
2012.741	1.6	1108086	WORD	n/a	wordpools/wordpool_EN.txt	PIPE	9	19	[0, 0, 0]	n/a	FR1	1	R1137E
2015.324	1.6	1109377	WORD	n/a	wordpools/wordpool_EN.txt	PEN	10	19	[0, 0, 0]	n/a	FR1	1	R1137E
2017.958	1.6	1110694	WORD	n/a	wordpools/wordpool_EN.txt	SKUNK	11	19	[0, 0, 0]	n/a	FR1	1	R1137E
2020.508	1.6	1111969	WORD	n/a	wordpools/wordpool_EN.txt	STREET	12	19	[0, 0, 0]	n/a	FR1	1	R1137E
2022.125	0.001	1112778	DISTRACT_START	n/a	n/a	n/a	-999	19	[0, 0, 0]	n/a	FR1	1	R1137E
2022.126	0.016	1112778	START	n/a	n/a	n/a	-999	19	[-999, -999, -999]	n/a	FR1	1	R1137E
2022.142	3.367	1112786	PROB	3.344	n/a	n/a	-999	19	[8, 1, 3]	12.0	FR1	1	R1137E
2025.509	5.018	1114469	PROB	4.993	n/a	n/a	-999	19	[4, 2, 7]	13.0	FR1	1	R1137E
2030.527	3.417	1116978	PROB	3.384	n/a	n/a	-999	19	[2, 9, 4]	15.0	FR1	1	R1137E
2033.944	4.317	1118687	PROB	4.294	n/a	n/a	-999	19	[4, 2, 9]	15.0	FR1	1	R1137E
2038.261	2.301	1120845	PROB	2.281	n/a	n/a	-999	19	[5, 5, 7]	17.0	FR1	1	R1137E
2040.562	3.492	1121996	PROB	3.492	n/a	n/a	-999	19	[9, 5, 2]	16.0	FR1	1	R1137E
2044.054	0.009	1123741	STOP	n/a	n/a	n/a	-999	19	[-999, -999, -999]	n/a	FR1	1	R1137E
2044.063	1.184	1123746	DISTRACT_END	n/a	n/a	n/a	-999	19	[0, 0, 0]	n/a	FR1	1	R1137E
2045.247	1.55	1124338	REC_START	n/a	n/a	n/a	-999	19	[0, 0, 0]	n/a	FR1	1	R1137E
2046.797	0.864	1125113	REC_WORD	1.55	n/a	ICE	-999	19	[0, 0, 0]	n/a	FR1	1	R1137E
2047.661	3.277	1125545	REC_WORD	2.414	n/a	SLEEVE	-999	19	[0, 0, 0]	n/a	FR1	1	R1137E
2050.938	24.317	1127183	REC_WORD	5.691	n/a	CUP	-999	19	[0, 0, 0]	n/a	FR1	1	R1137E
2075.255	2.147	1139341	REC_END	n/a	n/a	n/a	-999	19	[0, 0, 0]	n/a	FR1	1	R1137E
2077.402	0.0	1140415	TRIAL	n/a	n/a	n/a	-999	20	[0, 0, 0]	n/a	FR1	1	R1137E
2077.402	10.0	1140415	COUNTDOWN_START	n/a	n/a	n/a	-999	20	[0, 0, 0]	n/a	FR1	1	R1137E
2087.83	0.008	1145628	COUNTDOWN_END	n/a	n/a	n/a	-999	20	[0, 0, 0]	n/a	FR1	1	R1137E
2087.838	1.6	1145632	ORIENT	n/a	n/a	n/a	-999	20	[0, 0, 0]	n/a	FR1	1	R1137E
2090.254	1.6	1146840	WORD	n/a	wordpools/wordpool_EN.txt	BRICK	1	20	[0, 0, 0]	n/a	FR1	1	R1137E
2092.654	1.6	1148040	WORD	n/a	wordpools/wordpool_EN.txt	CAKE	2	20	[0, 0, 0]	n/a	FR1	1	R1137E
2095.172	1.6	1149299	WORD	n/a	wordpools/wordpool_EN.txt	RAIN	3	20	[0, 0, 0]	n/a	FR1	1	R1137E
2097.639	1.6	1150532	WORD	n/a	wordpools/wordpool_EN.txt	SOUP	4	20	[0, 0, 0]	n/a	FR1	1	R1137E
2100.239	1.6	1151832	WORD	n/a	wordpools/wordpool_EN.txt	FLOOR	5	20	[0, 0, 0]	n/a	FR1	1	R1137E
2102.74	1.6	1153083	WORD	n/a	wordpools/wordpool_EN.txt	SNOW	6	20	[0, 0, 0]	n/a	FR1	1	R1137E
2105.223	1.6	1154324	WORD	n/a	wordpools/wordpool_EN.txt	SHARK	7	20	[0, 0, 0]	n/a	FR1	1	R1137E
2107.64	1.6	1155533	WORD	n/a	wordpools/wordpool_EN.txt	CHALK	8	20	[0, 0, 0]	n/a	FR1	1	R1137E
2110.074	1.6	1156750	WORD	n/a	wordpools/wordpool_EN.txt	TOAST	9	20	[0, 0, 0]	n/a	FR1	1	R1137E
2112.508	1.6	1157967	WORD	n/a	wordpools/wordpool_EN.txt	TRASH	10	20	[0, 0, 0]	n/a	FR1	1	R1137E
2115.075	1.6	1159250	WORD	n/a	wordpools/wordpool_EN.txt	PHONE	11	20	[0, 0, 0]	n/a	FR1	1	R1137E
2117.575	1.6	1160500	WORD	n/a	wordpools/wordpool_EN.txt	LAMB	12	20	[0, 0, 0]	n/a	FR1	1	R1137E
2119.193	0.0	1161309	DISTRACT_START	n/a	n/a	n/a	-999	20	[0, 0, 0]	n/a	FR1	1	R1137E
2119.193	0.016	1161309	START	n/a	n/a	n/a	-999	20	[-999, -999, -999]	n/a	FR1	1	R1137E
2119.209	4.067	1161317	PROB	4.041	n/a	n/a	-999	20	[4, 9, 3]	16.0	FR1	1	R1137E
2123.276	5.801	1163350	PROB	5.766	n/a	n/a	-999	20	[4, 5, 5]	14.0	FR1	1	R1137E
2129.077	6.185	1166251	PROB	6.152	n/a	n/a	-999	20	[8, 5, 2]	15.0	FR1	1	R1137E
2135.262	3.334	1169343	PROB	3.303	n/a	n/a	-999	20	[2, 4, 7]	13.0	FR1	1	R1137E
2138.596	3.569	1171010	PROB	3.569	n/a	n/a	-999	20	[5, 4, 7]	16.0	FR1	1	R1137E
2142.165	0.015	1172794	STOP	n/a	n/a	n/a	-999	20	[-999, -999, -999]	n/a	FR1	1	R1137E
2142.18	1.034	1172802	DISTRACT_END	n/a	n/a	n/a	-999	20	[0, 0, 0]	n/a	FR1	1	R1137E
2143.214	11.129	1173319	REC_START	n/a	n/a	n/a	-999	20	[0, 0, 0]	n/a	FR1	1	R1137E
2154.343	3.124	1178883	REC_WORD	11.129	n/a	ICE	-999	20	[0, 0, 0]	n/a	FR1	1	R1137E
2157.467	2.302	1180445	REC_WORD	14.253	n/a	BRICK	-999	20	[0, 0, 0]	n/a	FR1	1	R1137E
2159.769	11.622	1181596	REC_WORD	16.555	n/a	SOUP	-999	20	[0, 0, 0]	n/a	FR1	1	R1137E
2171.391	1.831	1187406	REC_WORD	28.177	n/a	SLEEVE	-999	20	[0, 0, 0]	n/a	FR1	1	R1137E
2173.222	26.768	1188322	REC_END	n/a	n/a	n/a	-999	20	[0, 0, 0]	n/a	FR1	1	R1137E
2199.99	10.0	1201705	COUNTDOWN_START	n/a	n/a	n/a	-999	21	[0, 0, 0]	n/a	FR1	1	R1137E
2199.99	10.428	1201705	TRIAL	n/a	n/a	n/a	-999	21	[0, 0, 0]	n/a	FR1	1	R1137E
2210.418	0.007	1206919	COUNTDOWN_END	n/a	n/a	n/a	-999	21	[0, 0, 0]	n/a	FR1	1	R1137E
2210.425	1.6	1206922	ORIENT	n/a	n/a	n/a	-999	21	[0, 0, 0]	n/a	FR1	1	R1137E
2212.826	1.6	1208123	WORD	n/a	wordpools/wordpool_EN.txt	SPRING	1	21	[0, 0, 0]	n/a	FR1	1	R1137E
2215.343	1.6	1209381	WORD	n/a	wordpools/wordpool_EN.txt	SALT	2	21	[0, 0, 0]	n/a	FR1	1	R1137E
2217.894	1.6	1210657	WORD	n/a	wordpools/wordpool_EN.txt	FOOT	3	21	[0, 0, 0]	n/a	FR1	1	R1137E
2220.36	1.6	1211890	WORD	n/a	wordpools/wordpool_EN.txt	FLEA	4	21	[0, 0, 0]	n/a	FR1	1	R1137E
2222.795	1.6	1213107	WORD	n/a	wordpools/wordpool_EN.txt	SHRIMP	5	21	[0, 0, 0]	n/a	FR1	1	R1137E
2225.194	1.6	1214306	WORD	n/a	wordpools/wordpool_EN.txt	STEAM	6	21	[0, 0, 0]	n/a	FR1	1	R1137E
2227.661	1.6	1215540	WORD	n/a	wordpools/wordpool_EN.txt	ELF	7	21	[0, 0, 0]	n/a	FR1	1	R1137E
2230.062	1.6	1216740	WORD	n/a	wordpools/wordpool_EN.txt	MOLE	8	21	[0, 0, 0]	n/a	FR1	1	R1137E
2232.462	1.6	1217940	WORD	n/a	wordpools/wordpool_EN.txt	THUMB	9	21	[0, 0, 0]	n/a	FR1	1	R1137E
2235.079	1.6	1219249	WORD	n/a	wordpools/wordpool_EN.txt	POND	10	21	[0, 0, 0]	n/a	FR1	1	R1137E
2237.63	1.6	1220524	WORD	n/a	wordpools/wordpool_EN.txt	DITCH	11	21	[0, 0, 0]	n/a	FR1	1	R1137E
2240.147	1.6	1221783	WORD	n/a	wordpools/wordpool_EN.txt	RAT	12	21	[0, 0, 0]	n/a	FR1	1	R1137E
2241.765	0.001	1222592	DISTRACT_START	n/a	n/a	n/a	-999	21	[0, 0, 0]	n/a	FR1	1	R1137E
2241.766	0.016	1222592	START	n/a	n/a	n/a	-999	21	[-999, -999, -999]	n/a	FR1	1	R1137E
2241.782	6.35	1222600	PROB	6.321	n/a	n/a	-999	21	[4, 8, 4]	16.0	FR1	1	R1137E
2248.132	2.417	1225775	PROB	2.395	n/a	n/a	-999	21	[2, 4, 8]	14.0	FR1	1	R1137E
2250.549	6.634	1226983	PROB	6.611	n/a	n/a	-999	21	[6, 2, 7]	15.0	FR1	1	R1137E
2257.183	2.552	1230300	PROB	2.53	n/a	n/a	-999	21	[3, 8, 1]	12.0	FR1	1	R1137E
2259.735	2.649	1231576	PROB	2.649	n/a	n/a	-999	21	[2, 8, 3]	13.0	FR1	1	R1137E
2262.384	0.017	1232900	STOP	n/a	n/a	n/a	-999	21	[-999, -999, -999]	n/a	FR1	1	R1137E
2262.401	1.051	1232909	DISTRACT_END	n/a	n/a	n/a	-999	21	[0, 0, 0]	n/a	FR1	1	R1137E
2263.452	0.881	1233434	REC_START	n/a	n/a	n/a	-999	21	[0, 0, 0]	n/a	FR1	1	R1137E
2264.333	1.192	1233875	REC_WORD	0.881	n/a	MOLE	-999	21	[0, 0, 0]	n/a	FR1	1	R1137E
2265.525	6.114	1234471	REC_WORD	2.073	n/a	RAT	-999	21	[0, 0, 0]	n/a	FR1	1	R1137E
2271.639	21.821	1237528	REC_WORD	8.187	n/a	SLING	-999	21	[0, 0, 0]	n/a	FR1	1	R1137E
2293.46	2.13	1248438	REC_END	n/a	n/a	n/a	-999	21	[0, 0, 0]	n/a	FR1	1	R1137E
2295.59	0.0	1249503	TRIAL	n/a	n/a	n/a	-999	22	[0, 0, 0]	n/a	FR1	1	R1137E
2295.59	10.0	1249503	COUNTDOWN_START	n/a	n/a	n/a	-999	22	[0, 0, 0]	n/a	FR1	1	R1137E
2306.018	0.007	1254716	COUNTDOWN_END	n/a	n/a	n/a	-999	22	[0, 0, 0]	n/a	FR1	1	R1137E
2306.025	1.6	1254720	ORIENT	n/a	n/a	n/a	-999	22	[0, 0, 0]	n/a	FR1	1	R1137E
2308.559	1.6	1255987	WORD	n/a	wordpools/wordpool_EN.txt	SHIRT	1	22	[0, 0, 0]	n/a	FR1	1	R1137E
2311.176	1.6	1257295	WORD	n/a	wordpools/wordpool_EN.txt	ROPE	2	22	[0, 0, 0]	n/a	FR1	1	R1137E
2313.577	1.6	1258496	WORD	n/a	wordpools/wordpool_EN.txt	EEL	3	22	[0, 0, 0]	n/a	FR1	1	R1137E
2316.127	1.6	1259770	WORD	n/a	wordpools/wordpool_EN.txt	BAND	4	22	[0, 0, 0]	n/a	FR1	1	R1137E
2318.711	1.6	1261062	WORD	n/a	wordpools/wordpool_EN.txt	GOAT	5	22	[0, 0, 0]	n/a	FR1	1	R1137E
2321.178	1.6	1262296	WORD	n/a	wordpools/wordpool_EN.txt	YARD	6	22	[0, 0, 0]	n/a	FR1	1	R1137E
2323.612	1.6	1263513	WORD	n/a	wordpools/wordpool_EN.txt	FOAM	7	22	[0, 0, 0]	n/a	FR1	1	R1137E
2326.146	1.6	1264780	WORD	n/a	wordpools/wordpool_EN.txt	GATE	8	22	[0, 0, 0]	n/a	FR1	1	R1137E
2328.563	1.6	1265988	WORD	n/a	wordpools/wordpool_EN.txt	POOL	9	22	[0, 0, 0]	n/a	FR1	1	R1137E
2331.146	1.6	1267280	WORD	n/a	wordpools/wordpool_EN.txt	LAKE	10	22	[0, 0, 0]	n/a	FR1	1	R1137E
2333.563	1.6	1268488	WORD	n/a	wordpools/wordpool_EN.txt	GUARD	11	22	[0, 0, 0]	n/a	FR1	1	R1137E
2336.097	1.6	1269755	WORD	n/a	wordpools/wordpool_EN.txt	RUG	12	22	[0, 0, 0]	n/a	FR1	1	R1137E
2337.714	0.001	1270563	DISTRACT_START	n/a	n/a	n/a	-999	22	[0, 0, 0]	n/a	FR1	1	R1137E
2337.715	0.017	1270564	START	n/a	n/a	n/a	-999	22	[-999, -999, -999]	n/a	FR1	1	R1137E
2337.732	2.566	1270572	PROB	2.544	n/a	n/a	-999	22	[5, 5, 7]	17.0	FR1	1	R1137E
2340.298	4.602	1271855	PROB	4.571	n/a	n/a	-999	22	[3, 8, 9]	20.0	FR1	1	R1137E
2344.9	4.7	1274156	PROB	4.67	n/a	n/a	-999	22	[5, 7, 2]	14.0	FR1	1	R1137E
2349.6	3.234	1276506	PROB	3.211	n/a	n/a	-999	22	[2, 2, 4]	8.0	FR1	1	R1137E
2352.834	3.5	1278123	PROB	3.48	n/a	n/a	-999	22	[2, 9, 3]	14.0	FR1	1	R1137E
2356.334	2.619	1279873	PROB	2.619	n/a	n/a	-999	22	[8, 3, 8]	19.0	FR1	1	R1137E
2358.953	0.015	1281182	STOP	n/a	n/a	n/a	-999	22	[-999, -999, -999]	n/a	FR1	1	R1137E
2358.968	1.201	1281190	DISTRACT_END	n/a	n/a	n/a	-999	22	[0, 0, 0]	n/a	FR1	1	R1137E
2360.169	1.454	1281790	REC_START	n/a	n/a	n/a	-999	22	[0, 0, 0]	n/a	FR1	1	R1137E
2361.623	1.231	1282517	REC_WORD	1.454	n/a	EEL	-999	22	[0, 0, 0]	n/a	FR1	1	R1137E
2362.854	1.334	1283133	REC_WORD	2.685	n/a	BAND	-999	22	[0, 0, 0]	n/a	FR1	1	R1137E
2364.188	2.652	1283800	REC_WORD	4.019	n/a	ROCK	-999	22	[0, 0, 0]	n/a	FR1	1	R1137E
2366.84	7.659	1285126	REC_WORD	6.671	n/a	STRING	-999	22	[0, 0, 0]	n/a	FR1	1	R1137E
2374.499	4.167	1288955	REC_WORD	14.33	n/a	HOUSE	-999	22	[0, 0, 0]	n/a	FR1	1	R1137E
2378.666	9.301	1291038	REC_WORD	18.497	n/a	FLUTE	-999	22	[0, 0, 0]	n/a	FR1	1	R1137E
2387.967	2.21	1295688	REC_WORD	27.798	n/a	ROCK	-999	22	[0, 0, 0]	n/a	FR1	1	R1137E
2390.177	11.982	1296793	REC_END	n/a	n/a	n/a	-999	22	[0, 0, 0]	n/a	FR1	1	R1137E
2402.159	10.0	1302784	COUNTDOWN_START	n/a	n/a	n/a	-999	23	[0, 0, 0]	n/a	FR1	1	R1137E
2402.159	10.428	1302784	TRIAL	n/a	n/a	n/a	-999	23	[0, 0, 0]	n/a	FR1	1	R1137E
2412.587	0.007	1307998	COUNTDOWN_END	n/a	n/a	n/a	-999	23	[0, 0, 0]	n/a	FR1	1	R1137E
2412.594	1.6	1308001	ORIENT	n/a	n/a	n/a	-999	23	[0, 0, 0]	n/a	FR1	1	R1137E
2415.111	1.6	1309260	WORD	n/a	wordpools/wordpool_EN.txt	HAND	1	23	[0, 0, 0]	n/a	FR1	1	R1137E
2417.495	1.6	1310452	WORD	n/a	wordpools/wordpool_EN.txt	LIP	2	23	[0, 0, 0]	n/a	FR1	1	R1137E
2420.062	1.6	1311735	WORD	n/a	wordpools/wordpool_EN.txt	GLOVE	3	23	[0, 0, 0]	n/a	FR1	1	R1137E
2422.629	1.6	1313019	WORD	n/a	wordpools/wordpool_EN.txt	FLAME	4	23	[0, 0, 0]	n/a	FR1	1	R1137E
2425.03	1.6	1314219	WORD	n/a	wordpools/wordpool_EN.txt	BOARD	5	23	[0, 0, 0]	n/a	FR1	1	R1137E
2427.613	1.6	1315510	WORD	n/a	wordpools/wordpool_EN.txt	SWORD	6	23	[0, 0, 0]	n/a	FR1	1	R1137E
2430.214	1.6	1316811	WORD	n/a	wordpools/wordpool_EN.txt	TIE	7	23	[0, 0, 0]	n/a	FR1	1	R1137E
2432.647	1.6	1318027	WORD	n/a	wordpools/wordpool_EN.txt	HOOK	8	23	[0, 0, 0]	n/a	FR1	1	R1137E
2435.198	1.6	1319303	WORD	n/a	wordpools/wordpool_EN.txt	PIN	9	23	[0, 0, 0]	n/a	FR1	1	R1137E
2437.715	1.6	1320561	WORD	n/a	wordpools/wordpool_EN.txt	MOUTH	10	23	[0, 0, 0]	n/a	FR1	1	R1137E
2440.149	1.6	1321778	WORD	n/a	wordpools/wordpool_EN.txt	BADGE	11	23	[0, 0, 0]	n/a	FR1	1	R1137E
2442.633	1.6	1323020	WORD	n/a	wordpools/wordpool_EN.txt	ARK	12	23	[0, 0, 0]	n/a	FR1	1	R1137E
2444.25	0.0	1323828	DISTRACT_START	n/a	n/a	n/a	-999	23	[0, 0, 0]	n/a	FR1	1	R1137E
2444.25	0.016	1323828	START	n/a	n/a	n/a	-999	23	[-999, -999, -999]	n/a	FR1	1	R1137E
2444.266	9.402	1323836	PROB	9.367	n/a	n/a	-999	23	[5, 7, 8]	20.0	FR1	1	R1137E
2453.668	4.068	1328537	PROB	4.037	n/a	n/a	-999	23	[8, 2, 9]	19.0	FR1	1	R1137E
2457.736	3.017	1330571	PROB	2.995	n/a	n/a	-999	23	[7, 7, 5]	19.0	FR1	1	R1137E
2460.753	3.488	1332079	PROB	3.488	n/a	n/a	-999	23	[7, 7, 6]	20.0	FR1	1	R1137E
2464.241	0.012	1333823	STOP	n/a	n/a	n/a	-999	23	[-999, -999, -999]	n/a	FR1	1	R1137E
2464.253	1.151	1333829	DISTRACT_END	n/a	n/a	n/a	-999	23	[0, 0, 0]	n/a	FR1	1	R1137E
2465.404	1.252	1334405	REC_START	n/a	n/a	n/a	-999	23	[0, 0, 0]	n/a	FR1	1	R1137E
2466.656	1.546	1335031	REC_WORD	1.252	n/a	ARK	-999	23	[0, 0, 0]	n/a	FR1	1	R1137E
2468.202	2.967	1335804	REC_WORD	2.798	n/a	TIE	-999	23	[0, 0, 0]	n/a	FR1	1	R1137E
2471.169	6.95	1337287	REC_WORD	5.765	n/a	HOOK	-999	23	[0, 0, 0]	n/a	FR1	1	R1137E
2478.119	17.293	1340762	REC_WORD	12.715	n/a	PIE	-999	23	[0, 0, 0]	n/a	FR1	1	R1137E
2495.412	2.63	1349408	REC_END	n/a	n/a	n/a	-999	23	[0, 0, 0]	n/a	FR1	1	R1137E
2498.042	10.0	1350723	COUNTDOWN_START	n/a	n/a	n/a	-999	24	[0, 0, 0]	n/a	FR1	1	R1137E
2498.043	10.427	1350723	TRIAL	n/a	n/a	n/a	-999	24	[0, 0, 0]	n/a	FR1	1	R1137E
2508.47	0.008	1355937	COUNTDOWN_END	n/a	n/a	n/a	-999	24	[0, 0, 0]	n/a	FR1	1	R1137E
2508.478	1.6	1355941	ORIENT	n/a	n/a	n/a	-999	24	[0, 0, 0]	n/a	FR1	1	R1137E
2510.862	1.6	1357133	WORD	n/a	wordpools/wordpool_EN.txt	HEN	1	24	[0, 0, 0]	n/a	FR1	1	R1137E
2513.312	1.6	1358358	WORD	n/a	wordpools/wordpool_EN.txt	SINK	2	24	[0, 0, 0]	n/a	FR1	1	R1137E
2515.929	1.6	1359666	WORD	n/a	wordpools/wordpool_EN.txt	BOOT	3	24	[0, 0, 0]	n/a	FR1	1	R1137E
2518.362	1.6	1360882	WORD	n/a	wordpools/wordpool_EN.txt	CART	4	24	[0, 0, 0]	n/a	FR1	1	R1137E
2520.847	1.6	1362125	WORD	n/a	wordpools/wordpool_EN.txt	POLE	5	24	[0, 0, 0]	n/a	FR1	1	R1137E
2523.313	1.6	1363358	WORD	n/a	wordpools/wordpool_EN.txt	PIG	6	24	[0, 0, 0]	n/a	FR1	1	R1137E
2525.832	1.6	1364617	WORD	n/a	wordpools/wordpool_EN.txt	NOSE	7	24	[0, 0, 0]	n/a	FR1	1	R1137E
2528.414	1.6	1365908	WORD	n/a	wordpools/wordpool_EN.txt	MILK	8	24	[0, 0, 0]	n/a	FR1	1	R1137E
2530.866	1.6	1367134	WORD	n/a	wordpools/wordpool_EN.txt	BEAN	9	24	[0, 0, 0]	n/a	FR1	1	R1137E
2533.299	1.6	1368350	WORD	n/a	wordpools/wordpool_EN.txt	HAT	10	24	[0, 0, 0]	n/a	FR1	1	R1137E
2535.716	1.6	1369559	WORD	n/a	wordpools/wordpool_EN.txt	PIE	11	24	[0, 0, 0]	n/a	FR1	1	R1137E
2538.116	1.6	1370759	WORD	n/a	wordpools/wordpool_EN.txt	SLUSH	12	24	[0, 0, 0]	n/a	FR1	1	R1137E
2539.734	0.001	1371568	DISTRACT_START	n/a	n/a	n/a	-999	24	[0, 0, 0]	n/a	FR1	1	R1137E
2539.735	0.016	1371568	START	n/a	n/a	n/a	-999	24	[-999, -999, -999]	n/a	FR1	1	R1137E
2539.751	6.117	1371576	PROB	6.094	n/a	n/a	-999	24	[6, 7, 5]	18.0	FR1	1	R1137E
2545.868	1.884	1374635	PROB	1.856	n/a	n/a	-999	24	[8, 2, 2]	12.0	FR1	1	R1137E
2547.752	10.384	1375577	PROB	10.353	n/a	n/a	-999	24	[9, 9, 7]	25.0	FR1	1	R1137E
2558.136	3.065	1380768	PROB	3.065	n/a	n/a	-999	24	[4, 2, 7]	13.0	FR1	1	R1137E
2561.201	0.019	1382301	STOP	n/a	n/a	n/a	-999	24	[-999, -999, -999]	n/a	FR1	1	R1137E
2561.22	1.068	1382310	DISTRACT_END	n/a	n/a	n/a	-999	24	[0, 0, 0]	n/a	FR1	1	R1137E
2562.288	1.275	1382844	REC_START	n/a	n/a	n/a	-999	24	[0, 0, 0]	n/a	FR1	1	R1137E
2563.563	0.835	1383482	REC_WORD	1.275	n/a	PIE	-999	24	[0, 0, 0]	n/a	FR1	1	R1137E
2564.398	27.898	1383899	REC_WORD	2.11	n/a	SLUSH	-999	24	[0, 0, 0]	n/a	FR1	1	R1137E
2592.296	11.616	1397847	REC_END	n/a	n/a	n/a	-999	24	[0, 0, 0]	n/a	FR1	1	R1137E
2603.912	0.0	1403655	TRIAL	n/a	n/a	n/a	-999	25	[0, 0, 0]	n/a	FR1	1	R1137E
2603.912	10.0	1403655	COUNTDOWN_START	n/a	n/a	n/a	-999	25	[0, 0, 0]	n/a	FR1	1	R1137E
2614.34	0.006	1408869	COUNTDOWN_END	n/a	n/a	n/a	-999	25	[0, 0, 0]	n/a	FR1	1	R1137E
2614.346	1.6	1408872	ORIENT	n/a	n/a	n/a	-999	25	[0, 0, 0]	n/a	FR1	1	R1137E
2616.93	1.6	1410164	WORD	n/a	wordpools/wordpool_EN.txt	BED	1	25	[0, 0, 0]	n/a	FR1	1	R1137E
2619.547	1.6	1411472	WORD	n/a	wordpools/wordpool_EN.txt	AXE	2	25	[0, 0, 0]	n/a	FR1	1	R1137E
2622.031	1.6	1412714	WORD	n/a	wordpools/wordpool_EN.txt	PANTS	3	25	[0, 0, 0]	n/a	FR1	1	R1137E
2624.648	1.6	1414022	WORD	n/a	wordpools/wordpool_EN.txt	CLOCK	4	25	[0, 0, 0]	n/a	FR1	1	R1137E
2627.248	1.6	1415322	WORD	n/a	wordpools/wordpool_EN.txt	THREAD	5	25	[0, 0, 0]	n/a	FR1	1	R1137E
2629.666	1.6	1416531	WORD	n/a	wordpools/wordpool_EN.txt	FLAG	6	25	[0, 0, 0]	n/a	FR1	1	R1137E
2632.116	1.6	1417756	WORD	n/a	wordpools/wordpool_EN.txt	SUIT	7	25	[0, 0, 0]	n/a	FR1	1	R1137E
2634.583	1.6	1418990	WORD	n/a	wordpools/wordpool_EN.txt	CLIFF	8	25	[0, 0, 0]	n/a	FR1	1	R1137E
2637.183	1.6	1420290	WORD	n/a	wordpools/wordpool_EN.txt	CLOTH	9	25	[0, 0, 0]	n/a	FR1	1	R1137E
2639.567	1.6	1421482	WORD	n/a	wordpools/wordpool_EN.txt	BOAT	10	25	[0, 0, 0]	n/a	FR1	1	R1137E
2641.968	1.6	1422682	WORD	n/a	wordpools/wordpool_EN.txt	RIB	11	25	[0, 0, 0]	n/a	FR1	1	R1137E
2644.385	1.6	1423890	WORD	n/a	wordpools/wordpool_EN.txt	SOAP	12	25	[0, 0, 0]	n/a	FR1	1	R1137E
2646.002	0.0	1424699	DISTRACT_START	n/a	n/a	n/a	-999	25	[0, 0, 0]	n/a	FR1	1	R1137E
2646.002	0.016	1424699	START	n/a	n/a	n/a	-999	25	[-999, -999, -999]	n/a	FR1	1	R1137E
2646.018	3.101	1424707	PROB	3.076	n/a	n/a	-999	25	[3, 4, 6]	13.0	FR1	1	R1137E
2649.119	3.184	1426257	PROB	3.151	n/a	n/a	-999	25	[8, 4, 6]	18.0	FR1	1	R1137E
2652.303	3.601	1427849	PROB	3.568	n/a	n/a	-999	25	[9, 7, 4]	20.0	FR1	1	R1137E
2655.904	2.483	1429650	PROB	2.454	n/a	n/a	-999	25	[7, 3, 7]	17.0	FR1	1	R1137E
2658.387	3.234	1430891	PROB	3.203	n/a	n/a	-999	25	[5, 6, 6]	17.0	FR1	1	R1137E
2661.621	3.767	1432508	PROB	3.737	n/a	n/a	-999	25	[7, 9, 4]	20.0	FR1	1	R1137E
2665.388	3.306	1434391	PROB	3.306	n/a	n/a	-999	25	[2, 9, 4]	15.0	FR1	1	R1137E
2668.694	0.012	1436044	STOP	n/a	n/a	n/a	-999	25	[-999, -999, -999]	n/a	FR1	1	R1137E
2668.706	1.134	1436050	DISTRACT_END	n/a	n/a	n/a	-999	25	[0, 0, 0]	n/a	FR1	1	R1137E
2669.84	1.068	1436617	REC_START	n/a	n/a	n/a	-999	25	[0, 0, 0]	n/a	FR1	1	R1137E
2670.908	1.122	1437151	REC_WORD	1.068	n/a	AXE	-999	25	[0, 0, 0]	n/a	FR1	1	R1137E
2672.03	8.461	1437712	REC_WORD	2.19	n/a	CLOTH	-999	25	[0, 0, 0]	n/a	FR1	1	R1137E
2680.491	5.469	1441942	REC_WORD	10.651	n/a	BED	-999	25	[0, 0, 0]	n/a	FR1	1	R1137E
2685.96	6.899	1444677	REC_WORD	16.12	n/a	CLIFF	-999	25	[0, 0, 0]	n/a	FR1	1	R1137E
2692.859	6.995	1448126	REC_WORD	23.019	n/a	ROPE	-999	25	[0, 0, 0]	n/a	FR1	1	R1137E
2699.854	28.446	1451623	REC_END	n/a	n/a	n/a	-999	25	[0, 0, 0]	n/a	FR1	1	R1137E
2728.3	0.0	1465846	SESS_END	n/a	n/a	n/a	-999	25	[0, 0, 0]	n/a	FR1	1	R1137E
