onset	duration	sample	trial_type	response_time	stim_file	item_name	serialpos	list	test	answer	experiment	session	subject
0.0	19.109	113324	SESS_START	n/a	n/a	n/a	-999	-999	[0, 0, 0]	n/a	FR1	0	R1098D
19.109	10.0	143897	COUNTDOWN_START	n/a	n/a	n/a	-999	-999	[0, 0, 0]	n/a	FR1	0	R1098D
29.537	3.691	160581	COUNTDOWN_END	n/a	n/a	n/a	-999	-999	[0, 0, 0]	n/a	FR1	0	R1098D
33.228	1.6	166486	PRACTICE_WORD	n/a	n/a	COTTON	1	-1	[0, 0, 0]	n/a	FR1	0	R1098D
35.629	1.6	170327	PRACTICE_WORD	n/a	n/a	RHINO	2	-1	[0, 0, 0]	n/a	FR1	0	R1098D
38.213	1.6	174461	PRACTICE_WORD	n/a	n/a	IRON	3	-1	[0, 0, 0]	n/a	FR1	0	R1098D
40.613	1.6	178301	PRACTICE_WORD	n/a	n/a	WATCH	4	-1	[0, 0, 0]	n/a	FR1	0	R1098D
42.997	1.6	182115	PRACTICE_WORD	n/a	n/a	CAMEL	5	-1	[0, 0, 0]	n/a	FR1	0	R1098D
45.514	1.6	186142	PRACTICE_WORD	n/a	n/a	RING	6	-1	[0, 0, 0]	n/a	FR1	0	R1098D
47.899	1.6	189958	PRACTICE_WORD	n/a	n/a	TONGUE	7	-1	[0, 0, 0]	n/a	FR1	0	R1098D
50.332	1.6	193851	PRACTICE_WORD	n/a	n/a	BEAM	8	-1	[0, 0, 0]	n/a	FR1	0	R1098D
52.933	1.6	198012	PRACTICE_WORD	n/a	n/a	CHEST	9	-1	[0, 0, 0]	n/a	FR1	0	R1098D
55.349	1.6	201877	PRACTICE_WORD	n/a	n/a	ATTIC	10	-1	[0, 0, 0]	n/a	FR1	0	R1098D
57.883	1.6	205931	PRACTICE_WORD	n/a	n/a	WAGON	11	-1	[0, 0, 0]	n/a	FR1	0	R1098D
60.3	1.6	209798	PRACTICE_WORD	n/a	n/a	FLOOD	12	-1	[0, 0, 0]	n/a	FR1	0	R1098D
61.901	0.001	212360	PRACTICE_DISTRACT_START	n/a	n/a	n/a	-999	-1	[0, 0, 0]	n/a	FR1	0	R1098D
61.902	0.016	212361	START	n/a	n/a	n/a	-999	-1	[-999, -999, -999]	n/a	FR1	0	R1098D
61.918	12.885	212387	PROB	12.862	n/a	n/a	-999	-1	[5, 2, 5]	12.0	FR1	0	R1098D
74.803	6.234	233002	PROB	6.21	n/a	n/a	-999	-1	[1, 2, 1]	4.0	FR1	0	R1098D
81.037	3.8	242975	PROB	3.8	n/a	n/a	-999	-1	[5, 6, 4]	15.0	FR1	0	R1098D
84.837	0.018	249055	STOP	n/a	n/a	n/a	-999	-1	[-999, -999, -999]	n/a	FR1	0	R1098D
84.855	0.569	249084	PRACTICE_DISTRACT_END	n/a	n/a	n/a	-999	-1	[0, 0, 0]	n/a	FR1	0	R1098D
85.424	30.515	249994	PRACTICE_REC_START	n/a	n/a	n/a	-999	-1	[0, 0, 0]	n/a	FR1	0	R1098D
115.939	23.776	298815	PRACTICE_REC_END	n/a	n/a	n/a	-999	-1	[0, 0, 0]	n/a	FR1	0	R1098D
139.715	0.0	336854	TRIAL	n/a	n/a	n/a	-999	1	[0, 0, 0]	n/a	FR1	0	R1098D
139.715	10.0	336854	COUNTDOWN_START	n/a	n/a	n/a	-999	1	[0, 0, 0]	n/a	FR1	0	R1098D
150.143	0.007	353538	COUNTDOWN_END	n/a	n/a	n/a	-999	1	[0, 0, 0]	n/a	FR1	0	R1098D
150.15	1.6	353549	ORIENT	n/a	n/a	n/a	-999	1	[0, 0, 0]	n/a	FR1	0	R1098D
152.75	1.6	357709	WORD	n/a	wordpools/wordpool_EN.txt	PASTE	1	1	[0, 0, 0]	n/a	FR1	0	R1098D
155.201	1.6	361630	WORD	n/a	wordpools/wordpool_EN.txt	SUIT	2	1	[0, 0, 0]	n/a	FR1	0	R1098D
157.601	1.6	365470	WORD	n/a	wordpools/wordpool_EN.txt	THUMB	3	1	[0, 0, 0]	n/a	FR1	0	R1098D
160.068	1.6	369417	WORD	n/a	wordpools/wordpool_EN.txt	CHIEF	4	1	[0, 0, 0]	n/a	FR1	0	R1098D
162.502	1.6	373311	WORD	n/a	wordpools/wordpool_EN.txt	JUDGE	5	1	[0, 0, 0]	n/a	FR1	0	R1098D
165.119	1.6	377498	WORD	n/a	wordpools/wordpool_EN.txt	BANK	6	1	[0, 0, 0]	n/a	FR1	0	R1098D
167.553	1.6	381392	WORD	n/a	wordpools/wordpool_EN.txt	CLIFF	7	1	[0, 0, 0]	n/a	FR1	0	R1098D
170.037	1.6	385366	WORD	n/a	wordpools/wordpool_EN.txt	SPEAR	8	1	[0, 0, 0]	n/a	FR1	0	R1098D
172.621	1.6	389500	WORD	n/a	wordpools/wordpool_EN.txt	COIN	9	1	[0, 0, 0]	n/a	FR1	0	R1098D
175.021	1.6	393340	WORD	n/a	wordpools/wordpool_EN.txt	BEAN	10	1	[0, 0, 0]	n/a	FR1	0	R1098D
177.471	1.6	397260	WORD	n/a	wordpools/wordpool_EN.txt	RICE	11	1	[0, 0, 0]	n/a	FR1	0	R1098D
179.94	1.6	401210	WORD	n/a	wordpools/wordpool_EN.txt	MOOSE	12	1	[0, 0, 0]	n/a	FR1	0	R1098D
181.556	0.0	403795	DISTRACT_START	n/a	n/a	n/a	-999	1	[0, 0, 0]	n/a	FR1	0	R1098D
181.556	0.016	403795	START	n/a	n/a	n/a	-999	1	[-999, -999, -999]	n/a	FR1	0	R1098D
181.572	8.969	403821	PROB	8.936	n/a	n/a	-999	1	[9, 8, 3]	20.0	FR1	0	R1098D
190.541	12.2	418171	PROB	12.2	n/a	n/a	-999	1	[9, 9, 7]	35.0	FR1	0	R1098D
202.741	0.019	437689	STOP	n/a	n/a	n/a	-999	1	[-999, -999, -999]	n/a	FR1	0	R1098D
202.76	1.168	437720	DISTRACT_END	n/a	n/a	n/a	-999	1	[0, 0, 0]	n/a	FR1	0	R1098D
203.928	8.282	439588	REC_START	n/a	n/a	n/a	-999	1	[0, 0, 0]	n/a	FR1	0	R1098D
212.21	1.22	452839	REC_WORD	8.282	n/a	PASTE	-999	1	[0, 0, 0]	n/a	FR1	0	R1098D
213.43	20.507	454791	REC_WORD	9.502	n/a	SUIT	-999	1	[0, 0, 0]	n/a	FR1	0	R1098D
233.937	1.879	487600	REC_END	n/a	n/a	n/a	-999	1	[0, 0, 0]	n/a	FR1	0	R1098D
235.816	0.0	490606	TRIAL	n/a	n/a	n/a	-999	2	[0, 0, 0]	n/a	FR1	0	R1098D
235.816	10.0	490606	COUNTDOWN_START	n/a	n/a	n/a	-999	2	[0, 0, 0]	n/a	FR1	0	R1098D
246.244	0.007	507290	COUNTDOWN_END	n/a	n/a	n/a	-999	2	[0, 0, 0]	n/a	FR1	0	R1098D
246.251	1.6	507301	ORIENT	n/a	n/a	n/a	-999	2	[0, 0, 0]	n/a	FR1	0	R1098D
248.735	1.6	511275	WORD	n/a	wordpools/wordpool_EN.txt	PANTS	1	2	[0, 0, 0]	n/a	FR1	0	R1098D
251.352	1.6	515462	WORD	n/a	wordpools/wordpool_EN.txt	PEN	2	2	[0, 0, 0]	n/a	FR1	0	R1098D
253.769	1.6	519329	WORD	n/a	wordpools/wordpool_EN.txt	SHEEP	3	2	[0, 0, 0]	n/a	FR1	0	R1098D
256.386	1.6	523516	WORD	n/a	wordpools/wordpool_EN.txt	BATH	4	2	[0, 0, 0]	n/a	FR1	0	R1098D
258.77	1.6	527330	WORD	n/a	wordpools/wordpool_EN.txt	BED	5	2	[0, 0, 0]	n/a	FR1	0	R1098D
261.187	1.6	531197	WORD	n/a	wordpools/wordpool_EN.txt	SMILE	6	2	[0, 0, 0]	n/a	FR1	0	R1098D
263.821	1.6	535411	WORD	n/a	wordpools/wordpool_EN.txt	RIB	7	2	[0, 0, 0]	n/a	FR1	0	R1098D
266.321	1.6	539411	WORD	n/a	wordpools/wordpool_EN.txt	FOAM	8	2	[0, 0, 0]	n/a	FR1	0	R1098D
268.889	1.6	543519	WORD	n/a	wordpools/wordpool_EN.txt	PIG	9	2	[0, 0, 0]	n/a	FR1	0	R1098D
271.489	1.6	547679	WORD	n/a	wordpools/wordpool_EN.txt	CROW	10	2	[0, 0, 0]	n/a	FR1	0	R1098D
274.106	1.6	551866	WORD	n/a	wordpools/wordpool_EN.txt	THREAD	11	2	[0, 0, 0]	n/a	FR1	0	R1098D
276.673	1.6	555973	WORD	n/a	wordpools/wordpool_EN.txt	TRAY	12	2	[0, 0, 0]	n/a	FR1	0	R1098D
278.29	0.001	558560	DISTRACT_START	n/a	n/a	n/a	-999	2	[0, 0, 0]	n/a	FR1	0	R1098D
278.291	0.016	558562	START	n/a	n/a	n/a	-999	2	[-999, -999, -999]	n/a	FR1	0	R1098D
278.307	5.751	558587	PROB	5.722	n/a	n/a	-999	2	[7, 6, 1]	14.0	FR1	0	R1098D
284.058	5.317	567788	PROB	5.283	n/a	n/a	-999	2	[9, 9, 9]	27.0	FR1	0	R1098D
289.375	6.868	576295	PROB	6.837	n/a	n/a	-999	2	[4, 2, 4]	10.0	FR1	0	R1098D
296.243	3.809	587283	PROB	3.809	n/a	n/a	-999	2	[5, 4, 3]	12.0	FR1	0	R1098D
300.052	0.009	593377	STOP	n/a	n/a	n/a	-999	2	[-999, -999, -999]	n/a	FR1	0	R1098D
300.061	1.084	593391	DISTRACT_END	n/a	n/a	n/a	-999	2	[0, 0, 0]	n/a	FR1	0	R1098D
301.145	3.809	595126	REC_START	n/a	n/a	n/a	-999	2	[0, 0, 0]	n/a	FR1	0	R1098D
304.954	6.248	601220	REC_WORD	3.809	n/a	BATH	-999	2	[0, 0, 0]	n/a	FR1	0	R1098D
311.202	19.953	611216	REC_WORD_VV	10.057	n/a	<>	-999	2	[0, 0, 0]	n/a	FR1	0	R1098D
331.155	1.928	643139	REC_END	n/a	n/a	n/a	-999	2	[0, 0, 0]	n/a	FR1	0	R1098D
333.083	10.0	646223	COUNTDOWN_START	n/a	n/a	n/a	-999	3	[0, 0, 0]	n/a	FR1	0	R1098D
333.084	10.427	646225	TRIAL	n/a	n/a	n/a	-999	3	[0, 0, 0]	n/a	FR1	0	R1098D
343.511	0.008	662907	COUNTDOWN_END	n/a	n/a	n/a	-999	3	[0, 0, 0]	n/a	FR1	0	R1098D
343.519	1.6	662920	ORIENT	n/a	n/a	n/a	-999	3	[0, 0, 0]	n/a	FR1	0	R1098D
346.069	1.6	666999	WORD	n/a	wordpools/wordpool_EN.txt	CAPE	1	3	[0, 0, 0]	n/a	FR1	0	R1098D
348.619	1.6	671079	WORD	n/a	wordpools/wordpool_EN.txt	ROPE	2	3	[0, 0, 0]	n/a	FR1	0	R1098D
351.187	1.6	675188	WORD	n/a	wordpools/wordpool_EN.txt	DOCK	3	3	[0, 0, 0]	n/a	FR1	0	R1098D
353.77	1.6	679320	WORD	n/a	wordpools/wordpool_EN.txt	FORT	4	3	[0, 0, 0]	n/a	FR1	0	R1098D
356.354	1.6	683454	WORD	n/a	wordpools/wordpool_EN.txt	STEAM	5	3	[0, 0, 0]	n/a	FR1	0	R1098D
358.906	1.6	687537	WORD	n/a	wordpools/wordpool_EN.txt	SAIL	6	3	[0, 0, 0]	n/a	FR1	0	R1098D
361.422	1.6	691563	WORD	n/a	wordpools/wordpool_EN.txt	SLIME	7	3	[0, 0, 0]	n/a	FR1	0	R1098D
363.806	1.6	695377	WORD	n/a	wordpools/wordpool_EN.txt	HOOK	8	3	[0, 0, 0]	n/a	FR1	0	R1098D
366.356	1.6	699457	WORD	n/a	wordpools/wordpool_EN.txt	PRINCE	9	3	[0, 0, 0]	n/a	FR1	0	R1098D
368.723	1.6	703243	WORD	n/a	wordpools/wordpool_EN.txt	FLAG	10	3	[0, 0, 0]	n/a	FR1	0	R1098D
371.157	1.6	707138	WORD	n/a	wordpools/wordpool_EN.txt	SEA	11	3	[0, 0, 0]	n/a	FR1	0	R1098D
373.724	1.6	711245	WORD	n/a	wordpools/wordpool_EN.txt	HORN	12	3	[0, 0, 0]	n/a	FR1	0	R1098D
375.341	0.001	713832	DISTRACT_START	n/a	n/a	n/a	-999	3	[0, 0, 0]	n/a	FR1	0	R1098D
375.342	0.016	713833	START	n/a	n/a	n/a	-999	3	[-999, -999, -999]	n/a	FR1	0	R1098D
375.358	6.468	713859	PROB	6.446	n/a	n/a	-999	3	[4, 3, 6]	13.0	FR1	0	R1098D
381.826	3.9	724207	PROB	3.874	n/a	n/a	-999	3	[3, 7, 4]	14.0	FR1	0	R1098D
385.726	3.451	730447	PROB	3.431	n/a	n/a	-999	3	[3, 4, 7]	14.0	FR1	0	R1098D
389.177	3.967	735968	PROB	3.932	n/a	n/a	-999	3	[3, 2, 3]	8.0	FR1	0	R1098D
393.144	3.621	742315	PROB	3.621	n/a	n/a	-999	3	[4, 7, 7]	18.0	FR1	0	R1098D
396.765	0.013	748108	STOP	n/a	n/a	n/a	-999	3	[-999, -999, -999]	n/a	FR1	0	R1098D
396.778	1.184	748129	DISTRACT_END	n/a	n/a	n/a	-999	3	[0, 0, 0]	n/a	FR1	0	R1098D
397.962	3.658	750023	REC_START	n/a	n/a	n/a	-999	3	[0, 0, 0]	n/a	FR1	0	R1098D
401.62	1.879	755875	REC_WORD	3.658	n/a	FORT	-999	3	[0, 0, 0]	n/a	FR1	0	R1098D
403.499	2.838	758882	REC_WORD	5.537	n/a	PRINCE	-999	3	[0, 0, 0]	n/a	FR1	0	R1098D
406.337	2.756	763422	REC_WORD	8.375	n/a	CAPE	-999	3	[0, 0, 0]	n/a	FR1	0	R1098D
409.093	18.883	767831	REC_WORD	11.131	n/a	SAIL	-999	3	[0, 0, 0]	n/a	FR1	0	R1098D
427.976	1.959	798042	REC_END	n/a	n/a	n/a	-999	3	[0, 0, 0]	n/a	FR1	0	R1098D
429.935	0.0	801176	TRIAL	n/a	n/a	n/a	-999	4	[0, 0, 0]	n/a	FR1	0	R1098D
429.935	10.0	801176	COUNTDOWN_START	n/a	n/a	n/a	-999	4	[0, 0, 0]	n/a	FR1	0	R1098D
440.363	0.007	817860	COUNTDOWN_END	n/a	n/a	n/a	-999	4	[0, 0, 0]	n/a	FR1	0	R1098D
440.37	1.6	817871	ORIENT	n/a	n/a	n/a	-999	4	[0, 0, 0]	n/a	FR1	0	R1098D
442.987	1.6	822058	WORD	n/a	wordpools/wordpool_EN.txt	COW	1	4	[0, 0, 0]	n/a	FR1	0	R1098D
445.387	1.6	825898	WORD	n/a	wordpools/wordpool_EN.txt	PHONE	2	4	[0, 0, 0]	n/a	FR1	0	R1098D
447.971	1.6	830032	WORD	n/a	wordpools/wordpool_EN.txt	BOY	3	4	[0, 0, 0]	n/a	FR1	0	R1098D
450.555	1.6	834166	WORD	n/a	wordpools/wordpool_EN.txt	PIE	4	4	[0, 0, 0]	n/a	FR1	0	R1098D
453.022	1.6	838113	WORD	n/a	wordpools/wordpool_EN.txt	BREAD	5	4	[0, 0, 0]	n/a	FR1	0	R1098D
455.539	1.6	842140	WORD	n/a	wordpools/wordpool_EN.txt	PURSE	6	4	[0, 0, 0]	n/a	FR1	0	R1098D
458.039	1.6	846140	WORD	n/a	wordpools/wordpool_EN.txt	WORLD	7	4	[0, 0, 0]	n/a	FR1	0	R1098D
460.473	1.6	850034	WORD	n/a	wordpools/wordpool_EN.txt	CLOCK	8	4	[0, 0, 0]	n/a	FR1	0	R1098D
462.874	1.6	853875	WORD	n/a	wordpools/wordpool_EN.txt	DRESS	9	4	[0, 0, 0]	n/a	FR1	0	R1098D
465.274	1.6	857715	WORD	n/a	wordpools/wordpool_EN.txt	SCHOOL	10	4	[0, 0, 0]	n/a	FR1	0	R1098D
467.674	1.6	861555	WORD	n/a	wordpools/wordpool_EN.txt	CHIN	11	4	[0, 0, 0]	n/a	FR1	0	R1098D
470.108	1.6	865449	WORD	n/a	wordpools/wordpool_EN.txt	FLOOR	12	4	[0, 0, 0]	n/a	FR1	0	R1098D
471.725	0.001	868036	DISTRACT_START	n/a	n/a	n/a	-999	4	[0, 0, 0]	n/a	FR1	0	R1098D
471.726	0.016	868038	START	n/a	n/a	n/a	-999	4	[-999, -999, -999]	n/a	FR1	0	R1098D
471.742	3.534	868063	PROB	3.511	n/a	n/a	-999	4	[6, 9, 4]	19.0	FR1	0	R1098D
475.276	3.301	873717	PROB	3.265	n/a	n/a	-999	4	[7, 6, 1]	14.0	FR1	0	R1098D
478.577	3.584	878999	PROB	3.548	n/a	n/a	-999	4	[5, 5, 6]	16.0	FR1	0	R1098D
482.161	2.734	884733	PROB	2.708	n/a	n/a	-999	4	[5, 5, 4]	14.0	FR1	0	R1098D
484.895	3.767	889107	PROB	3.733	n/a	n/a	-999	4	[9, 6, 3]	18.0	FR1	0	R1098D
488.662	10.583	895134	PROB	10.583	n/a	n/a	-999	4	[9, 4, 3]	16.0	FR1	0	R1098D
499.245	0.019	912065	STOP	n/a	n/a	n/a	-999	4	[-999, -999, -999]	n/a	FR1	0	R1098D
499.264	1.05	912096	DISTRACT_END	n/a	n/a	n/a	-999	4	[0, 0, 0]	n/a	FR1	0	R1098D
500.314	30.005	913776	REC_START	n/a	n/a	n/a	-999	4	[0, 0, 0]	n/a	FR1	0	R1098D
530.319	0.009	961781	REC_WORD_VV	30.005	n/a	<>	-999	4	[0, 0, 0]	n/a	FR1	0	R1098D
530.328	1.758	961795	REC_END	n/a	n/a	n/a	-999	4	[0, 0, 0]	n/a	FR1	0	R1098D
532.086	10.0	964608	COUNTDOWN_START	n/a	n/a	n/a	-999	5	[0, 0, 0]	n/a	FR1	0	R1098D
532.087	10.427	964609	TRIAL	n/a	n/a	n/a	-999	5	[0, 0, 0]	n/a	FR1	0	R1098D
542.514	0.008	981291	COUNTDOWN_END	n/a	n/a	n/a	-999	5	[0, 0, 0]	n/a	FR1	0	R1098D
542.522	1.6	981304	ORIENT	n/a	n/a	n/a	-999	5	[0, 0, 0]	n/a	FR1	0	R1098D
545.089	1.6	985411	WORD	n/a	wordpools/wordpool_EN.txt	JAR	1	5	[0, 0, 0]	n/a	FR1	0	R1098D
547.656	1.6	989518	WORD	n/a	wordpools/wordpool_EN.txt	STORM	2	5	[0, 0, 0]	n/a	FR1	0	R1098D
550.206	1.6	993598	WORD	n/a	wordpools/wordpool_EN.txt	OAR	3	5	[0, 0, 0]	n/a	FR1	0	R1098D
552.607	1.6	997439	WORD	n/a	wordpools/wordpool_EN.txt	STAIR	4	5	[0, 0, 0]	n/a	FR1	0	R1098D
555.074	1.6	1001386	WORD	n/a	wordpools/wordpool_EN.txt	WORM	5	5	[0, 0, 0]	n/a	FR1	0	R1098D
557.708	1.6	1005600	WORD	n/a	wordpools/wordpool_EN.txt	MOTH	6	5	[0, 0, 0]	n/a	FR1	0	R1098D
560.192	1.6	1009574	WORD	n/a	wordpools/wordpool_EN.txt	SOAP	7	5	[0, 0, 0]	n/a	FR1	0	R1098D
562.759	1.6	1013681	WORD	n/a	wordpools/wordpool_EN.txt	CLOTH	8	5	[0, 0, 0]	n/a	FR1	0	R1098D
565.309	1.6	1017761	WORD	n/a	wordpools/wordpool_EN.txt	WEB	9	5	[0, 0, 0]	n/a	FR1	0	R1098D
567.894	1.6	1021897	WORD	n/a	wordpools/wordpool_EN.txt	DIME	10	5	[0, 0, 0]	n/a	FR1	0	R1098D
570.46	1.6	1026002	WORD	n/a	wordpools/wordpool_EN.txt	CRANE	11	5	[0, 0, 0]	n/a	FR1	0	R1098D
572.844	1.6	1029816	WORD	n/a	wordpools/wordpool_EN.txt	STRAW	12	5	[0, 0, 0]	n/a	FR1	0	R1098D
574.461	0.001	1032403	DISTRACT_START	n/a	n/a	n/a	-999	5	[0, 0, 0]	n/a	FR1	0	R1098D
574.462	0.015	1032405	START	n/a	n/a	n/a	-999	5	[-999, -999, -999]	n/a	FR1	0	R1098D
574.477	3.984	1032429	PROB	3.951	n/a	n/a	-999	5	[8, 8, 1]	17.0	FR1	0	R1098D
578.461	6.918	1038803	PROB	6.887	n/a	n/a	-999	5	[9, 8, 3]	20.0	FR1	0	R1098D
585.379	5.501	1049871	PROB	5.465	n/a	n/a	-999	5	[3, 8, 4]	15.0	FR1	0	R1098D
590.88	4.573	1058672	PROB	4.573	n/a	n/a	-999	5	[2, 9, 3]	14.0	FR1	0	R1098D
595.453	0.012	1065988	STOP	n/a	n/a	n/a	-999	5	[-999, -999, -999]	n/a	FR1	0	R1098D
595.465	1.167	1066007	DISTRACT_END	n/a	n/a	n/a	-999	5	[0, 0, 0]	n/a	FR1	0	R1098D
596.632	1.77	1067875	REC_START	n/a	n/a	n/a	-999	5	[0, 0, 0]	n/a	FR1	0	R1098D
598.402	0.884	1070706	REC_WORD	1.77	n/a	JAR	-999	5	[0, 0, 0]	n/a	FR1	0	R1098D
599.286	0.96	1072121	REC_WORD	2.654	n/a	SOAP	-999	5	[0, 0, 0]	n/a	FR1	0	R1098D
600.246	2.278	1073657	REC_WORD	3.614	n/a	STONE	-999	5	[0, 0, 0]	n/a	FR1	0	R1098D
602.524	2.141	1077301	REC_WORD	5.892	n/a	STORM	-999	5	[0, 0, 0]	n/a	FR1	0	R1098D
604.665	2.995	1080727	REC_WORD	8.033	n/a	WEB	-999	5	[0, 0, 0]	n/a	FR1	0	R1098D
607.66	18.984	1085518	REC_WORD	11.028	n/a	STAR	-999	5	[0, 0, 0]	n/a	FR1	0	R1098D
626.644	1.91	1115891	REC_END	n/a	n/a	n/a	-999	5	[0, 0, 0]	n/a	FR1	0	R1098D
628.554	0.0	1118946	TRIAL	n/a	n/a	n/a	-999	6	[0, 0, 0]	n/a	FR1	0	R1098D
628.554	10.0	1118946	COUNTDOWN_START	n/a	n/a	n/a	-999	6	[0, 0, 0]	n/a	FR1	0	R1098D
638.982	0.007	1135630	COUNTDOWN_END	n/a	n/a	n/a	-999	6	[0, 0, 0]	n/a	FR1	0	R1098D
638.989	1.6	1135641	ORIENT	n/a	n/a	n/a	-999	6	[0, 0, 0]	n/a	FR1	0	R1098D
641.373	1.6	1139456	WORD	n/a	wordpools/wordpool_EN.txt	SOCK	1	6	[0, 0, 0]	n/a	FR1	0	R1098D
643.79	1.6	1143323	WORD	n/a	wordpools/wordpool_EN.txt	LEG	2	6	[0, 0, 0]	n/a	FR1	0	R1098D
646.174	1.6	1147137	WORD	n/a	wordpools/wordpool_EN.txt	TOY	3	6	[0, 0, 0]	n/a	FR1	0	R1098D
648.658	1.6	1151111	WORD	n/a	wordpools/wordpool_EN.txt	BUSH	4	6	[0, 0, 0]	n/a	FR1	0	R1098D
651.275	1.6	1155298	WORD	n/a	wordpools/wordpool_EN.txt	OAK	5	6	[0, 0, 0]	n/a	FR1	0	R1098D
653.709	1.6	1159192	WORD	n/a	wordpools/wordpool_EN.txt	SHOE	6	6	[0, 0, 0]	n/a	FR1	0	R1098D
656.259	1.6	1163272	WORD	n/a	wordpools/wordpool_EN.txt	ROAD	7	6	[0, 0, 0]	n/a	FR1	0	R1098D
658.776	1.6	1167299	WORD	n/a	wordpools/wordpool_EN.txt	FOX	8	6	[0, 0, 0]	n/a	FR1	0	R1098D
661.343	1.6	1171406	WORD	n/a	wordpools/wordpool_EN.txt	SEAT	9	6	[0, 0, 0]	n/a	FR1	0	R1098D
663.911	1.6	1175514	WORD	n/a	wordpools/wordpool_EN.txt	SWAMP	10	6	[0, 0, 0]	n/a	FR1	0	R1098D
666.311	1.6	1179354	WORD	n/a	wordpools/wordpool_EN.txt	FOOT	11	6	[0, 0, 0]	n/a	FR1	0	R1098D
668.728	1.6	1183221	WORD	n/a	wordpools/wordpool_EN.txt	GRASS	12	6	[0, 0, 0]	n/a	FR1	0	R1098D
670.345	0.001	1185808	DISTRACT_START	n/a	n/a	n/a	-999	6	[0, 0, 0]	n/a	FR1	0	R1098D
670.346	0.016	1185809	START	n/a	n/a	n/a	-999	6	[-999, -999, -999]	n/a	FR1	0	R1098D
670.362	9.218	1185835	PROB	9.187	n/a	n/a	-999	6	[8, 6, 4]	18.0	FR1	0	R1098D
679.58	4.501	1200583	PROB	4.465	n/a	n/a	-999	6	[7, 4, 2]	13.0	FR1	0	R1098D
684.081	6.651	1207784	PROB	6.651	n/a	n/a	-999	6	[8, 4, 8]	20.0	FR1	0	R1098D
690.732	0.017	1218425	STOP	n/a	n/a	n/a	-999	6	[-999, -999, -999]	n/a	FR1	0	R1098D
690.749	1.185	1218452	DISTRACT_END	n/a	n/a	n/a	-999	6	[0, 0, 0]	n/a	FR1	0	R1098D
691.934	1.374	1220348	REC_START	n/a	n/a	n/a	-999	6	[0, 0, 0]	n/a	FR1	0	R1098D
693.308	0.738	1222546	REC_WORD	1.374	n/a	SOCK	-999	6	[0, 0, 0]	n/a	FR1	0	R1098D
694.046	0.954	1223727	REC_WORD	2.112	n/a	LEG	-999	6	[0, 0, 0]	n/a	FR1	0	R1098D
695.0	2.632	1225253	REC_WORD	3.066	n/a	FOOT	-999	6	[0, 0, 0]	n/a	FR1	0	R1098D
697.632	3.484	1229464	REC_WORD	5.698	n/a	STRAW	-999	6	[0, 0, 0]	n/a	FR1	0	R1098D
701.116	2.161	1235038	REC_WORD	9.182	n/a	TOY	-999	6	[0, 0, 0]	n/a	FR1	0	R1098D
703.277	18.668	1238496	REC_WORD	11.343	n/a	BUCKET	-999	6	[0, 0, 0]	n/a	FR1	0	R1098D
721.945	18.329	1268363	REC_END	n/a	n/a	n/a	-999	6	[0, 0, 0]	n/a	FR1	0	R1098D
740.274	10.0	1297687	COUNTDOWN_START	n/a	n/a	n/a	-999	7	[0, 0, 0]	n/a	FR1	0	R1098D
740.275	10.427	1297689	TRIAL	n/a	n/a	n/a	-999	7	[0, 0, 0]	n/a	FR1	0	R1098D
750.702	0.008	1314371	COUNTDOWN_END	n/a	n/a	n/a	-999	7	[0, 0, 0]	n/a	FR1	0	R1098D
750.71	1.6	1314384	ORIENT	n/a	n/a	n/a	-999	7	[0, 0, 0]	n/a	FR1	0	R1098D
753.227	1.6	1318410	WORD	n/a	wordpools/wordpool_EN.txt	MAP	1	7	[0, 0, 0]	n/a	FR1	0	R1098D
755.761	1.6	1322465	WORD	n/a	wordpools/wordpool_EN.txt	GRAPE	2	7	[0, 0, 0]	n/a	FR1	0	R1098D
758.161	1.6	1326304	WORD	n/a	wordpools/wordpool_EN.txt	HOSE	3	7	[0, 0, 0]	n/a	FR1	0	R1098D
760.561	1.6	1330144	WORD	n/a	wordpools/wordpool_EN.txt	TRAIN	4	7	[0, 0, 0]	n/a	FR1	0	R1098D
763.045	1.6	1334118	WORD	n/a	wordpools/wordpool_EN.txt	BOOK	5	7	[0, 0, 0]	n/a	FR1	0	R1098D
765.429	1.6	1337932	WORD	n/a	wordpools/wordpool_EN.txt	TREE	6	7	[0, 0, 0]	n/a	FR1	0	R1098D
767.863	1.6	1341827	WORD	n/a	wordpools/wordpool_EN.txt	RAIN	7	7	[0, 0, 0]	n/a	FR1	0	R1098D
770.447	1.6	1345961	WORD	n/a	wordpools/wordpool_EN.txt	CAR	8	7	[0, 0, 0]	n/a	FR1	0	R1098D
773.064	1.6	1350148	WORD	n/a	wordpools/wordpool_EN.txt	POLE	9	7	[0, 0, 0]	n/a	FR1	0	R1098D
775.631	1.6	1354255	WORD	n/a	wordpools/wordpool_EN.txt	KEY	10	7	[0, 0, 0]	n/a	FR1	0	R1098D
778.098	1.6	1358202	WORD	n/a	wordpools/wordpool_EN.txt	PEA	11	7	[0, 0, 0]	n/a	FR1	0	R1098D
780.498	1.6	1362041	WORD	n/a	wordpools/wordpool_EN.txt	JAIL	12	7	[0, 0, 0]	n/a	FR1	0	R1098D
782.115	0.001	1364628	DISTRACT_START	n/a	n/a	n/a	-999	7	[0, 0, 0]	n/a	FR1	0	R1098D
782.116	0.016	1364630	START	n/a	n/a	n/a	-999	7	[-999, -999, -999]	n/a	FR1	0	R1098D
782.132	5.201	1364656	PROB	5.169	n/a	n/a	-999	7	[8, 4, 3]	15.0	FR1	0	R1098D
787.333	2.934	1372977	PROB	2.903	n/a	n/a	-999	7	[7, 3, 1]	11.0	FR1	0	R1098D
790.267	4.117	1377671	PROB	4.081	n/a	n/a	-999	7	[2, 8, 8]	18.0	FR1	0	R1098D
794.384	4.985	1384257	PROB	4.949	n/a	n/a	-999	7	[9, 6, 5]	20.0	FR1	0	R1098D
799.369	5.796	1392233	PROB	5.796	n/a	n/a	-999	7	[3, 9, 9]	21.0	FR1	0	R1098D
805.165	0.004	1401506	STOP	n/a	n/a	n/a	-999	7	[-999, -999, -999]	n/a	FR1	0	R1098D
805.169	1.201	1401512	DISTRACT_END	n/a	n/a	n/a	-999	7	[0, 0, 0]	n/a	FR1	0	R1098D
806.37	1.828	1403434	REC_START	n/a	n/a	n/a	-999	7	[0, 0, 0]	n/a	FR1	0	R1098D
808.198	0.969	1406358	REC_WORD	1.828	n/a	MAP	-999	7	[0, 0, 0]	n/a	FR1	0	R1098D
809.167	1.832	1407909	REC_WORD	2.797	n/a	GRAPE	-999	7	[0, 0, 0]	n/a	FR1	0	R1098D
810.999	1.754	1410840	REC_WORD	4.629	n/a	KEY	-999	7	[0, 0, 0]	n/a	FR1	0	R1098D
812.753	23.634	1413646	REC_WORD	6.383	n/a	TOY	-999	7	[0, 0, 0]	n/a	FR1	0	R1098D
836.387	1.905	1451458	REC_END	n/a	n/a	n/a	-999	7	[0, 0, 0]	n/a	FR1	0	R1098D
838.292	10.0	1454506	COUNTDOWN_START	n/a	n/a	n/a	-999	8	[0, 0, 0]	n/a	FR1	0	R1098D
838.293	10.427	1454507	TRIAL	n/a	n/a	n/a	-999	8	[0, 0, 0]	n/a	FR1	0	R1098D
848.72	0.008	1471190	COUNTDOWN_END	n/a	n/a	n/a	-999	8	[0, 0, 0]	n/a	FR1	0	R1098D
848.728	1.6	1471202	ORIENT	n/a	n/a	n/a	-999	8	[0, 0, 0]	n/a	FR1	0	R1098D
851.111	1.6	1475015	WORD	n/a	wordpools/wordpool_EN.txt	SUN	1	8	[0, 0, 0]	n/a	FR1	0	R1098D
853.612	1.6	1479016	WORD	n/a	wordpools/wordpool_EN.txt	FILM	2	8	[0, 0, 0]	n/a	FR1	0	R1098D
856.079	1.6	1482963	WORD	n/a	wordpools/wordpool_EN.txt	STAR	3	8	[0, 0, 0]	n/a	FR1	0	R1098D
858.479	1.6	1486803	WORD	n/a	wordpools/wordpool_EN.txt	GLOVE	4	8	[0, 0, 0]	n/a	FR1	0	R1098D
861.013	1.6	1490857	WORD	n/a	wordpools/wordpool_EN.txt	PLATE	5	8	[0, 0, 0]	n/a	FR1	0	R1098D
863.464	1.6	1494778	WORD	n/a	wordpools/wordpool_EN.txt	PEACH	6	8	[0, 0, 0]	n/a	FR1	0	R1098D
865.864	1.6	1498618	WORD	n/a	wordpools/wordpool_EN.txt	CLOUD	7	8	[0, 0, 0]	n/a	FR1	0	R1098D
868.448	1.6	1502752	WORD	n/a	wordpools/wordpool_EN.txt	ARK	8	8	[0, 0, 0]	n/a	FR1	0	R1098D
870.899	1.6	1506674	WORD	n/a	wordpools/wordpool_EN.txt	CLAY	9	8	[0, 0, 0]	n/a	FR1	0	R1098D
873.448	1.6	1510752	WORD	n/a	wordpools/wordpool_EN.txt	EAR	10	8	[0, 0, 0]	n/a	FR1	0	R1098D
875.999	1.6	1514833	WORD	n/a	wordpools/wordpool_EN.txt	WAVE	11	8	[0, 0, 0]	n/a	FR1	0	R1098D
878.516	1.6	1518860	WORD	n/a	wordpools/wordpool_EN.txt	MOON	12	8	[0, 0, 0]	n/a	FR1	0	R1098D
880.133	0.001	1521447	DISTRACT_START	n/a	n/a	n/a	-999	8	[0, 0, 0]	n/a	FR1	0	R1098D
880.134	0.016	1521449	START	n/a	n/a	n/a	-999	8	[-999, -999, -999]	n/a	FR1	0	R1098D
880.15	7.568	1521474	PROB	7.534	n/a	n/a	-999	8	[5, 9, 8]	22.0	FR1	0	R1098D
887.718	4.067	1533582	PROB	4.039	n/a	n/a	-999	8	[1, 9, 3]	13.0	FR1	0	R1098D
891.785	3.334	1540089	PROB	3.3	n/a	n/a	-999	8	[2, 6, 5]	13.0	FR1	0	R1098D
895.119	3.584	1545423	PROB	3.55	n/a	n/a	-999	8	[6, 6, 6]	36.0	FR1	0	R1098D
898.703	8.422	1551157	PROB	8.422	n/a	n/a	-999	8	[9, 1, 5]	15.0	FR1	0	R1098D
907.125	0.013	1564632	STOP	n/a	n/a	n/a	-999	8	[-999, -999, -999]	n/a	FR1	0	R1098D
907.138	1.034	1564652	DISTRACT_END	n/a	n/a	n/a	-999	8	[0, 0, 0]	n/a	FR1	0	R1098D
908.172	5.255	1566307	REC_START	n/a	n/a	n/a	-999	8	[0, 0, 0]	n/a	FR1	0	R1098D
913.427	0.761	1574714	REC_WORD	5.255	n/a	SUN	-999	8	[0, 0, 0]	n/a	FR1	0	R1098D
914.188	1.207	1575932	REC_WORD	6.016	n/a	STAR	-999	8	[0, 0, 0]	n/a	FR1	0	R1098D
915.395	1.206	1577863	REC_WORD	7.223	n/a	FILM	-999	8	[0, 0, 0]	n/a	FR1	0	R1098D
916.601	0.965	1579792	REC_WORD	8.429	n/a	MOON	-999	8	[0, 0, 0]	n/a	FR1	0	R1098D
917.566	20.623	1581336	REC_WORD	9.394	n/a	CLOUD	-999	8	[0, 0, 0]	n/a	FR1	0	R1098D
938.189	2.005	1614331	REC_END	n/a	n/a	n/a	-999	8	[0, 0, 0]	n/a	FR1	0	R1098D
940.194	10.0	1617539	COUNTDOWN_START	n/a	n/a	n/a	-999	9	[0, 0, 0]	n/a	FR1	0	R1098D
940.195	10.427	1617540	TRIAL	n/a	n/a	n/a	-999	9	[0, 0, 0]	n/a	FR1	0	R1098D
950.622	0.007	1634222	COUNTDOWN_END	n/a	n/a	n/a	-999	9	[0, 0, 0]	n/a	FR1	0	R1098D
950.629	1.6	1634233	ORIENT	n/a	n/a	n/a	-999	9	[0, 0, 0]	n/a	FR1	0	R1098D
953.147	1.6	1638262	WORD	n/a	wordpools/wordpool_EN.txt	STEAK	1	9	[0, 0, 0]	n/a	FR1	0	R1098D
955.664	1.6	1642289	WORD	n/a	wordpools/wordpool_EN.txt	EGG	2	9	[0, 0, 0]	n/a	FR1	0	R1098D
958.047	1.6	1646102	WORD	n/a	wordpools/wordpool_EN.txt	BLOOM	3	9	[0, 0, 0]	n/a	FR1	0	R1098D
960.665	1.6	1650290	WORD	n/a	wordpools/wordpool_EN.txt	PEAR	4	9	[0, 0, 0]	n/a	FR1	0	R1098D
963.232	1.6	1654397	WORD	n/a	wordpools/wordpool_EN.txt	FOOD	5	9	[0, 0, 0]	n/a	FR1	0	R1098D
965.732	1.6	1658397	WORD	n/a	wordpools/wordpool_EN.txt	SLEEVE	6	9	[0, 0, 0]	n/a	FR1	0	R1098D
968.316	1.6	1662531	WORD	n/a	wordpools/wordpool_EN.txt	ELF	7	9	[0, 0, 0]	n/a	FR1	0	R1098D
970.767	1.6	1666452	WORD	n/a	wordpools/wordpool_EN.txt	GEESE	8	9	[0, 0, 0]	n/a	FR1	0	R1098D
973.2	1.6	1670345	WORD	n/a	wordpools/wordpool_EN.txt	BAG	9	9	[0, 0, 0]	n/a	FR1	0	R1098D
975.784	1.6	1674479	WORD	n/a	wordpools/wordpool_EN.txt	SPRING	10	9	[0, 0, 0]	n/a	FR1	0	R1098D
978.184	1.6	1678319	WORD	n/a	wordpools/wordpool_EN.txt	MILK	11	9	[0, 0, 0]	n/a	FR1	0	R1098D
980.585	1.6	1682160	WORD	n/a	wordpools/wordpool_EN.txt	FARM	12	9	[0, 0, 0]	n/a	FR1	0	R1098D
982.202	0.001	1684747	DISTRACT_START	n/a	n/a	n/a	-999	9	[0, 0, 0]	n/a	FR1	0	R1098D
982.203	0.016	1684749	START	n/a	n/a	n/a	-999	9	[-999, -999, -999]	n/a	FR1	0	R1098D
982.219	8.768	1684774	PROB	8.738	n/a	n/a	-999	9	[8, 9, 7]	24.0	FR1	0	R1098D
990.987	3.551	1698802	PROB	3.522	n/a	n/a	-999	9	[7, 5, 2]	14.0	FR1	0	R1098D
994.538	4.368	1704483	PROB	4.339	n/a	n/a	-999	9	[2, 9, 9]	20.0	FR1	0	R1098D
998.906	3.051	1711472	PROB	3.027	n/a	n/a	-999	9	[5, 1, 5]	11.0	FR1	0	R1098D
1001.957	3.703	1716353	PROB	3.703	n/a	n/a	-999	9	[2, 2, 8]	12.0	FR1	0	R1098D
1005.66	0.013	1722277	STOP	n/a	n/a	n/a	-999	9	[-999, -999, -999]	n/a	FR1	0	R1098D
1005.673	1.167	1722298	DISTRACT_END	n/a	n/a	n/a	-999	9	[0, 0, 0]	n/a	FR1	0	R1098D
1006.84	10.106	1724165	REC_START	n/a	n/a	n/a	-999	9	[0, 0, 0]	n/a	FR1	0	R1098D
1016.946	2.704	1740334	REC_WORD	10.106	n/a	STORM	-999	9	[0, 0, 0]	n/a	FR1	0	R1098D
1019.65	1.322	1744660	REC_WORD	12.81	n/a	ARK	-999	9	[0, 0, 0]	n/a	FR1	0	R1098D
1020.972	1.847	1746775	REC_WORD	14.132	n/a	STICK	-999	9	[0, 0, 0]	n/a	FR1	0	R1098D
1022.819	2.95	1749730	REC_WORD	15.979	n/a	EGG	-999	9	[0, 0, 0]	n/a	FR1	0	R1098D
1025.769	2.259	1754450	REC_WORD	18.929	n/a	BLOOM	-999	9	[0, 0, 0]	n/a	FR1	0	R1098D
1028.028	8.829	1758064	REC_WORD	21.188	n/a	WATER	-999	9	[0, 0, 0]	n/a	FR1	0	R1098D
1036.857	18.692	1772189	REC_END	n/a	n/a	n/a	-999	9	[0, 0, 0]	n/a	FR1	0	R1098D
1055.549	10.0	1802095	COUNTDOWN_START	n/a	n/a	n/a	-999	10	[0, 0, 0]	n/a	FR1	0	R1098D
1055.549	10.428	1802095	TRIAL	n/a	n/a	n/a	-999	10	[0, 0, 0]	n/a	FR1	0	R1098D
1065.977	0.007	1818778	COUNTDOWN_END	n/a	n/a	n/a	-999	10	[0, 0, 0]	n/a	FR1	0	R1098D
1065.984	1.6	1818790	ORIENT	n/a	n/a	n/a	-999	10	[0, 0, 0]	n/a	FR1	0	R1098D
1068.501	1.6	1822817	WORD	n/a	wordpools/wordpool_EN.txt	MAT	1	10	[0, 0, 0]	n/a	FR1	0	R1098D
1071.118	1.6	1827004	WORD	n/a	wordpools/wordpool_EN.txt	FUR	2	10	[0, 0, 0]	n/a	FR1	0	R1098D
1073.735	1.6	1831190	WORD	n/a	wordpools/wordpool_EN.txt	SINK	3	10	[0, 0, 0]	n/a	FR1	0	R1098D
1076.286	1.6	1835272	WORD	n/a	wordpools/wordpool_EN.txt	TIE	4	10	[0, 0, 0]	n/a	FR1	0	R1098D
1078.72	1.6	1839166	WORD	n/a	wordpools/wordpool_EN.txt	CANE	5	10	[0, 0, 0]	n/a	FR1	0	R1098D
1081.203	1.6	1843138	WORD	n/a	wordpools/wordpool_EN.txt	BRUSH	6	10	[0, 0, 0]	n/a	FR1	0	R1098D
1083.654	1.6	1847060	WORD	n/a	wordpools/wordpool_EN.txt	EEL	7	10	[0, 0, 0]	n/a	FR1	0	R1098D
1086.271	1.6	1851247	WORD	n/a	wordpools/wordpool_EN.txt	STOOL	8	10	[0, 0, 0]	n/a	FR1	0	R1098D
1088.755	1.6	1855221	WORD	n/a	wordpools/wordpool_EN.txt	DOLL	9	10	[0, 0, 0]	n/a	FR1	0	R1098D
1091.289	1.6	1859275	WORD	n/a	wordpools/wordpool_EN.txt	BOOT	10	10	[0, 0, 0]	n/a	FR1	0	R1098D
1093.789	1.6	1863275	WORD	n/a	wordpools/wordpool_EN.txt	HAT	11	10	[0, 0, 0]	n/a	FR1	0	R1098D
1096.239	1.6	1867195	WORD	n/a	wordpools/wordpool_EN.txt	ARM	12	10	[0, 0, 0]	n/a	FR1	0	R1098D
1097.856	0.001	1869782	DISTRACT_START	n/a	n/a	n/a	-999	10	[0, 0, 0]	n/a	FR1	0	R1098D
1097.857	0.016	1869783	START	n/a	n/a	n/a	-999	10	[-999, -999, -999]	n/a	FR1	0	R1098D
1097.873	4.634	1869809	PROB	4.603	n/a	n/a	-999	10	[4, 2, 3]	9.0	FR1	0	R1098D
1102.507	3.918	1877223	PROB	3.881	n/a	n/a	-999	10	[6, 6, 8]	20.0	FR1	0	R1098D
1106.425	6.084	1883491	PROB	6.051	n/a	n/a	-999	10	[8, 5, 6]	19.0	FR1	0	R1098D
1112.509	6.783	1893225	PROB	6.783	n/a	n/a	-999	10	[5, 3, 1]	9.0	FR1	0	R1098D
1119.292	0.018	1904077	STOP	n/a	n/a	n/a	-999	10	[-999, -999, -999]	n/a	FR1	0	R1098D
1119.31	1.085	1904106	DISTRACT_END	n/a	n/a	n/a	-999	10	[0, 0, 0]	n/a	FR1	0	R1098D
1120.395	1.181	1905842	REC_START	n/a	n/a	n/a	-999	10	[0, 0, 0]	n/a	FR1	0	R1098D
1121.576	1.219	1907731	REC_WORD	1.181	n/a	MAT	-999	10	[0, 0, 0]	n/a	FR1	0	R1098D
1122.795	0.983	1909681	REC_WORD	2.4	n/a	FUR	-999	10	[0, 0, 0]	n/a	FR1	0	R1098D
1123.778	26.63	1911254	REC_WORD	3.383	n/a	SINK	-999	10	[0, 0, 0]	n/a	FR1	0	R1098D
1150.408	5.292	1953859	REC_END	n/a	n/a	n/a	-999	10	[0, 0, 0]	n/a	FR1	0	R1098D
1155.7	10.0	1962326	COUNTDOWN_START	n/a	n/a	n/a	-999	11	[0, 0, 0]	n/a	FR1	0	R1098D
1155.701	10.427	1962328	TRIAL	n/a	n/a	n/a	-999	11	[0, 0, 0]	n/a	FR1	0	R1098D
1166.128	0.008	1979010	COUNTDOWN_END	n/a	n/a	n/a	-999	11	[0, 0, 0]	n/a	FR1	0	R1098D
1166.136	1.6	1979023	ORIENT	n/a	n/a	n/a	-999	11	[0, 0, 0]	n/a	FR1	0	R1098D
1168.703	1.6	1983130	WORD	n/a	wordpools/wordpool_EN.txt	DOG	1	11	[0, 0, 0]	n/a	FR1	0	R1098D
1171.203	1.6	1987129	WORD	n/a	wordpools/wordpool_EN.txt	GOAT	2	11	[0, 0, 0]	n/a	FR1	0	R1098D
1173.754	1.6	1991211	WORD	n/a	wordpools/wordpool_EN.txt	HEN	3	11	[0, 0, 0]	n/a	FR1	0	R1098D
1176.337	1.6	1995343	WORD	n/a	wordpools/wordpool_EN.txt	DUCK	4	11	[0, 0, 0]	n/a	FR1	0	R1098D
1178.805	1.6	1999292	WORD	n/a	wordpools/wordpool_EN.txt	PET	5	11	[0, 0, 0]	n/a	FR1	0	R1098D
1181.305	1.6	2003291	WORD	n/a	wordpools/wordpool_EN.txt	SPOON	6	11	[0, 0, 0]	n/a	FR1	0	R1098D
1183.739	1.6	2007186	WORD	n/a	wordpools/wordpool_EN.txt	BLUSH	7	11	[0, 0, 0]	n/a	FR1	0	R1098D
1186.123	1.6	2011000	WORD	n/a	wordpools/wordpool_EN.txt	TRUCK	8	11	[0, 0, 0]	n/a	FR1	0	R1098D
1188.656	1.6	2015052	WORD	n/a	wordpools/wordpool_EN.txt	FLEA	9	11	[0, 0, 0]	n/a	FR1	0	R1098D
1191.173	1.6	2019079	WORD	n/a	wordpools/wordpool_EN.txt	JEEP	10	11	[0, 0, 0]	n/a	FR1	0	R1098D
1193.607	1.6	2022973	WORD	n/a	wordpools/wordpool_EN.txt	TOAST	11	11	[0, 0, 0]	n/a	FR1	0	R1098D
1196.124	1.6	2027000	WORD	n/a	wordpools/wordpool_EN.txt	RAT	12	11	[0, 0, 0]	n/a	FR1	0	R1098D
1197.741	0.001	2029587	DISTRACT_START	n/a	n/a	n/a	-999	11	[0, 0, 0]	n/a	FR1	0	R1098D
1197.742	0.016	2029589	START	n/a	n/a	n/a	-999	11	[-999, -999, -999]	n/a	FR1	0	R1098D
1197.758	3.651	2029615	PROB	3.63	n/a	n/a	-999	11	[7, 5, 7]	19.0	FR1	0	R1098D
1201.409	4.167	2035456	PROB	4.131	n/a	n/a	-999	11	[9, 5, 7]	21.0	FR1	0	R1098D
1205.576	4.584	2042123	PROB	4.564	n/a	n/a	-999	11	[6, 3, 7]	16.0	FR1	0	R1098D
1210.16	3.251	2049456	PROB	3.22	n/a	n/a	-999	11	[4, 4, 3]	11.0	FR1	0	R1098D
1213.411	2.967	2054658	PROB	2.946	n/a	n/a	-999	11	[5, 1, 6]	12.0	FR1	0	R1098D
1216.378	3.13	2059405	PROB	3.13	n/a	n/a	-999	11	[9, 5, 5]	19.0	FR1	0	R1098D
1219.508	0.004	2064412	STOP	n/a	n/a	n/a	-999	11	[-999, -999, -999]	n/a	FR1	0	R1098D
1219.512	1.168	2064419	DISTRACT_END	n/a	n/a	n/a	-999	11	[0, 0, 0]	n/a	FR1	0	R1098D
1220.68	3.828	2066287	REC_START	n/a	n/a	n/a	-999	11	[0, 0, 0]	n/a	FR1	0	R1098D
1224.508	1.373	2072412	REC_WORD	3.828	n/a	DUCK	-999	11	[0, 0, 0]	n/a	FR1	0	R1098D
1225.881	2.428	2074608	REC_WORD	5.201	n/a	DOG	-999	11	[0, 0, 0]	n/a	FR1	0	R1098D
1228.309	3.031	2078493	REC_WORD	7.629	n/a	SPOON	-999	11	[0, 0, 0]	n/a	FR1	0	R1098D
1231.34	2.023	2083342	REC_WORD	10.66	n/a	PET	-999	11	[0, 0, 0]	n/a	FR1	0	R1098D
1233.363	1.578	2086579	REC_WORD	12.683	n/a	HEN	-999	11	[0, 0, 0]	n/a	FR1	0	R1098D
1234.941	15.751	2089104	REC_WORD	14.261	n/a	GOAT	-999	11	[0, 0, 0]	n/a	FR1	0	R1098D
1250.692	1.793	2114304	REC_END	n/a	n/a	n/a	-999	11	[0, 0, 0]	n/a	FR1	0	R1098D
1252.485	10.0	2117172	COUNTDOWN_START	n/a	n/a	n/a	-999	12	[0, 0, 0]	n/a	FR1	0	R1098D
1252.485	10.428	2117172	TRIAL	n/a	n/a	n/a	-999	12	[0, 0, 0]	n/a	FR1	0	R1098D
1262.913	0.008	2133856	COUNTDOWN_END	n/a	n/a	n/a	-999	12	[0, 0, 0]	n/a	FR1	0	R1098D
1262.921	1.6	2133869	ORIENT	n/a	n/a	n/a	-999	12	[0, 0, 0]	n/a	FR1	0	R1098D
1265.304	1.6	2137681	WORD	n/a	wordpools/wordpool_EN.txt	LEAF	1	12	[0, 0, 0]	n/a	FR1	0	R1098D
1267.704	1.6	2141521	WORD	n/a	wordpools/wordpool_EN.txt	POOL	2	12	[0, 0, 0]	n/a	FR1	0	R1098D
1270.288	1.6	2145655	WORD	n/a	wordpools/wordpool_EN.txt	CART	3	12	[0, 0, 0]	n/a	FR1	0	R1098D
1272.889	1.6	2149816	WORD	n/a	wordpools/wordpool_EN.txt	BARN	4	12	[0, 0, 0]	n/a	FR1	0	R1098D
1275.272	1.6	2153629	WORD	n/a	wordpools/wordpool_EN.txt	STOVE	5	12	[0, 0, 0]	n/a	FR1	0	R1098D
1277.873	1.6	2157790	WORD	n/a	wordpools/wordpool_EN.txt	FENCE	6	12	[0, 0, 0]	n/a	FR1	0	R1098D
1280.406	1.6	2161843	WORD	n/a	wordpools/wordpool_EN.txt	HORSE	7	12	[0, 0, 0]	n/a	FR1	0	R1098D
1282.891	1.6	2165819	WORD	n/a	wordpools/wordpool_EN.txt	POND	8	12	[0, 0, 0]	n/a	FR1	0	R1098D
1285.374	1.6	2169791	WORD	n/a	wordpools/wordpool_EN.txt	HAWK	9	12	[0, 0, 0]	n/a	FR1	0	R1098D
1287.824	1.6	2173711	WORD	n/a	wordpools/wordpool_EN.txt	INK	10	12	[0, 0, 0]	n/a	FR1	0	R1098D
1290.292	1.6	2177659	WORD	n/a	wordpools/wordpool_EN.txt	NEST	11	12	[0, 0, 0]	n/a	FR1	0	R1098D
1292.893	1.6	2181821	WORD	n/a	wordpools/wordpool_EN.txt	FLUTE	12	12	[0, 0, 0]	n/a	FR1	0	R1098D
1294.509	0.001	2184406	DISTRACT_START	n/a	n/a	n/a	-999	12	[0, 0, 0]	n/a	FR1	0	R1098D
1294.51	0.016	2184408	START	n/a	n/a	n/a	-999	12	[-999, -999, -999]	n/a	FR1	0	R1098D
1294.526	4.484	2184433	PROB	4.455	n/a	n/a	-999	12	[3, 2, 1]	6.0	FR1	0	R1098D
1299.01	7.485	2191607	PROB	7.458	n/a	n/a	-999	12	[1, 5, 8]	14.0	FR1	0	R1098D
1306.495	5.717	2203583	PROB	5.685	n/a	n/a	-999	12	[7, 6, 6]	19.0	FR1	0	R1098D
1312.212	4.417	2212729	PROB	4.417	n/a	n/a	-999	12	[4, 8, 3]	15.0	FR1	0	R1098D
1316.629	0.017	2219796	STOP	n/a	n/a	n/a	-999	12	[-999, -999, -999]	n/a	FR1	0	R1098D
1316.646	1.068	2219823	DISTRACT_END	n/a	n/a	n/a	-999	12	[0, 0, 0]	n/a	FR1	0	R1098D
1317.714	1.875	2221532	REC_START	n/a	n/a	n/a	-999	12	[0, 0, 0]	n/a	FR1	0	R1098D
1319.589	1.05	2224532	REC_WORD	1.875	n/a	POOL	-999	12	[0, 0, 0]	n/a	FR1	0	R1098D
1320.639	2.4	2226212	REC_WORD	2.925	n/a	POND	-999	12	[0, 0, 0]	n/a	FR1	0	R1098D
1323.039	1.1	2230051	REC_WORD	5.325	n/a	HORSE	-999	12	[0, 0, 0]	n/a	FR1	0	R1098D
1324.139	2.776	2231811	REC_WORD	6.425	n/a	LEAF	-999	12	[0, 0, 0]	n/a	FR1	0	R1098D
1326.915	20.811	2236253	REC_WORD	9.201	n/a	TRUCK	-999	12	[0, 0, 0]	n/a	FR1	0	R1098D
1347.726	1.86	2269548	REC_END	n/a	n/a	n/a	-999	12	[0, 0, 0]	n/a	FR1	0	R1098D
1349.586	0.0	2272524	TRIAL	n/a	n/a	n/a	-999	13	[0, 0, 0]	n/a	FR1	0	R1098D
1349.586	10.0	2272524	COUNTDOWN_START	n/a	n/a	n/a	-999	13	[0, 0, 0]	n/a	FR1	0	R1098D
1360.014	0.007	2289208	COUNTDOWN_END	n/a	n/a	n/a	-999	13	[0, 0, 0]	n/a	FR1	0	R1098D
1360.021	1.6	2289219	ORIENT	n/a	n/a	n/a	-999	13	[0, 0, 0]	n/a	FR1	0	R1098D
1362.588	1.6	2293326	WORD	n/a	wordpools/wordpool_EN.txt	JUICE	1	13	[0, 0, 0]	n/a	FR1	0	R1098D
1365.139	1.6	2297407	WORD	n/a	wordpools/wordpool_EN.txt	LAKE	2	13	[0, 0, 0]	n/a	FR1	0	R1098D
1367.706	1.6	2301514	WORD	n/a	wordpools/wordpool_EN.txt	SALT	3	13	[0, 0, 0]	n/a	FR1	0	R1098D
1370.206	1.6	2305514	WORD	n/a	wordpools/wordpool_EN.txt	MAIL	4	13	[0, 0, 0]	n/a	FR1	0	R1098D
1372.59	1.6	2309328	WORD	n/a	wordpools/wordpool_EN.txt	LAND	5	13	[0, 0, 0]	n/a	FR1	0	R1098D
1375.024	1.6	2313222	WORD	n/a	wordpools/wordpool_EN.txt	PLANE	6	13	[0, 0, 0]	n/a	FR1	0	R1098D
1377.408	1.6	2317036	WORD	n/a	wordpools/wordpool_EN.txt	SHIP	7	13	[0, 0, 0]	n/a	FR1	0	R1098D
1379.975	1.6	2321143	WORD	n/a	wordpools/wordpool_EN.txt	TRASH	8	13	[0, 0, 0]	n/a	FR1	0	R1098D
1382.542	1.6	2325250	WORD	n/a	wordpools/wordpool_EN.txt	NET	9	13	[0, 0, 0]	n/a	FR1	0	R1098D
1384.959	1.6	2329117	WORD	n/a	wordpools/wordpool_EN.txt	SMOKE	10	13	[0, 0, 0]	n/a	FR1	0	R1098D
1387.576	1.6	2333304	WORD	n/a	wordpools/wordpool_EN.txt	SHEET	11	13	[0, 0, 0]	n/a	FR1	0	R1098D
1390.026	1.6	2337224	WORD	n/a	wordpools/wordpool_EN.txt	APE	12	13	[0, 0, 0]	n/a	FR1	0	R1098D
1391.643	0.001	2339811	DISTRACT_START	n/a	n/a	n/a	-999	13	[0, 0, 0]	n/a	FR1	0	R1098D
1391.644	0.016	2339812	START	n/a	n/a	n/a	-999	13	[-999, -999, -999]	n/a	FR1	0	R1098D
1391.66	5.584	2339838	PROB	5.553	n/a	n/a	-999	13	[7, 7, 2]	16.0	FR1	0	R1098D
1397.244	9.269	2348772	PROB	9.241	n/a	n/a	-999	13	[6, 6, 9]	21.0	FR1	0	R1098D
1406.513	3.084	2363601	PROB	3.06	n/a	n/a	-999	13	[4, 2, 5]	11.0	FR1	0	R1098D
1409.597	3.32	2368535	PROB	3.32	n/a	n/a	-999	13	[1, 4, 7]	12.0	FR1	0	R1098D
1412.917	0.015	2373847	STOP	n/a	n/a	n/a	-999	13	[-999, -999, -999]	n/a	FR1	0	R1098D
1412.932	1.116	2373871	DISTRACT_END	n/a	n/a	n/a	-999	13	[0, 0, 0]	n/a	FR1	0	R1098D
1414.048	2.922	2375656	REC_START	n/a	n/a	n/a	-999	13	[0, 0, 0]	n/a	FR1	0	R1098D
1416.97	1.884	2380331	REC_WORD	2.922	n/a	SALT	-999	13	[0, 0, 0]	n/a	FR1	0	R1098D
1418.854	12.009	2383346	REC_WORD	4.806	n/a	LAKE	-999	13	[0, 0, 0]	n/a	FR1	0	R1098D
1430.863	13.203	2402559	REC_WORD	16.815	n/a	ELF	-999	13	[0, 0, 0]	n/a	FR1	0	R1098D
1444.066	1.855	2423682	REC_END	n/a	n/a	n/a	-999	13	[0, 0, 0]	n/a	FR1	0	R1098D
1445.921	10.0	2426650	COUNTDOWN_START	n/a	n/a	n/a	-999	14	[0, 0, 0]	n/a	FR1	0	R1098D
1445.921	10.428	2426650	TRIAL	n/a	n/a	n/a	-999	14	[0, 0, 0]	n/a	FR1	0	R1098D
1456.349	0.006	2443334	COUNTDOWN_END	n/a	n/a	n/a	-999	14	[0, 0, 0]	n/a	FR1	0	R1098D
1456.355	1.6	2443343	ORIENT	n/a	n/a	n/a	-999	14	[0, 0, 0]	n/a	FR1	0	R1098D
1458.873	1.6	2447372	WORD	n/a	wordpools/wordpool_EN.txt	RUG	1	14	[0, 0, 0]	n/a	FR1	0	R1098D
1461.456	1.6	2451504	WORD	n/a	wordpools/wordpool_EN.txt	YARD	2	14	[0, 0, 0]	n/a	FR1	0	R1098D
1463.99	1.6	2455558	WORD	n/a	wordpools/wordpool_EN.txt	HOLE	3	14	[0, 0, 0]	n/a	FR1	0	R1098D
1466.607	1.6	2459745	WORD	n/a	wordpools/wordpool_EN.txt	WHALE	4	14	[0, 0, 0]	n/a	FR1	0	R1098D
1469.141	1.6	2463800	WORD	n/a	wordpools/wordpool_EN.txt	HILL	5	14	[0, 0, 0]	n/a	FR1	0	R1098D
1471.658	1.6	2467826	WORD	n/a	wordpools/wordpool_EN.txt	ROOF	6	14	[0, 0, 0]	n/a	FR1	0	R1098D
1474.208	1.6	2471906	WORD	n/a	wordpools/wordpool_EN.txt	ANT	7	14	[0, 0, 0]	n/a	FR1	0	R1098D
1476.692	1.6	2475880	WORD	n/a	wordpools/wordpool_EN.txt	CAGE	8	14	[0, 0, 0]	n/a	FR1	0	R1098D
1479.193	1.6	2479882	WORD	n/a	wordpools/wordpool_EN.txt	TOAD	9	14	[0, 0, 0]	n/a	FR1	0	R1098D
1481.693	1.6	2483881	WORD	n/a	wordpools/wordpool_EN.txt	MOUTH	10	14	[0, 0, 0]	n/a	FR1	0	R1098D
1484.294	1.6	2488043	WORD	n/a	wordpools/wordpool_EN.txt	MOLE	11	14	[0, 0, 0]	n/a	FR1	0	R1098D
1486.929	1.6	2492259	WORD	n/a	wordpools/wordpool_EN.txt	SHELL	12	14	[0, 0, 0]	n/a	FR1	0	R1098D
1488.545	0.001	2494844	DISTRACT_START	n/a	n/a	n/a	-999	14	[0, 0, 0]	n/a	FR1	0	R1098D
1488.546	0.015	2494846	START	n/a	n/a	n/a	-999	14	[-999, -999, -999]	n/a	FR1	0	R1098D
1488.561	15.553	2494870	PROB	15.523	n/a	n/a	-999	14	[8, 9, 8]	25.0	FR1	0	R1098D
1504.114	4.251	2519753	PROB	4.218	n/a	n/a	-999	14	[7, 4, 8]	19.0	FR1	0	R1098D
1508.365	8.654	2526554	PROB	8.654	n/a	n/a	-999	14	[8, 5, 6]	19.0	FR1	0	R1098D
1517.019	0.014	2540399	STOP	n/a	n/a	n/a	-999	14	[-999, -999, -999]	n/a	FR1	0	R1098D
1517.033	1.068	2540422	DISTRACT_END	n/a	n/a	n/a	-999	14	[0, 0, 0]	n/a	FR1	0	R1098D
1518.101	27.325	2542131	REC_START	n/a	n/a	n/a	-999	14	[0, 0, 0]	n/a	FR1	0	R1098D
1545.426	1.003	2585848	REC_WORD	27.325	n/a	RUG	-999	14	[0, 0, 0]	n/a	FR1	0	R1098D
1546.429	1.684	2587452	REC_WORD	28.328	n/a	YARD	-999	14	[0, 0, 0]	n/a	FR1	0	R1098D
1548.113	3.828	2590147	REC_END	n/a	n/a	n/a	-999	14	[0, 0, 0]	n/a	FR1	0	R1098D
1551.941	0.0	2596271	TRIAL	n/a	n/a	n/a	-999	15	[0, 0, 0]	n/a	FR1	0	R1098D
1551.941	10.0	2596271	COUNTDOWN_START	n/a	n/a	n/a	-999	15	[0, 0, 0]	n/a	FR1	0	R1098D
1562.369	0.006	2612955	COUNTDOWN_END	n/a	n/a	n/a	-999	15	[0, 0, 0]	n/a	FR1	0	R1098D
1562.375	1.6	2612964	ORIENT	n/a	n/a	n/a	-999	15	[0, 0, 0]	n/a	FR1	0	R1098D
1564.893	1.6	2616993	WORD	n/a	wordpools/wordpool_EN.txt	BRICK	1	15	[0, 0, 0]	n/a	FR1	0	R1098D
1567.459	1.6	2621098	WORD	n/a	wordpools/wordpool_EN.txt	CORD	2	15	[0, 0, 0]	n/a	FR1	0	R1098D
1569.959	1.6	2625098	WORD	n/a	wordpools/wordpool_EN.txt	BADGE	3	15	[0, 0, 0]	n/a	FR1	0	R1098D
1572.36	1.6	2628939	WORD	n/a	wordpools/wordpool_EN.txt	CASH	4	15	[0, 0, 0]	n/a	FR1	0	R1098D
1574.794	1.6	2632834	WORD	n/a	wordpools/wordpool_EN.txt	STEM	5	15	[0, 0, 0]	n/a	FR1	0	R1098D
1577.411	1.6	2637020	WORD	n/a	wordpools/wordpool_EN.txt	BEAR	6	15	[0, 0, 0]	n/a	FR1	0	R1098D
1579.795	1.6	2640835	WORD	n/a	wordpools/wordpool_EN.txt	BOMB	7	15	[0, 0, 0]	n/a	FR1	0	R1098D
1582.228	1.6	2644727	WORD	n/a	wordpools/wordpool_EN.txt	CLOWN	8	15	[0, 0, 0]	n/a	FR1	0	R1098D
1584.695	1.6	2648674	WORD	n/a	wordpools/wordpool_EN.txt	SPARK	9	15	[0, 0, 0]	n/a	FR1	0	R1098D
1587.113	1.6	2652543	WORD	n/a	wordpools/wordpool_EN.txt	GOLD	10	15	[0, 0, 0]	n/a	FR1	0	R1098D
1589.713	1.6	2656702	WORD	n/a	wordpools/wordpool_EN.txt	FUDGE	11	15	[0, 0, 0]	n/a	FR1	0	R1098D
1592.097	1.6	2660517	WORD	n/a	wordpools/wordpool_EN.txt	ROCK	12	15	[0, 0, 0]	n/a	FR1	0	R1098D
1593.714	0.001	2663104	DISTRACT_START	n/a	n/a	n/a	-999	15	[0, 0, 0]	n/a	FR1	0	R1098D
1593.715	0.015	2663105	START	n/a	n/a	n/a	-999	15	[-999, -999, -999]	n/a	FR1	0	R1098D
1593.73	4.701	2663129	PROB	4.675	n/a	n/a	-999	15	[7, 6, 1]	14.0	FR1	0	R1098D
1598.431	4.084	2670650	PROB	4.061	n/a	n/a	-999	15	[4, 5, 3]	12.0	FR1	0	R1098D
1602.515	4.386	2677184	PROB	4.353	n/a	n/a	-999	15	[9, 9, 9]	27.0	FR1	0	R1098D
1606.901	5.95	2684201	PROB	5.919	n/a	n/a	-999	15	[3, 7, 5]	15.0	FR1	0	R1098D
1612.851	4.418	2693721	PROB	4.418	n/a	n/a	-999	15	[4, 7, 9]	20.0	FR1	0	R1098D
1617.269	0.016	2700789	STOP	n/a	n/a	n/a	-999	15	[-999, -999, -999]	n/a	FR1	0	R1098D
1617.285	1.067	2700815	DISTRACT_END	n/a	n/a	n/a	-999	15	[0, 0, 0]	n/a	FR1	0	R1098D
1618.352	2.084	2702522	REC_START	n/a	n/a	n/a	-999	15	[0, 0, 0]	n/a	FR1	0	R1098D
1620.436	1.333	2705856	REC_WORD	2.084	n/a	BRICK	-999	15	[0, 0, 0]	n/a	FR1	0	R1098D
1621.769	1.463	2707989	REC_WORD	3.417	n/a	YARD	-999	15	[0, 0, 0]	n/a	FR1	0	R1098D
1623.232	5.2	2710329	REC_WORD	4.88	n/a	GOLD	-999	15	[0, 0, 0]	n/a	FR1	0	R1098D
1628.432	2.459	2718649	REC_WORD	10.08	n/a	STEM	-999	15	[0, 0, 0]	n/a	FR1	0	R1098D
1630.891	17.479	2722583	REC_WORD	12.539	n/a	LEAF	-999	15	[0, 0, 0]	n/a	FR1	0	R1098D
1648.37	2.354	2750548	REC_END	n/a	n/a	n/a	-999	15	[0, 0, 0]	n/a	FR1	0	R1098D
1650.724	0.0	2754314	TRIAL	n/a	n/a	n/a	-999	16	[0, 0, 0]	n/a	FR1	0	R1098D
1650.724	10.0	2754314	COUNTDOWN_START	n/a	n/a	n/a	-999	16	[0, 0, 0]	n/a	FR1	0	R1098D
1661.152	0.007	2770997	COUNTDOWN_END	n/a	n/a	n/a	-999	16	[0, 0, 0]	n/a	FR1	0	R1098D
1661.159	1.6	2771009	ORIENT	n/a	n/a	n/a	-999	16	[0, 0, 0]	n/a	FR1	0	R1098D
1663.727	1.6	2775117	WORD	n/a	wordpools/wordpool_EN.txt	SPONGE	1	16	[0, 0, 0]	n/a	FR1	0	R1098D
1666.277	1.6	2779197	WORD	n/a	wordpools/wordpool_EN.txt	PIT	2	16	[0, 0, 0]	n/a	FR1	0	R1098D
1668.694	1.6	2783064	WORD	n/a	wordpools/wordpool_EN.txt	SNAIL	3	16	[0, 0, 0]	n/a	FR1	0	R1098D
1671.178	1.6	2787038	WORD	n/a	wordpools/wordpool_EN.txt	DEER	4	16	[0, 0, 0]	n/a	FR1	0	R1098D
1673.745	1.6	2791145	WORD	n/a	wordpools/wordpool_EN.txt	PALM	5	16	[0, 0, 0]	n/a	FR1	0	R1098D
1676.129	1.6	2794959	WORD	n/a	wordpools/wordpool_EN.txt	MUD	6	16	[0, 0, 0]	n/a	FR1	0	R1098D
1678.546	1.6	2798826	WORD	n/a	wordpools/wordpool_EN.txt	DART	7	16	[0, 0, 0]	n/a	FR1	0	R1098D
1681.03	1.6	2802800	WORD	n/a	wordpools/wordpool_EN.txt	TENT	8	16	[0, 0, 0]	n/a	FR1	0	R1098D
1683.664	1.6	2807014	WORD	n/a	wordpools/wordpool_EN.txt	FISH	9	16	[0, 0, 0]	n/a	FR1	0	R1098D
1686.047	1.6	2810827	WORD	n/a	wordpools/wordpool_EN.txt	SHRIMP	10	16	[0, 0, 0]	n/a	FR1	0	R1098D
1688.448	1.6	2814668	WORD	n/a	wordpools/wordpool_EN.txt	SNAKE	11	16	[0, 0, 0]	n/a	FR1	0	R1098D
1690.933	1.6	2818644	WORD	n/a	wordpools/wordpool_EN.txt	VINE	12	16	[0, 0, 0]	n/a	FR1	0	R1098D
1692.549	0.0	2821229	DISTRACT_START	n/a	n/a	n/a	-999	16	[0, 0, 0]	n/a	FR1	0	R1098D
1692.549	0.016	2821229	START	n/a	n/a	n/a	-999	16	[-999, -999, -999]	n/a	FR1	0	R1098D
1692.565	6.401	2821255	PROB	6.377	n/a	n/a	-999	16	[1, 1, 6]	8.0	FR1	0	R1098D
1698.966	4.251	2831496	PROB	4.222	n/a	n/a	-999	16	[6, 6, 3]	15.0	FR1	0	R1098D
1703.217	5.151	2838297	PROB	5.116	n/a	n/a	-999	16	[6, 5, 6]	17.0	FR1	0	R1098D
1708.368	3.767	2846538	PROB	3.732	n/a	n/a	-999	16	[3, 3, 6]	12.0	FR1	0	R1098D
1712.135	3.63	2852565	PROB	3.63	n/a	n/a	-999	16	[1, 8, 4]	13.0	FR1	0	R1098D
1715.765	0.004	2858373	STOP	n/a	n/a	n/a	-999	16	[-999, -999, -999]	n/a	FR1	0	R1098D
1715.769	1.186	2858379	DISTRACT_END	n/a	n/a	n/a	-999	16	[0, 0, 0]	n/a	FR1	0	R1098D
1716.955	2.106	2860277	REC_START	n/a	n/a	n/a	-999	16	[0, 0, 0]	n/a	FR1	0	R1098D
1719.061	1.98	2863646	REC_WORD	2.106	n/a	SPONGE	-999	16	[0, 0, 0]	n/a	FR1	0	R1098D
1721.041	2.939	2866814	REC_WORD	4.086	n/a	PIT	-999	16	[0, 0, 0]	n/a	FR1	0	R1098D
1723.98	2.245	2871516	REC_WORD	7.025	n/a	SHELL	-999	16	[0, 0, 0]	n/a	FR1	0	R1098D
1726.225	9.343	2875108	REC_WORD	9.27	n/a	DEER	-999	16	[0, 0, 0]	n/a	FR1	0	R1098D
1735.568	11.398	2890055	REC_WORD	18.613	n/a	SNAIL	-999	16	[0, 0, 0]	n/a	FR1	0	R1098D
1746.966	23.897	2908291	REC_END	n/a	n/a	n/a	-999	16	[0, 0, 0]	n/a	FR1	0	R1098D
1770.863	0.0	2946524	TRIAL	n/a	n/a	n/a	-999	17	[0, 0, 0]	n/a	FR1	0	R1098D
1770.863	10.0	2946524	COUNTDOWN_START	n/a	n/a	n/a	-999	17	[0, 0, 0]	n/a	FR1	0	R1098D
1781.291	0.007	2963208	COUNTDOWN_END	n/a	n/a	n/a	-999	17	[0, 0, 0]	n/a	FR1	0	R1098D
1781.298	1.6	2963219	ORIENT	n/a	n/a	n/a	-999	17	[0, 0, 0]	n/a	FR1	0	R1098D
1783.832	1.6	2967273	WORD	n/a	wordpools/wordpool_EN.txt	RAKE	1	17	[0, 0, 0]	n/a	FR1	0	R1098D
1786.432	1.6	2971433	WORD	n/a	wordpools/wordpool_EN.txt	CROWN	2	17	[0, 0, 0]	n/a	FR1	0	R1098D
1788.9	1.6	2975381	WORD	n/a	wordpools/wordpool_EN.txt	TOOTH	3	17	[0, 0, 0]	n/a	FR1	0	R1098D
1791.383	1.6	2979354	WORD	n/a	wordpools/wordpool_EN.txt	TOE	4	17	[0, 0, 0]	n/a	FR1	0	R1098D
1793.784	1.6	2983195	WORD	n/a	wordpools/wordpool_EN.txt	CORN	5	17	[0, 0, 0]	n/a	FR1	0	R1098D
1796.167	1.6	2987008	WORD	n/a	wordpools/wordpool_EN.txt	GUARD	6	17	[0, 0, 0]	n/a	FR1	0	R1098D
1798.551	1.6	2990822	WORD	n/a	wordpools/wordpool_EN.txt	DESK	7	17	[0, 0, 0]	n/a	FR1	0	R1098D
1801.002	1.6	2994743	WORD	n/a	wordpools/wordpool_EN.txt	TEETH	8	17	[0, 0, 0]	n/a	FR1	0	R1098D
1803.535	1.6	2998796	WORD	n/a	wordpools/wordpool_EN.txt	TOOL	9	17	[0, 0, 0]	n/a	FR1	0	R1098D
1806.136	1.6	3002957	WORD	n/a	wordpools/wordpool_EN.txt	BRIDGE	10	17	[0, 0, 0]	n/a	FR1	0	R1098D
1808.553	1.6	3006824	WORD	n/a	wordpools/wordpool_EN.txt	WHEEL	11	17	[0, 0, 0]	n/a	FR1	0	R1098D
1810.954	1.6	3010665	WORD	n/a	wordpools/wordpool_EN.txt	CUBE	12	17	[0, 0, 0]	n/a	FR1	0	R1098D
1812.57	0.001	3013251	DISTRACT_START	n/a	n/a	n/a	-999	17	[0, 0, 0]	n/a	FR1	0	R1098D
1812.571	0.016	3013252	START	n/a	n/a	n/a	-999	17	[-999, -999, -999]	n/a	FR1	0	R1098D
1812.587	3.217	3013278	PROB	3.185	n/a	n/a	-999	17	[2, 1, 4]	7.0	FR1	0	R1098D
1815.804	3.868	3018425	PROB	3.84	n/a	n/a	-999	17	[5, 9, 8]	22.0	FR1	0	R1098D
1819.672	3.934	3024613	PROB	3.901	n/a	n/a	-999	17	[5, 8, 4]	17.0	FR1	0	R1098D
1823.606	5.584	3030907	PROB	5.559	n/a	n/a	-999	17	[2, 7, 9]	18.0	FR1	0	R1098D
1829.19	4.855	3039841	PROB	4.855	n/a	n/a	-999	17	[5, 6, 8]	19.0	FR1	0	R1098D
1834.045	0.013	3047609	STOP	n/a	n/a	n/a	-999	17	[-999, -999, -999]	n/a	FR1	0	R1098D
1834.058	1.184	3047629	DISTRACT_END	n/a	n/a	n/a	-999	17	[0, 0, 0]	n/a	FR1	0	R1098D
1835.242	2.276	3049524	REC_START	n/a	n/a	n/a	-999	17	[0, 0, 0]	n/a	FR1	0	R1098D
1837.518	1.81	3053165	REC_WORD	2.276	n/a	CROWN	-999	17	[0, 0, 0]	n/a	FR1	0	R1098D
1839.328	1.535	3056061	REC_WORD	4.086	n/a	RAKE	-999	17	[0, 0, 0]	n/a	FR1	0	R1098D
1840.863	1.63	3058517	REC_WORD	5.621	n/a	TOOTH	-999	17	[0, 0, 0]	n/a	FR1	0	R1098D
1842.493	1.429	3061125	REC_WORD	7.251	n/a	TOOL	-999	17	[0, 0, 0]	n/a	FR1	0	R1098D
1843.922	2.197	3063411	REC_WORD	8.68	n/a	TEETH	-999	17	[0, 0, 0]	n/a	FR1	0	R1098D
1846.119	19.137	3066926	REC_WORD	10.877	n/a	SNAKE	-999	17	[0, 0, 0]	n/a	FR1	0	R1098D
1865.256	2.108	3097543	REC_END	n/a	n/a	n/a	-999	17	[0, 0, 0]	n/a	FR1	0	R1098D
1867.364	10.0	3100916	COUNTDOWN_START	n/a	n/a	n/a	-999	18	[0, 0, 0]	n/a	FR1	0	R1098D
1867.364	10.428	3100916	TRIAL	n/a	n/a	n/a	-999	18	[0, 0, 0]	n/a	FR1	0	R1098D
1877.792	0.007	3117599	COUNTDOWN_END	n/a	n/a	n/a	-999	18	[0, 0, 0]	n/a	FR1	0	R1098D
1877.799	1.6	3117610	ORIENT	n/a	n/a	n/a	-999	18	[0, 0, 0]	n/a	FR1	0	R1098D
1880.366	1.6	3121717	WORD	n/a	wordpools/wordpool_EN.txt	BEE	1	18	[0, 0, 0]	n/a	FR1	0	R1098D
1882.817	1.6	3125639	WORD	n/a	wordpools/wordpool_EN.txt	WOOD	2	18	[0, 0, 0]	n/a	FR1	0	R1098D
1885.401	1.6	3129773	WORD	n/a	wordpools/wordpool_EN.txt	ROOT	3	18	[0, 0, 0]	n/a	FR1	0	R1098D
1887.952	1.6	3133854	WORD	n/a	wordpools/wordpool_EN.txt	NOSE	4	18	[0, 0, 0]	n/a	FR1	0	R1098D
1890.451	1.6	3137852	WORD	n/a	wordpools/wordpool_EN.txt	CAT	5	18	[0, 0, 0]	n/a	FR1	0	R1098D
1892.903	1.6	3141775	WORD	n/a	wordpools/wordpool_EN.txt	SKUNK	6	18	[0, 0, 0]	n/a	FR1	0	R1098D
1895.486	1.6	3145908	WORD	n/a	wordpools/wordpool_EN.txt	BRANCH	7	18	[0, 0, 0]	n/a	FR1	0	R1098D
1897.969	1.6	3149880	WORD	n/a	wordpools/wordpool_EN.txt	FROG	8	18	[0, 0, 0]	n/a	FR1	0	R1098D
1900.42	1.6	3153802	WORD	n/a	wordpools/wordpool_EN.txt	FRUIT	9	18	[0, 0, 0]	n/a	FR1	0	R1098D
1902.887	1.6	3157749	WORD	n/a	wordpools/wordpool_EN.txt	STREET	10	18	[0, 0, 0]	n/a	FR1	0	R1098D
1905.354	1.6	3161696	WORD	n/a	wordpools/wordpool_EN.txt	STORE	11	18	[0, 0, 0]	n/a	FR1	0	R1098D
1907.922	1.6	3165804	WORD	n/a	wordpools/wordpool_EN.txt	CHEEK	12	18	[0, 0, 0]	n/a	FR1	0	R1098D
1909.538	0.001	3168390	DISTRACT_START	n/a	n/a	n/a	-999	18	[0, 0, 0]	n/a	FR1	0	R1098D
1909.539	0.016	3168391	START	n/a	n/a	n/a	-999	18	[-999, -999, -999]	n/a	FR1	0	R1098D
1909.555	3.717	3168417	PROB	3.689	n/a	n/a	-999	18	[3, 9, 7]	19.0	FR1	0	R1098D
1913.272	5.335	3174364	PROB	5.3	n/a	n/a	-999	18	[5, 6, 9]	20.0	FR1	0	R1098D
1918.607	3.584	3182899	PROB	3.558	n/a	n/a	-999	18	[4, 6, 7]	17.0	FR1	0	R1098D
1922.191	2.95	3188633	PROB	2.925	n/a	n/a	-999	18	[2, 7, 2]	11.0	FR1	0	R1098D
1925.141	18.761	3193353	PROB	18.761	n/a	n/a	-999	18	[3, 4, 9]	18.0	FR1	0	R1098D
1943.902	0.01	3223369	STOP	n/a	n/a	n/a	-999	18	[-999, -999, -999]	n/a	FR1	0	R1098D
1943.912	1.15	3223385	DISTRACT_END	n/a	n/a	n/a	-999	18	[0, 0, 0]	n/a	FR1	0	R1098D
1945.062	2.095	3225224	REC_START	n/a	n/a	n/a	-999	18	[0, 0, 0]	n/a	FR1	0	R1098D
1947.157	1.991	3228576	REC_WORD_VV	2.095	n/a	<>	-999	18	[0, 0, 0]	n/a	FR1	0	R1098D
1949.148	2.646	3231762	REC_WORD_VV	4.086	n/a	<>	-999	18	[0, 0, 0]	n/a	FR1	0	R1098D
1951.794	3.532	3235995	REC_WORD_VV	6.732	n/a	<>	-999	18	[0, 0, 0]	n/a	FR1	0	R1098D
1955.326	0.97	3241646	REC_WORD	10.264	n/a	BEE	-999	18	[0, 0, 0]	n/a	FR1	0	R1098D
1956.296	1.237	3243198	REC_WORD	11.234	n/a	WOOD	-999	18	[0, 0, 0]	n/a	FR1	0	R1098D
1957.533	0.829	3245177	REC_WORD	12.471	n/a	CAT	-999	18	[0, 0, 0]	n/a	FR1	0	R1098D
1958.362	2.744	3246503	REC_WORD	13.3	n/a	SKUNK	-999	18	[0, 0, 0]	n/a	FR1	0	R1098D
1961.106	12.02	3250893	REC_WORD	16.044	n/a	NOSE	-999	18	[0, 0, 0]	n/a	FR1	0	R1098D
1973.126	1.948	3270124	REC_WORD	28.064	n/a	THUMB	-999	18	[0, 0, 0]	n/a	FR1	0	R1098D
1975.074	5.727	3273241	REC_END	n/a	n/a	n/a	-999	18	[0, 0, 0]	n/a	FR1	0	R1098D
1980.801	10.0	3282403	COUNTDOWN_START	n/a	n/a	n/a	-999	19	[0, 0, 0]	n/a	FR1	0	R1098D
1980.801	10.428	3282403	TRIAL	n/a	n/a	n/a	-999	19	[0, 0, 0]	n/a	FR1	0	R1098D
1991.229	0.007	3299087	COUNTDOWN_END	n/a	n/a	n/a	-999	19	[0, 0, 0]	n/a	FR1	0	R1098D
1991.236	1.6	3299098	ORIENT	n/a	n/a	n/a	-999	19	[0, 0, 0]	n/a	FR1	0	R1098D
1993.67	1.6	3302992	WORD	n/a	wordpools/wordpool_EN.txt	SKI	1	19	[0, 0, 0]	n/a	FR1	0	R1098D
1996.104	1.6	3306886	WORD	n/a	wordpools/wordpool_EN.txt	BIRD	2	19	[0, 0, 0]	n/a	FR1	0	R1098D
1998.605	1.6	3310888	WORD	n/a	wordpools/wordpool_EN.txt	DOOR	3	19	[0, 0, 0]	n/a	FR1	0	R1098D
2001.222	1.6	3315075	WORD	n/a	wordpools/wordpool_EN.txt	OWL	4	19	[0, 0, 0]	n/a	FR1	0	R1098D
2003.672	1.6	3318994	WORD	n/a	wordpools/wordpool_EN.txt	SOUP	5	19	[0, 0, 0]	n/a	FR1	0	R1098D
2006.256	1.6	3323129	WORD	n/a	wordpools/wordpool_EN.txt	STONE	6	19	[0, 0, 0]	n/a	FR1	0	R1098D
2008.656	1.6	3326968	WORD	n/a	wordpools/wordpool_EN.txt	MOUSE	7	19	[0, 0, 0]	n/a	FR1	0	R1098D
2011.14	1.6	3330942	WORD	n/a	wordpools/wordpool_EN.txt	CAKE	8	19	[0, 0, 0]	n/a	FR1	0	R1098D
2013.757	1.6	3335129	WORD	n/a	wordpools/wordpool_EN.txt	BROOM	9	19	[0, 0, 0]	n/a	FR1	0	R1098D
2016.375	1.6	3339318	WORD	n/a	wordpools/wordpool_EN.txt	SEED	10	19	[0, 0, 0]	n/a	FR1	0	R1098D
2018.775	1.6	3343158	WORD	n/a	wordpools/wordpool_EN.txt	GATE	11	19	[0, 0, 0]	n/a	FR1	0	R1098D
2021.342	1.6	3347265	WORD	n/a	wordpools/wordpool_EN.txt	WAND	12	19	[0, 0, 0]	n/a	FR1	0	R1098D
2022.943	0.001	3349826	DISTRACT_START	n/a	n/a	n/a	-999	19	[0, 0, 0]	n/a	FR1	0	R1098D
2022.944	0.015	3349828	START	n/a	n/a	n/a	-999	19	[-999, -999, -999]	n/a	FR1	0	R1098D
2022.959	5.568	3349852	PROB	5.534	n/a	n/a	-999	19	[9, 7, 6]	22.0	FR1	0	R1098D
2028.527	6.369	3358760	PROB	6.342	n/a	n/a	-999	19	[7, 8, 8]	23.0	FR1	0	R1098D
2034.896	3.116	3368950	PROB	3.084	n/a	n/a	-999	19	[8, 1, 8]	17.0	FR1	0	R1098D
2038.012	3.65	3373935	PROB	3.616	n/a	n/a	-999	19	[1, 2, 3]	6.0	FR1	0	R1098D
2041.662	3.375	3379774	PROB	3.375	n/a	n/a	-999	19	[7, 8, 3]	18.0	FR1	0	R1098D
2045.037	0.009	3385174	STOP	n/a	n/a	n/a	-999	19	[-999, -999, -999]	n/a	FR1	0	R1098D
2045.046	1.135	3385189	DISTRACT_END	n/a	n/a	n/a	-999	19	[0, 0, 0]	n/a	FR1	0	R1098D
2046.181	4.949	3387004	REC_START	n/a	n/a	n/a	-999	19	[0, 0, 0]	n/a	FR1	0	R1098D
2051.13	2.028	3394922	REC_WORD	4.949	n/a	STONE	-999	19	[0, 0, 0]	n/a	FR1	0	R1098D
2053.158	1.617	3398167	REC_WORD	6.977	n/a	SOUP	-999	19	[0, 0, 0]	n/a	FR1	0	R1098D
2054.775	1.676	3400754	REC_WORD	8.594	n/a	MOUSE	-999	19	[0, 0, 0]	n/a	FR1	0	R1098D
2056.451	1.434	3403435	REC_WORD	10.27	n/a	DOOR	-999	19	[0, 0, 0]	n/a	FR1	0	R1098D
2057.885	18.308	3405730	REC_WORD	11.704	n/a	OWL	-999	19	[0, 0, 0]	n/a	FR1	0	R1098D
2076.193	2.676	3435021	REC_END	n/a	n/a	n/a	-999	19	[0, 0, 0]	n/a	FR1	0	R1098D
2078.869	0.0	3439302	TRIAL	n/a	n/a	n/a	-999	20	[0, 0, 0]	n/a	FR1	0	R1098D
2078.869	10.0	3439302	COUNTDOWN_START	n/a	n/a	n/a	-999	20	[0, 0, 0]	n/a	FR1	0	R1098D
2089.297	0.008	3455986	COUNTDOWN_END	n/a	n/a	n/a	-999	20	[0, 0, 0]	n/a	FR1	0	R1098D
2089.305	1.6	3455998	ORIENT	n/a	n/a	n/a	-999	20	[0, 0, 0]	n/a	FR1	0	R1098D
2091.939	1.6	3460213	WORD	n/a	wordpools/wordpool_EN.txt	TANK	1	20	[0, 0, 0]	n/a	FR1	0	R1098D
2094.405	1.6	3464158	WORD	n/a	wordpools/wordpool_EN.txt	PLANT	2	20	[0, 0, 0]	n/a	FR1	0	R1098D
2096.839	1.6	3468052	WORD	n/a	wordpools/wordpool_EN.txt	JET	3	20	[0, 0, 0]	n/a	FR1	0	R1098D
2099.239	1.6	3471892	WORD	n/a	wordpools/wordpool_EN.txt	BEACH	4	20	[0, 0, 0]	n/a	FR1	0	R1098D
2101.823	1.6	3476026	WORD	n/a	wordpools/wordpool_EN.txt	VAN	5	20	[0, 0, 0]	n/a	FR1	0	R1098D
2104.241	1.6	3479894	WORD	n/a	wordpools/wordpool_EN.txt	WING	6	20	[0, 0, 0]	n/a	FR1	0	R1098D
2106.641	1.6	3483734	WORD	n/a	wordpools/wordpool_EN.txt	BOAT	7	20	[0, 0, 0]	n/a	FR1	0	R1098D
2109.208	1.6	3487841	WORD	n/a	wordpools/wordpool_EN.txt	SHARK	8	20	[0, 0, 0]	n/a	FR1	0	R1098D
2111.725	1.6	3491868	WORD	n/a	wordpools/wordpool_EN.txt	LAMP	9	20	[0, 0, 0]	n/a	FR1	0	R1098D
2114.226	1.6	3495869	WORD	n/a	wordpools/wordpool_EN.txt	CUP	10	20	[0, 0, 0]	n/a	FR1	0	R1098D
2116.709	1.6	3499842	WORD	n/a	wordpools/wordpool_EN.txt	FLAME	11	20	[0, 0, 0]	n/a	FR1	0	R1098D
2119.31	1.6	3504003	WORD	n/a	wordpools/wordpool_EN.txt	GLASS	12	20	[0, 0, 0]	n/a	FR1	0	R1098D
2120.911	0.001	3506565	DISTRACT_START	n/a	n/a	n/a	-999	20	[0, 0, 0]	n/a	FR1	0	R1098D
2120.912	0.016	3506566	START	n/a	n/a	n/a	-999	20	[-999, -999, -999]	n/a	FR1	0	R1098D
2120.928	3.666	3506592	PROB	3.644	n/a	n/a	-999	20	[6, 5, 1]	12.0	FR1	0	R1098D
2124.594	3.268	3512457	PROB	3.234	n/a	n/a	-999	20	[2, 9, 9]	20.0	FR1	0	R1098D
2127.862	5.534	3517686	PROB	5.503	n/a	n/a	-999	20	[3, 9, 3]	15.0	FR1	0	R1098D
2133.396	3.351	3526540	PROB	3.321	n/a	n/a	-999	20	[6, 5, 2]	13.0	FR1	0	R1098D
2136.747	3.45	3531901	PROB	3.426	n/a	n/a	-999	20	[9, 8, 3]	20.0	FR1	0	R1098D
2140.197	4.015	3537420	PROB	4.015	n/a	n/a	-999	20	[6, 5, 6]	17.0	FR1	0	R1098D
2144.212	0.019	3543844	STOP	n/a	n/a	n/a	-999	20	[-999, -999, -999]	n/a	FR1	0	R1098D
2144.231	1.068	3543874	DISTRACT_END	n/a	n/a	n/a	-999	20	[0, 0, 0]	n/a	FR1	0	R1098D
2145.299	1.874	3545583	REC_START	n/a	n/a	n/a	-999	20	[0, 0, 0]	n/a	FR1	0	R1098D
2147.173	1.542	3548581	REC_WORD	1.874	n/a	SHARK	-999	20	[0, 0, 0]	n/a	FR1	0	R1098D
2148.715	1.329	3551048	REC_WORD	3.416	n/a	BOAT	-999	20	[0, 0, 0]	n/a	FR1	0	R1098D
2150.044	4.553	3553175	REC_WORD	4.745	n/a	TANK	-999	20	[0, 0, 0]	n/a	FR1	0	R1098D
2154.597	20.714	3560459	REC_WORD	9.298	n/a	WATER	-999	20	[0, 0, 0]	n/a	FR1	0	R1098D
2175.311	1.993	3593599	REC_END	n/a	n/a	n/a	-999	20	[0, 0, 0]	n/a	FR1	0	R1098D
2177.304	0.0	3596788	TRIAL	n/a	n/a	n/a	-999	21	[0, 0, 0]	n/a	FR1	0	R1098D
2177.304	10.0	3596788	COUNTDOWN_START	n/a	n/a	n/a	-999	21	[0, 0, 0]	n/a	FR1	0	R1098D
2187.732	0.007	3613472	COUNTDOWN_END	n/a	n/a	n/a	-999	21	[0, 0, 0]	n/a	FR1	0	R1098D
2187.739	1.6	3613483	ORIENT	n/a	n/a	n/a	-999	21	[0, 0, 0]	n/a	FR1	0	R1098D
2190.273	1.6	3617537	WORD	n/a	wordpools/wordpool_EN.txt	MAZE	1	21	[0, 0, 0]	n/a	FR1	0	R1098D
2192.857	1.6	3621671	WORD	n/a	wordpools/wordpool_EN.txt	FACE	2	21	[0, 0, 0]	n/a	FR1	0	R1098D
2195.424	1.6	3625778	WORD	n/a	wordpools/wordpool_EN.txt	VASE	3	21	[0, 0, 0]	n/a	FR1	0	R1098D
2197.974	1.6	3629858	WORD	n/a	wordpools/wordpool_EN.txt	DITCH	4	21	[0, 0, 0]	n/a	FR1	0	R1098D
2200.375	1.6	3633699	WORD	n/a	wordpools/wordpool_EN.txt	BAND	5	21	[0, 0, 0]	n/a	FR1	0	R1098D
2202.792	1.6	3637566	WORD	n/a	wordpools/wordpool_EN.txt	BALL	6	21	[0, 0, 0]	n/a	FR1	0	R1098D
2205.242	1.6	3641486	WORD	n/a	wordpools/wordpool_EN.txt	SQUARE	7	21	[0, 0, 0]	n/a	FR1	0	R1098D
2207.676	1.6	3645380	WORD	n/a	wordpools/wordpool_EN.txt	CHAIR	8	21	[0, 0, 0]	n/a	FR1	0	R1098D
2210.227	1.6	3649461	WORD	n/a	wordpools/wordpool_EN.txt	STRING	9	21	[0, 0, 0]	n/a	FR1	0	R1098D
2212.61	1.6	3653274	WORD	n/a	wordpools/wordpool_EN.txt	BOARD	10	21	[0, 0, 0]	n/a	FR1	0	R1098D
2214.994	1.6	3657088	WORD	n/a	wordpools/wordpool_EN.txt	SLUSH	11	21	[0, 0, 0]	n/a	FR1	0	R1098D
2217.545	1.6	3661169	WORD	n/a	wordpools/wordpool_EN.txt	BAT	12	21	[0, 0, 0]	n/a	FR1	0	R1098D
2219.162	0.001	3663756	DISTRACT_START	n/a	n/a	n/a	-999	21	[0, 0, 0]	n/a	FR1	0	R1098D
2219.163	0.015	3663758	START	n/a	n/a	n/a	-999	21	[-999, -999, -999]	n/a	FR1	0	R1098D
2219.178	10.119	3663782	PROB	10.098	n/a	n/a	-999	21	[5, 6, 7]	18.0	FR1	0	R1098D
2229.297	3.567	3679971	PROB	3.539	n/a	n/a	-999	21	[6, 1, 8]	15.0	FR1	0	R1098D
2232.864	3.367	3685678	PROB	3.332	n/a	n/a	-999	21	[5, 2, 6]	13.0	FR1	0	R1098D
2236.231	4.285	3691065	PROB	4.285	n/a	n/a	-999	21	[4, 5, 1]	10.0	FR1	0	R1098D
2240.516	0.016	3697921	STOP	n/a	n/a	n/a	-999	21	[-999, -999, -999]	n/a	FR1	0	R1098D
2240.532	1.085	3697946	DISTRACT_END	n/a	n/a	n/a	-999	21	[0, 0, 0]	n/a	FR1	0	R1098D
2241.617	30.0	3699682	REC_START	n/a	n/a	n/a	-999	21	[0, 0, 0]	n/a	FR1	0	R1098D
2271.617	0.012	3747679	REC_WORD_VV	30.0	n/a	<>	-999	21	[0, 0, 0]	n/a	FR1	0	R1098D
2271.629	1.926	3747698	REC_END	n/a	n/a	n/a	-999	21	[0, 0, 0]	n/a	FR1	0	R1098D
2273.555	10.0	3750780	COUNTDOWN_START	n/a	n/a	n/a	-999	22	[0, 0, 0]	n/a	FR1	0	R1098D
2273.555	10.428	3750780	TRIAL	n/a	n/a	n/a	-999	22	[0, 0, 0]	n/a	FR1	0	R1098D
2283.983	0.007	3767463	COUNTDOWN_END	n/a	n/a	n/a	-999	22	[0, 0, 0]	n/a	FR1	0	R1098D
2283.99	1.6	3767474	ORIENT	n/a	n/a	n/a	-999	22	[0, 0, 0]	n/a	FR1	0	R1098D
2286.457	1.6	3771421	WORD	n/a	wordpools/wordpool_EN.txt	STICK	1	22	[0, 0, 0]	n/a	FR1	0	R1098D
2289.058	1.6	3775583	WORD	n/a	wordpools/wordpool_EN.txt	PEARL	2	22	[0, 0, 0]	n/a	FR1	0	R1098D
2291.608	1.6	3779662	WORD	n/a	wordpools/wordpool_EN.txt	NAIL	3	22	[0, 0, 0]	n/a	FR1	0	R1098D
2294.059	1.6	3783584	WORD	n/a	wordpools/wordpool_EN.txt	BEAK	4	22	[0, 0, 0]	n/a	FR1	0	R1098D
2296.459	1.6	3787424	WORD	n/a	wordpools/wordpool_EN.txt	SEAL	5	22	[0, 0, 0]	n/a	FR1	0	R1098D
2298.976	1.6	3791451	WORD	n/a	wordpools/wordpool_EN.txt	PIN	6	22	[0, 0, 0]	n/a	FR1	0	R1098D
2301.41	1.6	3795345	WORD	n/a	wordpools/wordpool_EN.txt	WOLF	7	22	[0, 0, 0]	n/a	FR1	0	R1098D
2304.044	1.6	3799559	WORD	n/a	wordpools/wordpool_EN.txt	HAND	8	22	[0, 0, 0]	n/a	FR1	0	R1098D
2306.544	1.6	3803559	WORD	n/a	wordpools/wordpool_EN.txt	BOX	9	22	[0, 0, 0]	n/a	FR1	0	R1098D
2308.978	1.6	3807453	WORD	n/a	wordpools/wordpool_EN.txt	CAVE	10	22	[0, 0, 0]	n/a	FR1	0	R1098D
2311.495	1.6	3811480	WORD	n/a	wordpools/wordpool_EN.txt	ZOO	11	22	[0, 0, 0]	n/a	FR1	0	R1098D
2313.93	1.6	3815375	WORD	n/a	wordpools/wordpool_EN.txt	CALF	12	22	[0, 0, 0]	n/a	FR1	0	R1098D
2315.546	0.001	3817961	DISTRACT_START	n/a	n/a	n/a	-999	22	[0, 0, 0]	n/a	FR1	0	R1098D
2315.547	0.016	3817962	START	n/a	n/a	n/a	-999	22	[-999, -999, -999]	n/a	FR1	0	R1098D
2315.563	3.534	3817988	PROB	3.514	n/a	n/a	-999	22	[5, 3, 8]	16.0	FR1	0	R1098D
2319.097	3.984	3823642	PROB	3.955	n/a	n/a	-999	22	[8, 6, 6]	20.0	FR1	0	R1098D
2323.081	3.0	3830016	PROB	2.971	n/a	n/a	-999	22	[1, 3, 5]	9.0	FR1	0	R1098D
2326.081	3.534	3834816	PROB	3.508	n/a	n/a	-999	22	[4, 8, 5]	17.0	FR1	0	R1098D
2329.615	3.701	3840470	PROB	3.678	n/a	n/a	-999	22	[5, 7, 4]	16.0	FR1	0	R1098D
2333.316	2.552	3846391	PROB	2.552	n/a	n/a	-999	22	[3, 5, 4]	12.0	FR1	0	R1098D
2335.868	0.015	3850474	STOP	n/a	n/a	n/a	-999	22	[-999, -999, -999]	n/a	FR1	0	R1098D
2335.883	1.151	3850498	DISTRACT_END	n/a	n/a	n/a	-999	22	[0, 0, 0]	n/a	FR1	0	R1098D
2337.034	20.046	3852339	REC_START	n/a	n/a	n/a	-999	22	[0, 0, 0]	n/a	FR1	0	R1098D
2357.08	1.362	3884411	REC_WORD	20.046	n/a	CURL	-999	22	[0, 0, 0]	n/a	FR1	0	R1098D
2358.442	1.592	3886590	REC_WORD	21.408	n/a	NAIL	-999	22	[0, 0, 0]	n/a	FR1	0	R1098D
2360.034	2.529	3889137	REC_WORD	23.0	n/a	STICK	-999	22	[0, 0, 0]	n/a	FR1	0	R1098D
2362.563	4.486	3893183	REC_WORD	25.529	n/a	HAND	-999	22	[0, 0, 0]	n/a	FR1	0	R1098D
2367.049	2.19	3900360	REC_END	n/a	n/a	n/a	-999	22	[0, 0, 0]	n/a	FR1	0	R1098D
2369.239	0.0	3903864	TRIAL	n/a	n/a	n/a	-999	23	[0, 0, 0]	n/a	FR1	0	R1098D
2369.239	10.0	3903864	COUNTDOWN_START	n/a	n/a	n/a	-999	23	[0, 0, 0]	n/a	FR1	0	R1098D
2379.667	0.007	3920548	COUNTDOWN_END	n/a	n/a	n/a	-999	23	[0, 0, 0]	n/a	FR1	0	R1098D
2379.674	1.6	3920559	ORIENT	n/a	n/a	n/a	-999	23	[0, 0, 0]	n/a	FR1	0	R1098D
2382.108	1.6	3924453	WORD	n/a	wordpools/wordpool_EN.txt	DRUM	1	23	[0, 0, 0]	n/a	FR1	0	R1098D
2384.725	1.6	3928640	WORD	n/a	wordpools/wordpool_EN.txt	HEART	2	23	[0, 0, 0]	n/a	FR1	0	R1098D
2387.125	1.6	3932480	WORD	n/a	wordpools/wordpool_EN.txt	SWORD	3	23	[0, 0, 0]	n/a	FR1	0	R1098D
2389.626	1.6	3936481	WORD	n/a	wordpools/wordpool_EN.txt	BENCH	4	23	[0, 0, 0]	n/a	FR1	0	R1098D
2392.027	1.6	3940323	WORD	n/a	wordpools/wordpool_EN.txt	PIPE	5	23	[0, 0, 0]	n/a	FR1	0	R1098D
2394.56	1.6	3944375	WORD	n/a	wordpools/wordpool_EN.txt	FAN	6	23	[0, 0, 0]	n/a	FR1	0	R1098D
2397.128	1.6	3948484	WORD	n/a	wordpools/wordpool_EN.txt	COUCH	7	23	[0, 0, 0]	n/a	FR1	0	R1098D
2399.645	1.6	3952511	WORD	n/a	wordpools/wordpool_EN.txt	KITE	8	23	[0, 0, 0]	n/a	FR1	0	R1098D
2402.178	1.6	3956563	WORD	n/a	wordpools/wordpool_EN.txt	LIP	9	23	[0, 0, 0]	n/a	FR1	0	R1098D
2404.712	1.6	3960617	WORD	n/a	wordpools/wordpool_EN.txt	LAWN	10	23	[0, 0, 0]	n/a	FR1	0	R1098D
2407.162	1.6	3964537	WORD	n/a	wordpools/wordpool_EN.txt	FORK	11	23	[0, 0, 0]	n/a	FR1	0	R1098D
2409.546	1.6	3968351	WORD	n/a	wordpools/wordpool_EN.txt	AXE	12	23	[0, 0, 0]	n/a	FR1	0	R1098D
2411.163	0.001	3970938	DISTRACT_START	n/a	n/a	n/a	-999	23	[0, 0, 0]	n/a	FR1	0	R1098D
2411.164	0.016	3970940	START	n/a	n/a	n/a	-999	23	[-999, -999, -999]	n/a	FR1	0	R1098D
2411.18	3.617	3970965	PROB	3.584	n/a	n/a	-999	23	[5, 9, 5]	19.0	FR1	0	R1098D
2414.797	3.784	3976752	PROB	3.752	n/a	n/a	-999	23	[8, 4, 4]	16.0	FR1	0	R1098D
2418.581	4.435	3982806	PROB	4.399	n/a	n/a	-999	23	[3, 8, 7]	18.0	FR1	0	R1098D
2423.016	2.8	3989902	PROB	2.772	n/a	n/a	-999	23	[3, 6, 2]	11.0	FR1	0	R1098D
2425.816	4.984	3994382	PROB	4.948	n/a	n/a	-999	23	[3, 9, 7]	19.0	FR1	0	R1098D
2430.8	2.732	4002355	PROB	2.732	n/a	n/a	-999	23	[1, 6, 1]	8.0	FR1	0	R1098D
2433.532	0.019	4006726	STOP	n/a	n/a	n/a	-999	23	[-999, -999, -999]	n/a	FR1	0	R1098D
2433.551	1.167	4006757	DISTRACT_END	n/a	n/a	n/a	-999	23	[0, 0, 0]	n/a	FR1	0	R1098D
2434.718	3.314	4008624	REC_START	n/a	n/a	n/a	-999	23	[0, 0, 0]	n/a	FR1	0	R1098D
2438.032	1.586	4013926	REC_WORD	3.314	n/a	HEART	-999	23	[0, 0, 0]	n/a	FR1	0	R1098D
2439.618	1.62	4016463	REC_WORD	4.9	n/a	DRUM	-999	23	[0, 0, 0]	n/a	FR1	0	R1098D
2441.238	7.644	4019055	REC_WORD	6.52	n/a	PIPE	-999	23	[0, 0, 0]	n/a	FR1	0	R1098D
2448.882	15.853	4031285	REC_WORD	14.164	n/a	SWORD	-999	23	[0, 0, 0]	n/a	FR1	0	R1098D
2464.735	2.022	4056648	REC_END	n/a	n/a	n/a	-999	23	[0, 0, 0]	n/a	FR1	0	R1098D
2466.757	0.0	4059883	TRIAL	n/a	n/a	n/a	-999	24	[0, 0, 0]	n/a	FR1	0	R1098D
2466.757	10.0	4059883	COUNTDOWN_START	n/a	n/a	n/a	-999	24	[0, 0, 0]	n/a	FR1	0	R1098D
2477.185	0.007	4076567	COUNTDOWN_END	n/a	n/a	n/a	-999	24	[0, 0, 0]	n/a	FR1	0	R1098D
2477.192	1.6	4076578	ORIENT	n/a	n/a	n/a	-999	24	[0, 0, 0]	n/a	FR1	0	R1098D
2479.659	1.6	4080525	WORD	n/a	wordpools/wordpool_EN.txt	CHALK	1	24	[0, 0, 0]	n/a	FR1	0	R1098D
2482.143	1.6	4084499	WORD	n/a	wordpools/wordpool_EN.txt	ICE	2	24	[0, 0, 0]	n/a	FR1	0	R1098D
2484.527	1.6	4088313	WORD	n/a	wordpools/wordpool_EN.txt	CONE	3	24	[0, 0, 0]	n/a	FR1	0	R1098D
2486.994	1.6	4092260	WORD	n/a	wordpools/wordpool_EN.txt	WEED	4	24	[0, 0, 0]	n/a	FR1	0	R1098D
2489.444	1.6	4096180	WORD	n/a	wordpools/wordpool_EN.txt	MULE	5	24	[0, 0, 0]	n/a	FR1	0	R1098D
2492.078	1.6	4100394	WORD	n/a	wordpools/wordpool_EN.txt	TAIL	6	24	[0, 0, 0]	n/a	FR1	0	R1098D
2494.528	1.6	4104314	WORD	n/a	wordpools/wordpool_EN.txt	SNOW	7	24	[0, 0, 0]	n/a	FR1	0	R1098D
2496.979	1.6	4108235	WORD	n/a	wordpools/wordpool_EN.txt	FOG	8	24	[0, 0, 0]	n/a	FR1	0	R1098D
2499.396	1.6	4112102	WORD	n/a	wordpools/wordpool_EN.txt	SHIELD	9	24	[0, 0, 0]	n/a	FR1	0	R1098D
2501.914	1.6	4116131	WORD	n/a	wordpools/wordpool_EN.txt	PARK	10	24	[0, 0, 0]	n/a	FR1	0	R1098D
2504.447	1.6	4120183	WORD	n/a	wordpools/wordpool_EN.txt	SIGN	11	24	[0, 0, 0]	n/a	FR1	0	R1098D
2507.064	1.6	4124370	WORD	n/a	wordpools/wordpool_EN.txt	SHIRT	12	24	[0, 0, 0]	n/a	FR1	0	R1098D
2508.681	0.001	4126957	DISTRACT_START	n/a	n/a	n/a	-999	24	[0, 0, 0]	n/a	FR1	0	R1098D
2508.682	0.016	4126959	START	n/a	n/a	n/a	-999	24	[-999, -999, -999]	n/a	FR1	0	R1098D
2508.698	6.568	4126984	PROB	6.546	n/a	n/a	-999	24	[5, 6, 6]	17.0	FR1	0	R1098D
2515.266	2.934	4137492	PROB	2.906	n/a	n/a	-999	24	[6, 2, 1]	9.0	FR1	0	R1098D
2518.2	2.867	4142186	PROB	2.836	n/a	n/a	-999	24	[3, 6, 2]	11.0	FR1	0	R1098D
2521.067	7.762	4146773	PROB	7.762	n/a	n/a	-999	24	[9, 9, 5]	23.0	FR1	0	R1098D
2528.829	0.006	4159192	STOP	n/a	n/a	n/a	-999	24	[-999, -999, -999]	n/a	FR1	0	R1098D
2528.835	1.159	4159201	DISTRACT_END	n/a	n/a	n/a	-999	24	[0, 0, 0]	n/a	FR1	0	R1098D
2529.994	1.412	4161056	REC_START	n/a	n/a	n/a	-999	24	[0, 0, 0]	n/a	FR1	0	R1098D
2531.406	1.665	4163315	REC_WORD	1.412	n/a	CHALK	-999	24	[0, 0, 0]	n/a	FR1	0	R1098D
2533.071	1.466	4165979	REC_WORD	3.077	n/a	ICE	-999	24	[0, 0, 0]	n/a	FR1	0	R1098D
2534.537	1.985	4168324	REC_WORD	4.543	n/a	SNOW	-999	24	[0, 0, 0]	n/a	FR1	0	R1098D
2536.522	1.667	4171500	REC_WORD	6.528	n/a	CONE	-999	24	[0, 0, 0]	n/a	FR1	0	R1098D
2538.189	21.809	4174167	REC_WORD	8.195	n/a	MULE	-999	24	[0, 0, 0]	n/a	FR1	0	R1098D
2559.998	3.81	4209059	REC_END	n/a	n/a	n/a	-999	24	[0, 0, 0]	n/a	FR1	0	R1098D
2563.808	0.0	4215155	TRIAL	n/a	n/a	n/a	-999	25	[0, 0, 0]	n/a	FR1	0	R1098D
2563.808	10.0	4215155	COUNTDOWN_START	n/a	n/a	n/a	-999	25	[0, 0, 0]	n/a	FR1	0	R1098D
2574.236	0.007	4231838	COUNTDOWN_END	n/a	n/a	n/a	-999	25	[0, 0, 0]	n/a	FR1	0	R1098D
2574.243	1.6	4231850	ORIENT	n/a	n/a	n/a	-999	25	[0, 0, 0]	n/a	FR1	0	R1098D
2576.844	1.6	4236011	WORD	n/a	wordpools/wordpool_EN.txt	LOCK	1	25	[0, 0, 0]	n/a	FR1	0	R1098D
2579.344	1.6	4240011	WORD	n/a	wordpools/wordpool_EN.txt	VEST	2	25	[0, 0, 0]	n/a	FR1	0	R1098D
2581.795	1.6	4243932	WORD	n/a	wordpools/wordpool_EN.txt	HOUSE	3	25	[0, 0, 0]	n/a	FR1	0	R1098D
2584.345	1.6	4248012	WORD	n/a	wordpools/wordpool_EN.txt	ROOM	4	25	[0, 0, 0]	n/a	FR1	0	R1098D
2586.846	1.6	4252013	WORD	n/a	wordpools/wordpool_EN.txt	LAMB	5	25	[0, 0, 0]	n/a	FR1	0	R1098D
2589.263	1.6	4255880	WORD	n/a	wordpools/wordpool_EN.txt	ROSE	6	25	[0, 0, 0]	n/a	FR1	0	R1098D
2591.78	1.6	4259907	WORD	n/a	wordpools/wordpool_EN.txt	SKY	7	25	[0, 0, 0]	n/a	FR1	0	R1098D
2594.347	1.6	4264014	WORD	n/a	wordpools/wordpool_EN.txt	MUG	8	25	[0, 0, 0]	n/a	FR1	0	R1098D
2596.814	1.6	4267961	WORD	n/a	wordpools/wordpool_EN.txt	WALL	9	25	[0, 0, 0]	n/a	FR1	0	R1098D
2599.348	1.6	4272015	WORD	n/a	wordpools/wordpool_EN.txt	TEA	10	25	[0, 0, 0]	n/a	FR1	0	R1098D
2601.949	1.6	4276176	WORD	n/a	wordpools/wordpool_EN.txt	HOOF	11	25	[0, 0, 0]	n/a	FR1	0	R1098D
2604.499	1.6	4280256	WORD	n/a	wordpools/wordpool_EN.txt	BOWL	12	25	[0, 0, 0]	n/a	FR1	0	R1098D
2606.116	0.001	4282843	DISTRACT_START	n/a	n/a	n/a	-999	25	[0, 0, 0]	n/a	FR1	0	R1098D
2606.117	0.016	4282845	START	n/a	n/a	n/a	-999	25	[-999, -999, -999]	n/a	FR1	0	R1098D
2606.133	4.818	4282870	PROB	4.792	n/a	n/a	-999	25	[8, 7, 5]	20.0	FR1	0	R1098D
2610.951	3.466	4290579	PROB	3.438	n/a	n/a	-999	25	[6, 6, 7]	19.0	FR1	0	R1098D
2614.417	3.401	4296124	PROB	3.371	n/a	n/a	-999	25	[5, 6, 5]	16.0	FR1	0	R1098D
2617.818	4.684	4301565	PROB	4.65	n/a	n/a	-999	25	[7, 2, 1]	10.0	FR1	0	R1098D
2622.502	3.974	4309059	PROB	3.974	n/a	n/a	-999	25	[4, 4, 8]	16.0	FR1	0	R1098D
2626.476	0.01	4315417	STOP	n/a	n/a	n/a	-999	25	[-999, -999, -999]	n/a	FR1	0	R1098D
2626.486	1.035	4315433	DISTRACT_END	n/a	n/a	n/a	-999	25	[0, 0, 0]	n/a	FR1	0	R1098D
2627.521	2.239	4317089	REC_START	n/a	n/a	n/a	-999	25	[0, 0, 0]	n/a	FR1	0	R1098D
2629.76	1.885	4320671	REC_WORD	2.239	n/a	LOCK	-999	25	[0, 0, 0]	n/a	FR1	0	R1098D
2631.645	3.343	4323687	REC_WORD	4.124	n/a	ROOM	-999	25	[0, 0, 0]	n/a	FR1	0	R1098D
2634.988	1.681	4329035	REC_WORD	7.467	n/a	ROSE	-999	25	[0, 0, 0]	n/a	FR1	0	R1098D
2636.669	1.724	4331725	REC_WORD	9.148	n/a	VEST	-999	25	[0, 0, 0]	n/a	FR1	0	R1098D
2638.393	2.161	4334483	REC_WORD	10.872	n/a	MUG	-999	25	[0, 0, 0]	n/a	FR1	0	R1098D
2640.554	16.979	4337940	REC_WORD	13.033	n/a	WALL	-999	25	[0, 0, 0]	n/a	FR1	0	R1098D
2657.533	19.679	4365105	REC_END	n/a	n/a	n/a	-999	25	[0, 0, 0]	n/a	FR1	0	R1098D
2677.212	0.0	4396589	SESS_END	n/a	n/a	n/a	-999	25	[0, 0, 0]	n/a	FR1	0	R1098D
