onset	duration	sample	trial_type	response_time	stim_file	item_name	serialpos	list	test	answer	experiment	session	subject
0.0	18.205	-1	SESS_START	n/a	n/a	n/a	-999	-999	[0, 0, 0]	n/a	FR1	2	R1137E
18.205	10.0	9099	COUNTDOWN_START	n/a	n/a	n/a	-999	-999	[0, 0, 0]	n/a	FR1	2	R1137E
28.633	3.674	14312	COUNTDOWN_END	n/a	n/a	n/a	-999	-999	[0, 0, 0]	n/a	FR1	2	R1137E
32.307	1.6	16149	PRACTICE_WORD	n/a	n/a	RHINO	1	-1	[0, 0, 0]	n/a	FR1	2	R1137E
34.709	1.6	17350	PRACTICE_WORD	n/a	n/a	CAMEL	2	-1	[0, 0, 0]	n/a	FR1	2	R1137E
37.109	1.6	18550	PRACTICE_WORD	n/a	n/a	WATCH	3	-1	[0, 0, 0]	n/a	FR1	2	R1137E
39.726	1.6	19859	PRACTICE_WORD	n/a	n/a	WAGON	4	-1	[0, 0, 0]	n/a	FR1	2	R1137E
42.209	1.6	21100	PRACTICE_WORD	n/a	n/a	BEAM	5	-1	[0, 0, 0]	n/a	FR1	2	R1137E
44.627	1.6	22309	PRACTICE_WORD	n/a	n/a	FLOOD	6	-1	[0, 0, 0]	n/a	FR1	2	R1137E
47.226	1.6	23608	PRACTICE_WORD	n/a	n/a	TONGUE	7	-1	[0, 0, 0]	n/a	FR1	2	R1137E
49.828	1.6	24909	PRACTICE_WORD	n/a	n/a	CHEST	8	-1	[0, 0, 0]	n/a	FR1	2	R1137E
52.361	1.6	26176	PRACTICE_WORD	n/a	n/a	COTTON	9	-1	[0, 0, 0]	n/a	FR1	2	R1137E
54.962	1.6	27476	PRACTICE_WORD	n/a	n/a	IRON	10	-1	[0, 0, 0]	n/a	FR1	2	R1137E
57.579	1.6	28785	PRACTICE_WORD	n/a	n/a	ATTIC	11	-1	[0, 0, 0]	n/a	FR1	2	R1137E
59.996	1.6	29993	PRACTICE_WORD	n/a	n/a	RING	12	-1	[0, 0, 0]	n/a	FR1	2	R1137E
61.613	0.001	30802	PRACTICE_DISTRACT_START	n/a	n/a	n/a	-999	-1	[0, 0, 0]	n/a	FR1	2	R1137E
61.614	0.016	30802	START	n/a	n/a	n/a	-999	-1	[-999, -999, -999]	n/a	FR1	2	R1137E
61.63	2.417	30810	PROB	2.395	n/a	n/a	-999	-1	[1, 5, 6]	12.0	FR1	2	R1137E
64.047	7.635	32019	PROB	7.614	n/a	n/a	-999	-1	[7, 6, 9]	22.0	FR1	2	R1137E
71.682	5.716	35836	PROB	5.684	n/a	n/a	-999	-1	[4, 3, 5]	12.0	FR1	2	R1137E
77.398	2.202	38694	PROB	2.177	n/a	n/a	-999	-1	[9, 7, 1]	17.0	FR1	2	R1137E
79.6	1.867	39795	PROB	1.831	n/a	n/a	-999	-1	[9, 1, 4]	14.0	FR1	2	R1137E
81.467	2.907	40728	PROB	2.907	n/a	n/a	-999	-1	[7, 7, 8]	22.0	FR1	2	R1137E
84.374	0.009	42181	STOP	n/a	n/a	n/a	-999	-1	[-999, -999, -999]	n/a	FR1	2	R1137E
84.383	0.552	42186	PRACTICE_DISTRACT_END	n/a	n/a	n/a	-999	-1	[0, 0, 0]	n/a	FR1	2	R1137E
84.935	30.516	42462	PRACTICE_REC_START	n/a	n/a	n/a	-999	-1	[0, 0, 0]	n/a	FR1	2	R1137E
115.451	3.606	57719	PRACTICE_REC_END	n/a	n/a	n/a	-999	-1	[0, 0, 0]	n/a	FR1	2	R1137E
119.057	10.0	59522	COUNTDOWN_START	n/a	n/a	n/a	-999	1	[0, 0, 0]	n/a	FR1	2	R1137E
119.057	10.428	59522	TRIAL	n/a	n/a	n/a	-999	1	[0, 0, 0]	n/a	FR1	2	R1137E
129.485	0.007	64736	COUNTDOWN_END	n/a	n/a	n/a	-999	1	[0, 0, 0]	n/a	FR1	2	R1137E
129.492	1.6	64739	ORIENT	n/a	n/a	n/a	-999	1	[0, 0, 0]	n/a	FR1	2	R1137E
131.975	1.6	65981	WORD	n/a	wordpools/wordpool_EN.txt	ROOT	1	1	[0, 0, 0]	n/a	FR1	2	R1137E
134.526	1.6	67256	WORD	n/a	wordpools/wordpool_EN.txt	TREE	2	1	[0, 0, 0]	n/a	FR1	2	R1137E
137.043	1.6	68514	WORD	n/a	wordpools/wordpool_EN.txt	POOL	3	1	[0, 0, 0]	n/a	FR1	2	R1137E
139.594	1.6	69790	WORD	n/a	wordpools/wordpool_EN.txt	DART	4	1	[0, 0, 0]	n/a	FR1	2	R1137E
142.194	1.6	71090	WORD	n/a	wordpools/wordpool_EN.txt	RICE	5	1	[0, 0, 0]	n/a	FR1	2	R1137E
144.761	1.6	72373	WORD	n/a	wordpools/wordpool_EN.txt	LEAF	6	1	[0, 0, 0]	n/a	FR1	2	R1137E
147.394	1.6	73690	WORD	n/a	wordpools/wordpool_EN.txt	OAK	7	1	[0, 0, 0]	n/a	FR1	2	R1137E
149.945	1.6	74965	WORD	n/a	wordpools/wordpool_EN.txt	STEM	8	1	[0, 0, 0]	n/a	FR1	2	R1137E
152.546	1.6	76266	WORD	n/a	wordpools/wordpool_EN.txt	SEED	9	1	[0, 0, 0]	n/a	FR1	2	R1137E
155.096	1.6	77540	WORD	n/a	wordpools/wordpool_EN.txt	LAMB	10	1	[0, 0, 0]	n/a	FR1	2	R1137E
157.647	1.6	78816	WORD	n/a	wordpools/wordpool_EN.txt	MUG	11	1	[0, 0, 0]	n/a	FR1	2	R1137E
160.279	1.6	80132	WORD	n/a	wordpools/wordpool_EN.txt	TEA	12	1	[0, 0, 0]	n/a	FR1	2	R1137E
161.88	0.001	80932	DISTRACT_START	n/a	n/a	n/a	-999	1	[0, 0, 0]	n/a	FR1	2	R1137E
161.881	0.016	80933	START	n/a	n/a	n/a	-999	1	[-999, -999, -999]	n/a	FR1	2	R1137E
161.897	2.767	80941	PROB	2.744	n/a	n/a	-999	1	[7, 4, 1]	12.0	FR1	2	R1137E
164.664	1.367	82324	PROB	1.345	n/a	n/a	-999	1	[9, 4, 1]	14.0	FR1	2	R1137E
166.031	3.151	83008	PROB	3.13	n/a	n/a	-999	1	[5, 3, 8]	16.0	FR1	2	R1137E
169.182	2.6	84583	PROB	2.579	n/a	n/a	-999	1	[5, 3, 6]	14.0	FR1	2	R1137E
171.782	4.751	85883	PROB	4.717	n/a	n/a	-999	1	[9, 8, 8]	25.0	FR1	2	R1137E
176.533	2.984	88258	PROB	2.958	n/a	n/a	-999	1	[5, 4, 3]	12.0	FR1	2	R1137E
179.517	3.781	89750	PROB	3.781	n/a	n/a	-999	1	[3, 7, 9]	19.0	FR1	2	R1137E
183.298	0.019	91641	STOP	n/a	n/a	n/a	-999	1	[-999, -999, -999]	n/a	FR1	2	R1137E
183.317	1.107	91650	DISTRACT_END	n/a	n/a	n/a	-999	1	[0, 0, 0]	n/a	FR1	2	R1137E
184.424	2.438	92204	REC_START	n/a	n/a	n/a	-999	1	[0, 0, 0]	n/a	FR1	2	R1137E
186.862	1.085	93423	REC_WORD	2.438	n/a	OAK	-999	1	[0, 0, 0]	n/a	FR1	2	R1137E
187.947	6.752	93965	REC_WORD	3.523	n/a	WOOD	-999	1	[0, 0, 0]	n/a	FR1	2	R1137E
194.699	3.121	97341	REC_WORD	10.275	n/a	RING	-999	1	[0, 0, 0]	n/a	FR1	2	R1137E
197.82	1.762	98901	REC_WORD	13.396	n/a	STEM	-999	1	[0, 0, 0]	n/a	FR1	2	R1137E
199.582	2.184	99782	REC_WORD	15.158	n/a	LEAF	-999	1	[0, 0, 0]	n/a	FR1	2	R1137E
201.766	4.292	100874	REC_WORD	17.342	n/a	TREE	-999	1	[0, 0, 0]	n/a	FR1	2	R1137E
206.058	5.156	103020	REC_WORD	21.634	n/a	ROOT	-999	1	[0, 0, 0]	n/a	FR1	2	R1137E
211.214	3.216	105598	REC_WORD	26.79	n/a	MUG	-999	1	[0, 0, 0]	n/a	FR1	2	R1137E
214.43	2.377	107206	REC_END	n/a	n/a	n/a	-999	1	[0, 0, 0]	n/a	FR1	2	R1137E
216.807	0.0	108394	TRIAL	n/a	n/a	n/a	-999	2	[0, 0, 0]	n/a	FR1	2	R1137E
216.807	10.0	108394	COUNTDOWN_START	n/a	n/a	n/a	-999	2	[0, 0, 0]	n/a	FR1	2	R1137E
227.235	0.006	113608	COUNTDOWN_END	n/a	n/a	n/a	-999	2	[0, 0, 0]	n/a	FR1	2	R1137E
227.241	1.6	113611	ORIENT	n/a	n/a	n/a	-999	2	[0, 0, 0]	n/a	FR1	2	R1137E
229.759	1.6	114870	WORD	n/a	wordpools/wordpool_EN.txt	POND	1	2	[0, 0, 0]	n/a	FR1	2	R1137E
232.259	1.6	116120	WORD	n/a	wordpools/wordpool_EN.txt	STRAW	2	2	[0, 0, 0]	n/a	FR1	2	R1137E
234.86	1.6	117420	WORD	n/a	wordpools/wordpool_EN.txt	SLUSH	3	2	[0, 0, 0]	n/a	FR1	2	R1137E
237.243	1.6	118612	WORD	n/a	wordpools/wordpool_EN.txt	CAGE	4	2	[0, 0, 0]	n/a	FR1	2	R1137E
239.828	1.6	119904	WORD	n/a	wordpools/wordpool_EN.txt	VASE	5	2	[0, 0, 0]	n/a	FR1	2	R1137E
242.277	1.6	121129	WORD	n/a	wordpools/wordpool_EN.txt	SINK	6	2	[0, 0, 0]	n/a	FR1	2	R1137E
244.778	1.6	122379	WORD	n/a	wordpools/wordpool_EN.txt	JAR	7	2	[0, 0, 0]	n/a	FR1	2	R1137E
247.228	1.6	123604	WORD	n/a	wordpools/wordpool_EN.txt	SEAL	8	2	[0, 0, 0]	n/a	FR1	2	R1137E
249.779	1.6	124879	WORD	n/a	wordpools/wordpool_EN.txt	GEESE	9	2	[0, 0, 0]	n/a	FR1	2	R1137E
252.312	1.6	126146	WORD	n/a	wordpools/wordpool_EN.txt	HAT	10	2	[0, 0, 0]	n/a	FR1	2	R1137E
254.714	1.6	127347	WORD	n/a	wordpools/wordpool_EN.txt	BOX	11	2	[0, 0, 0]	n/a	FR1	2	R1137E
257.246	1.6	128613	WORD	n/a	wordpools/wordpool_EN.txt	PET	12	2	[0, 0, 0]	n/a	FR1	2	R1137E
258.847	0.001	129413	DISTRACT_START	n/a	n/a	n/a	-999	2	[0, 0, 0]	n/a	FR1	2	R1137E
258.848	0.016	129414	START	n/a	n/a	n/a	-999	2	[-999, -999, -999]	n/a	FR1	2	R1137E
258.864	3.801	129422	PROB	3.774	n/a	n/a	-999	2	[2, 9, 8]	19.0	FR1	2	R1137E
262.665	2.184	131322	PROB	2.149	n/a	n/a	-999	2	[1, 5, 3]	9.0	FR1	2	R1137E
264.849	3.217	132414	PROB	3.196	n/a	n/a	-999	2	[7, 1, 3]	11.0	FR1	2	R1137E
268.066	1.95	134022	PROB	1.916	n/a	n/a	-999	2	[1, 1, 8]	10.0	FR1	2	R1137E
270.016	2.967	134997	PROB	2.941	n/a	n/a	-999	2	[3, 7, 7]	17.0	FR1	2	R1137E
272.983	1.501	136481	PROB	1.478	n/a	n/a	-999	2	[2, 9, 1]	12.0	FR1	2	R1137E
274.484	3.184	137231	PROB	3.154	n/a	n/a	-999	2	[5, 9, 5]	19.0	FR1	2	R1137E
277.668	2.409	138823	PROB	2.409	n/a	n/a	-999	2	[1, 8, 2]	11.0	FR1	2	R1137E
280.077	0.008	140028	STOP	n/a	n/a	n/a	-999	2	[-999, -999, -999]	n/a	FR1	2	R1137E
280.085	1.199	140032	DISTRACT_END	n/a	n/a	n/a	-999	2	[0, 0, 0]	n/a	FR1	2	R1137E
281.284	1.751	140631	REC_START	n/a	n/a	n/a	-999	2	[0, 0, 0]	n/a	FR1	2	R1137E
283.035	1.423	141506	REC_WORD	1.751	n/a	SEAL	-999	2	[0, 0, 0]	n/a	FR1	2	R1137E
284.458	5.067	142218	REC_WORD	3.174	n/a	POND	-999	2	[0, 0, 0]	n/a	FR1	2	R1137E
289.525	3.075	144751	REC_WORD	8.241	n/a	SLUSH	-999	2	[0, 0, 0]	n/a	FR1	2	R1137E
292.6	4.433	146289	REC_WORD	11.316	n/a	BOX	-999	2	[0, 0, 0]	n/a	FR1	2	R1137E
297.033	5.953	148505	REC_WORD	15.749	n/a	HAT	-999	2	[0, 0, 0]	n/a	FR1	2	R1137E
302.986	8.31	151481	REC_WORD	21.702	n/a	MUD	-999	2	[0, 0, 0]	n/a	FR1	2	R1137E
311.296	1.761	155636	REC_END	n/a	n/a	n/a	-999	2	[0, 0, 0]	n/a	FR1	2	R1137E
313.057	0.0	156517	TRIAL	n/a	n/a	n/a	-999	3	[0, 0, 0]	n/a	FR1	2	R1137E
313.057	10.0	156517	COUNTDOWN_START	n/a	n/a	n/a	-999	3	[0, 0, 0]	n/a	FR1	2	R1137E
323.485	0.007	161730	COUNTDOWN_END	n/a	n/a	n/a	-999	3	[0, 0, 0]	n/a	FR1	2	R1137E
323.492	1.6	161734	ORIENT	n/a	n/a	n/a	-999	3	[0, 0, 0]	n/a	FR1	2	R1137E
326.059	1.6	163017	WORD	n/a	wordpools/wordpool_EN.txt	FORT	1	3	[0, 0, 0]	n/a	FR1	2	R1137E
328.676	1.6	164326	WORD	n/a	wordpools/wordpool_EN.txt	ZOO	2	3	[0, 0, 0]	n/a	FR1	2	R1137E
331.209	1.6	165592	WORD	n/a	wordpools/wordpool_EN.txt	SHARK	3	3	[0, 0, 0]	n/a	FR1	2	R1137E
333.727	1.6	166851	WORD	n/a	wordpools/wordpool_EN.txt	ROCK	4	3	[0, 0, 0]	n/a	FR1	2	R1137E
336.111	1.6	168043	WORD	n/a	wordpools/wordpool_EN.txt	SAIL	5	3	[0, 0, 0]	n/a	FR1	2	R1137E
338.728	1.6	169351	WORD	n/a	wordpools/wordpool_EN.txt	BEACH	6	3	[0, 0, 0]	n/a	FR1	2	R1137E
341.344	1.6	170659	WORD	n/a	wordpools/wordpool_EN.txt	FLAG	7	3	[0, 0, 0]	n/a	FR1	2	R1137E
343.929	1.6	171952	WORD	n/a	wordpools/wordpool_EN.txt	FUR	8	3	[0, 0, 0]	n/a	FR1	2	R1137E
346.53	1.6	173252	WORD	n/a	wordpools/wordpool_EN.txt	DOG	9	3	[0, 0, 0]	n/a	FR1	2	R1137E
349.097	1.6	174536	WORD	n/a	wordpools/wordpool_EN.txt	FLEA	10	3	[0, 0, 0]	n/a	FR1	2	R1137E
351.697	1.6	175836	WORD	n/a	wordpools/wordpool_EN.txt	JAIL	11	3	[0, 0, 0]	n/a	FR1	2	R1137E
354.313	1.6	177143	WORD	n/a	wordpools/wordpool_EN.txt	TRASH	12	3	[0, 0, 0]	n/a	FR1	2	R1137E
355.914	0.001	177944	DISTRACT_START	n/a	n/a	n/a	-999	3	[0, 0, 0]	n/a	FR1	2	R1137E
355.915	0.016	177944	START	n/a	n/a	n/a	-999	3	[-999, -999, -999]	n/a	FR1	2	R1137E
355.931	3.3	177952	PROB	3.279	n/a	n/a	-999	3	[6, 3, 9]	18.0	FR1	2	R1137E
359.231	2.568	179602	PROB	2.532	n/a	n/a	-999	3	[4, 1, 5]	10.0	FR1	2	R1137E
361.799	4.55	180886	PROB	4.516	n/a	n/a	-999	3	[9, 8, 7]	24.0	FR1	2	R1137E
366.349	4.235	183161	PROB	4.214	n/a	n/a	-999	3	[8, 8, 7]	23.0	FR1	2	R1137E
370.584	2.984	185279	PROB	2.963	n/a	n/a	-999	3	[5, 1, 3]	9.0	FR1	2	R1137E
373.568	2.133	186770	PROB	2.107	n/a	n/a	-999	3	[3, 2, 3]	8.0	FR1	2	R1137E
375.701	3.246	187837	PROB	3.246	n/a	n/a	-999	3	[3, 6, 3]	12.0	FR1	2	R1137E
378.947	0.005	189460	STOP	n/a	n/a	n/a	-999	3	[-999, -999, -999]	n/a	FR1	2	R1137E
378.952	1.05	189462	DISTRACT_END	n/a	n/a	n/a	-999	3	[0, 0, 0]	n/a	FR1	2	R1137E
380.002	1.307	189987	REC_START	n/a	n/a	n/a	-999	3	[0, 0, 0]	n/a	FR1	2	R1137E
381.309	0.77	190641	REC_WORD	1.307	n/a	ZOO	-999	3	[0, 0, 0]	n/a	FR1	2	R1137E
382.079	1.048	191026	REC_WORD	2.077	n/a	SHARK	-999	3	[0, 0, 0]	n/a	FR1	2	R1137E
383.127	0.786	191550	REC_WORD	3.125	n/a	DOG	-999	3	[0, 0, 0]	n/a	FR1	2	R1137E
383.913	1.393	191943	REC_WORD	3.911	n/a	FLEA	-999	3	[0, 0, 0]	n/a	FR1	2	R1137E
385.306	0.854	192639	REC_WORD	5.304	n/a	BOX	-999	3	[0, 0, 0]	n/a	FR1	2	R1137E
386.16	7.352	193066	REC_WORD	6.158	n/a	TRASH	-999	3	[0, 0, 0]	n/a	FR1	2	R1137E
393.512	10.414	196742	REC_WORD	13.51	n/a	FORT	-999	3	[0, 0, 0]	n/a	FR1	2	R1137E
403.926	6.089	201949	REC_WORD	23.924	n/a	SAIL	-999	3	[0, 0, 0]	n/a	FR1	2	R1137E
410.015	1.693	204993	REC_END	n/a	n/a	n/a	-999	3	[0, 0, 0]	n/a	FR1	2	R1137E
411.708	0.0	205839	TRIAL	n/a	n/a	n/a	-999	4	[0, 0, 0]	n/a	FR1	2	R1137E
411.708	10.0	205839	COUNTDOWN_START	n/a	n/a	n/a	-999	4	[0, 0, 0]	n/a	FR1	2	R1137E
422.136	0.007	211053	COUNTDOWN_END	n/a	n/a	n/a	-999	4	[0, 0, 0]	n/a	FR1	2	R1137E
422.143	1.6	211057	ORIENT	n/a	n/a	n/a	-999	4	[0, 0, 0]	n/a	FR1	2	R1137E
424.61	1.6	212290	WORD	n/a	wordpools/wordpool_EN.txt	FARM	1	4	[0, 0, 0]	n/a	FR1	2	R1137E
427.144	1.6	213557	WORD	n/a	wordpools/wordpool_EN.txt	LAKE	2	4	[0, 0, 0]	n/a	FR1	2	R1137E
429.744	1.6	214857	WORD	n/a	wordpools/wordpool_EN.txt	SNOW	3	4	[0, 0, 0]	n/a	FR1	2	R1137E
432.161	1.6	216065	WORD	n/a	wordpools/wordpool_EN.txt	RAKE	4	4	[0, 0, 0]	n/a	FR1	2	R1137E
434.645	1.6	217307	WORD	n/a	wordpools/wordpool_EN.txt	CALF	5	4	[0, 0, 0]	n/a	FR1	2	R1137E
437.029	1.6	218499	WORD	n/a	wordpools/wordpool_EN.txt	SPRING	6	4	[0, 0, 0]	n/a	FR1	2	R1137E
439.462	1.6	219716	WORD	n/a	wordpools/wordpool_EN.txt	GRASS	7	4	[0, 0, 0]	n/a	FR1	2	R1137E
442.063	1.6	221016	WORD	n/a	wordpools/wordpool_EN.txt	SKUNK	8	4	[0, 0, 0]	n/a	FR1	2	R1137E
444.613	1.6	222291	WORD	n/a	wordpools/wordpool_EN.txt	WOOD	9	4	[0, 0, 0]	n/a	FR1	2	R1137E
447.13	1.6	223549	WORD	n/a	wordpools/wordpool_EN.txt	SIGN	10	4	[0, 0, 0]	n/a	FR1	2	R1137E
449.748	1.6	224858	WORD	n/a	wordpools/wordpool_EN.txt	ELF	11	4	[0, 0, 0]	n/a	FR1	2	R1137E
452.314	1.6	226141	WORD	n/a	wordpools/wordpool_EN.txt	MOTH	12	4	[0, 0, 0]	n/a	FR1	2	R1137E
453.932	0.0	226950	DISTRACT_START	n/a	n/a	n/a	-999	4	[0, 0, 0]	n/a	FR1	2	R1137E
453.932	0.016	226950	START	n/a	n/a	n/a	-999	4	[-999, -999, -999]	n/a	FR1	2	R1137E
453.948	2.734	226958	PROB	2.705	n/a	n/a	-999	4	[1, 6, 1]	8.0	FR1	2	R1137E
456.682	3.917	228325	PROB	3.891	n/a	n/a	-999	4	[4, 2, 6]	12.0	FR1	2	R1137E
460.599	2.267	230284	PROB	2.237	n/a	n/a	-999	4	[4, 2, 2]	8.0	FR1	2	R1137E
462.866	2.884	231417	PROB	2.85	n/a	n/a	-999	4	[7, 6, 3]	16.0	FR1	2	R1137E
465.75	3.284	232859	PROB	3.254	n/a	n/a	-999	4	[4, 6, 1]	11.0	FR1	2	R1137E
469.034	1.651	234501	PROB	1.618	n/a	n/a	-999	4	[2, 2, 8]	12.0	FR1	2	R1137E
470.685	1.95	235326	PROB	1.928	n/a	n/a	-999	4	[1, 2, 1]	4.0	FR1	2	R1137E
472.635	2.624	236301	PROB	2.624	n/a	n/a	-999	4	[6, 1, 5]	12.0	FR1	2	R1137E
475.259	0.009	237613	STOP	n/a	n/a	n/a	-999	4	[-999, -999, -999]	n/a	FR1	2	R1137E
475.268	1.134	237618	DISTRACT_END	n/a	n/a	n/a	-999	4	[0, 0, 0]	n/a	FR1	2	R1137E
476.402	1.459	238185	REC_START	n/a	n/a	n/a	-999	4	[0, 0, 0]	n/a	FR1	2	R1137E
477.861	1.376	238914	REC_WORD	1.459	n/a	FARM	-999	4	[0, 0, 0]	n/a	FR1	2	R1137E
479.237	1.601	239602	REC_WORD	2.835	n/a	LAKE	-999	4	[0, 0, 0]	n/a	FR1	2	R1137E
480.838	4.097	240402	REC_WORD	4.436	n/a	WOOD	-999	4	[0, 0, 0]	n/a	FR1	2	R1137E
484.935	1.516	242451	REC_WORD	8.533	n/a	MOTH	-999	4	[0, 0, 0]	n/a	FR1	2	R1137E
486.451	1.299	243209	REC_WORD	10.049	n/a	FLEA	-999	4	[0, 0, 0]	n/a	FR1	2	R1137E
487.75	5.877	243858	REC_WORD	11.348	n/a	DOG	-999	4	[0, 0, 0]	n/a	FR1	2	R1137E
493.627	4.091	246797	REC_WORD	17.225	n/a	RAKE	-999	4	[0, 0, 0]	n/a	FR1	2	R1137E
497.718	2.099	248842	REC_WORD	21.316	n/a	SNOW	-999	4	[0, 0, 0]	n/a	FR1	2	R1137E
499.817	6.593	249891	REC_WORD	23.415	n/a	SPRING	-999	4	[0, 0, 0]	n/a	FR1	2	R1137E
506.41	1.83	253188	REC_END	n/a	n/a	n/a	-999	4	[0, 0, 0]	n/a	FR1	2	R1137E
508.24	0.0	254103	TRIAL	n/a	n/a	n/a	-999	5	[0, 0, 0]	n/a	FR1	2	R1137E
508.24	10.0	254103	COUNTDOWN_START	n/a	n/a	n/a	-999	5	[0, 0, 0]	n/a	FR1	2	R1137E
518.668	0.008	259316	COUNTDOWN_END	n/a	n/a	n/a	-999	5	[0, 0, 0]	n/a	FR1	2	R1137E
518.676	1.6	259320	ORIENT	n/a	n/a	n/a	-999	5	[0, 0, 0]	n/a	FR1	2	R1137E
521.143	1.6	260554	WORD	n/a	wordpools/wordpool_EN.txt	NOSE	1	5	[0, 0, 0]	n/a	FR1	2	R1137E
523.61	1.6	261787	WORD	n/a	wordpools/wordpool_EN.txt	TAIL	2	5	[0, 0, 0]	n/a	FR1	2	R1137E
526.21	1.6	263087	WORD	n/a	wordpools/wordpool_EN.txt	PIT	3	5	[0, 0, 0]	n/a	FR1	2	R1137E
528.744	1.6	264354	WORD	n/a	wordpools/wordpool_EN.txt	PRINCE	4	5	[0, 0, 0]	n/a	FR1	2	R1137E
531.328	1.6	265646	WORD	n/a	wordpools/wordpool_EN.txt	MOUSE	5	5	[0, 0, 0]	n/a	FR1	2	R1137E
533.812	1.6	266888	WORD	n/a	wordpools/wordpool_EN.txt	SHIELD	6	5	[0, 0, 0]	n/a	FR1	2	R1137E
536.196	1.6	268080	WORD	n/a	wordpools/wordpool_EN.txt	ARM	7	5	[0, 0, 0]	n/a	FR1	2	R1137E
538.68	1.6	269322	WORD	n/a	wordpools/wordpool_EN.txt	TOE	8	5	[0, 0, 0]	n/a	FR1	2	R1137E
541.097	1.6	270530	WORD	n/a	wordpools/wordpool_EN.txt	WALL	9	5	[0, 0, 0]	n/a	FR1	2	R1137E
543.514	1.6	271739	WORD	n/a	wordpools/wordpool_EN.txt	SPEAR	10	5	[0, 0, 0]	n/a	FR1	2	R1137E
546.114	1.6	273039	WORD	n/a	wordpools/wordpool_EN.txt	HOOF	11	5	[0, 0, 0]	n/a	FR1	2	R1137E
548.531	1.6	274247	WORD	n/a	wordpools/wordpool_EN.txt	LAWN	12	5	[0, 0, 0]	n/a	FR1	2	R1137E
550.148	0.001	275056	DISTRACT_START	n/a	n/a	n/a	-999	5	[0, 0, 0]	n/a	FR1	2	R1137E
550.149	0.016	275056	START	n/a	n/a	n/a	-999	5	[-999, -999, -999]	n/a	FR1	2	R1137E
550.165	2.367	275064	PROB	2.332	n/a	n/a	-999	5	[1, 1, 2]	4.0	FR1	2	R1137E
552.532	2.034	276247	PROB	2.005	n/a	n/a	-999	5	[1, 3, 1]	5.0	FR1	2	R1137E
554.566	2.666	277264	PROB	2.634	n/a	n/a	-999	5	[6, 7, 3]	16.0	FR1	2	R1137E
557.232	2.701	278597	PROB	2.665	n/a	n/a	-999	5	[4, 2, 5]	11.0	FR1	2	R1137E
559.933	3.668	279948	PROB	3.644	n/a	n/a	-999	5	[5, 9, 9]	23.0	FR1	2	R1137E
563.601	2.699	281782	PROB	2.679	n/a	n/a	-999	5	[8, 4, 6]	18.0	FR1	2	R1137E
566.3	2.702	283131	PROB	2.669	n/a	n/a	-999	5	[8, 3, 7]	18.0	FR1	2	R1137E
569.002	3.055	284482	PROB	3.055	n/a	n/a	-999	5	[3, 3, 8]	14.0	FR1	2	R1137E
572.057	0.012	286009	STOP	n/a	n/a	n/a	-999	5	[-999, -999, -999]	n/a	FR1	2	R1137E
572.069	1.084	286015	DISTRACT_END	n/a	n/a	n/a	-999	5	[0, 0, 0]	n/a	FR1	2	R1137E
573.153	1.1	286557	REC_START	n/a	n/a	n/a	-999	5	[0, 0, 0]	n/a	FR1	2	R1137E
574.253	0.824	287107	REC_WORD	1.1	n/a	NOSE	-999	5	[0, 0, 0]	n/a	FR1	2	R1137E
575.077	1.133	287519	REC_WORD	1.924	n/a	SPEAR	-999	5	[0, 0, 0]	n/a	FR1	2	R1137E
576.21	1.654	288086	REC_WORD	3.057	n/a	TAIL	-999	5	[0, 0, 0]	n/a	FR1	2	R1137E
577.864	2.644	288913	REC_WORD	4.711	n/a	RING	-999	5	[0, 0, 0]	n/a	FR1	2	R1137E
580.508	22.653	290235	REC_WORD	7.355	n/a	LAWN	-999	5	[0, 0, 0]	n/a	FR1	2	R1137E
603.161	28.268	301561	REC_END	n/a	n/a	n/a	-999	5	[0, 0, 0]	n/a	FR1	2	R1137E
631.429	10.0	315694	COUNTDOWN_START	n/a	n/a	n/a	-999	6	[0, 0, 0]	n/a	FR1	2	R1137E
631.43	10.427	315694	TRIAL	n/a	n/a	n/a	-999	6	[0, 0, 0]	n/a	FR1	2	R1137E
641.857	0.007	320908	COUNTDOWN_END	n/a	n/a	n/a	-999	6	[0, 0, 0]	n/a	FR1	2	R1137E
641.864	1.6	320911	ORIENT	n/a	n/a	n/a	-999	6	[0, 0, 0]	n/a	FR1	2	R1137E
644.414	1.6	322186	WORD	n/a	wordpools/wordpool_EN.txt	WOLF	1	6	[0, 0, 0]	n/a	FR1	2	R1137E
646.899	1.6	323428	WORD	n/a	wordpools/wordpool_EN.txt	SHEEP	2	6	[0, 0, 0]	n/a	FR1	2	R1137E
649.398	1.6	324678	WORD	n/a	wordpools/wordpool_EN.txt	RUG	3	6	[0, 0, 0]	n/a	FR1	2	R1137E
651.916	1.6	325937	WORD	n/a	wordpools/wordpool_EN.txt	SPARK	4	6	[0, 0, 0]	n/a	FR1	2	R1137E
654.332	1.6	327145	WORD	n/a	wordpools/wordpool_EN.txt	SUN	5	6	[0, 0, 0]	n/a	FR1	2	R1137E
656.884	1.6	328421	WORD	n/a	wordpools/wordpool_EN.txt	CONE	6	6	[0, 0, 0]	n/a	FR1	2	R1137E
659.267	1.6	329612	WORD	n/a	wordpools/wordpool_EN.txt	ICE	7	6	[0, 0, 0]	n/a	FR1	2	R1137E
661.835	1.6	330896	WORD	n/a	wordpools/wordpool_EN.txt	WHALE	8	6	[0, 0, 0]	n/a	FR1	2	R1137E
664.351	1.6	332154	WORD	n/a	wordpools/wordpool_EN.txt	NAIL	9	6	[0, 0, 0]	n/a	FR1	2	R1137E
666.752	1.6	333354	WORD	n/a	wordpools/wordpool_EN.txt	CLIFF	10	6	[0, 0, 0]	n/a	FR1	2	R1137E
669.268	1.6	334612	WORD	n/a	wordpools/wordpool_EN.txt	JEEP	11	6	[0, 0, 0]	n/a	FR1	2	R1137E
671.72	1.6	335838	WORD	n/a	wordpools/wordpool_EN.txt	CROW	12	6	[0, 0, 0]	n/a	FR1	2	R1137E
673.336	0.0	336646	DISTRACT_START	n/a	n/a	n/a	-999	6	[0, 0, 0]	n/a	FR1	2	R1137E
673.336	0.016	336646	START	n/a	n/a	n/a	-999	6	[-999, -999, -999]	n/a	FR1	2	R1137E
673.352	3.085	336654	PROB	3.061	n/a	n/a	-999	6	[3, 9, 3]	15.0	FR1	2	R1137E
676.437	4.101	338197	PROB	4.073	n/a	n/a	-999	6	[6, 9, 9]	24.0	FR1	2	R1137E
680.538	2.034	340247	PROB	2.004	n/a	n/a	-999	6	[6, 4, 2]	12.0	FR1	2	R1137E
682.572	3.45	341264	PROB	3.418	n/a	n/a	-999	6	[4, 7, 7]	18.0	FR1	2	R1137E
686.022	5.084	342989	PROB	5.051	n/a	n/a	-999	6	[9, 6, 7]	22.0	FR1	2	R1137E
691.106	4.527	345531	PROB	4.527	n/a	n/a	-999	6	[6, 9, 9]	24.0	FR1	2	R1137E
695.633	0.008	347794	STOP	n/a	n/a	n/a	-999	6	[-999, -999, -999]	n/a	FR1	2	R1137E
695.641	1.167	347798	DISTRACT_END	n/a	n/a	n/a	-999	6	[0, 0, 0]	n/a	FR1	2	R1137E
696.808	1.241	348381	REC_START	n/a	n/a	n/a	-999	6	[0, 0, 0]	n/a	FR1	2	R1137E
698.049	1.028	349002	REC_WORD	1.241	n/a	WHALE	-999	6	[0, 0, 0]	n/a	FR1	2	R1137E
699.077	1.635	349516	REC_WORD	2.269	n/a	JEEP	-999	6	[0, 0, 0]	n/a	FR1	2	R1137E
700.712	2.842	350333	REC_WORD	3.904	n/a	NAIL	-999	6	[0, 0, 0]	n/a	FR1	2	R1137E
703.554	3.06	351754	REC_WORD	6.746	n/a	STRAW	-999	6	[0, 0, 0]	n/a	FR1	2	R1137E
706.614	2.011	353284	REC_WORD	9.806	n/a	CONE	-999	6	[0, 0, 0]	n/a	FR1	2	R1137E
708.625	18.191	354290	REC_WORD	11.817	n/a	CLIFF	-999	6	[0, 0, 0]	n/a	FR1	2	R1137E
726.816	10.998	363385	REC_END	n/a	n/a	n/a	-999	6	[0, 0, 0]	n/a	FR1	2	R1137E
737.814	0.0	368883	TRIAL	n/a	n/a	n/a	-999	7	[0, 0, 0]	n/a	FR1	2	R1137E
737.814	10.0	368883	COUNTDOWN_START	n/a	n/a	n/a	-999	7	[0, 0, 0]	n/a	FR1	2	R1137E
748.242	0.007	374097	COUNTDOWN_END	n/a	n/a	n/a	-999	7	[0, 0, 0]	n/a	FR1	2	R1137E
748.249	1.6	374101	ORIENT	n/a	n/a	n/a	-999	7	[0, 0, 0]	n/a	FR1	2	R1137E
750.8	1.6	375376	WORD	n/a	wordpools/wordpool_EN.txt	LIP	1	7	[0, 0, 0]	n/a	FR1	2	R1137E
753.366	1.6	376659	WORD	n/a	wordpools/wordpool_EN.txt	STORE	2	7	[0, 0, 0]	n/a	FR1	2	R1137E
755.801	1.6	377876	WORD	n/a	wordpools/wordpool_EN.txt	SHIRT	3	7	[0, 0, 0]	n/a	FR1	2	R1137E
758.267	1.6	379109	WORD	n/a	wordpools/wordpool_EN.txt	RIB	4	7	[0, 0, 0]	n/a	FR1	2	R1137E
760.685	1.6	380318	WORD	n/a	wordpools/wordpool_EN.txt	MULE	5	7	[0, 0, 0]	n/a	FR1	2	R1137E
763.251	1.6	381601	WORD	n/a	wordpools/wordpool_EN.txt	BOWL	6	7	[0, 0, 0]	n/a	FR1	2	R1137E
765.836	1.6	382894	WORD	n/a	wordpools/wordpool_EN.txt	BREAD	7	7	[0, 0, 0]	n/a	FR1	2	R1137E
768.369	1.6	384160	WORD	n/a	wordpools/wordpool_EN.txt	CHAIR	8	7	[0, 0, 0]	n/a	FR1	2	R1137E
770.737	1.6	385344	WORD	n/a	wordpools/wordpool_EN.txt	BEAN	9	7	[0, 0, 0]	n/a	FR1	2	R1137E
773.154	1.6	386552	WORD	n/a	wordpools/wordpool_EN.txt	PANTS	10	7	[0, 0, 0]	n/a	FR1	2	R1137E
775.538	1.6	387744	WORD	n/a	wordpools/wordpool_EN.txt	BARN	11	7	[0, 0, 0]	n/a	FR1	2	R1137E
778.138	1.6	389044	WORD	n/a	wordpools/wordpool_EN.txt	STOVE	12	7	[0, 0, 0]	n/a	FR1	2	R1137E
779.755	0.001	389853	DISTRACT_START	n/a	n/a	n/a	-999	7	[0, 0, 0]	n/a	FR1	2	R1137E
779.756	0.016	389853	START	n/a	n/a	n/a	-999	7	[-999, -999, -999]	n/a	FR1	2	R1137E
779.772	4.701	389861	PROB	4.672	n/a	n/a	-999	7	[7, 9, 7]	23.0	FR1	2	R1137E
784.473	2.317	392212	PROB	2.284	n/a	n/a	-999	7	[5, 7, 2]	14.0	FR1	2	R1137E
786.79	3.05	393370	PROB	3.015	n/a	n/a	-999	7	[1, 8, 7]	16.0	FR1	2	R1137E
789.84	2.851	394895	PROB	2.82	n/a	n/a	-999	7	[6, 2, 6]	14.0	FR1	2	R1137E
792.691	2.384	396320	PROB	2.362	n/a	n/a	-999	7	[7, 1, 9]	17.0	FR1	2	R1137E
795.075	2.733	397512	PROB	2.706	n/a	n/a	-999	7	[4, 3, 6]	13.0	FR1	2	R1137E
797.808	12.467	398879	PROB	12.467	n/a	n/a	-999	7	[7, 6, 9]	22.0	FR1	2	R1137E
810.275	0.018	405112	STOP	n/a	n/a	n/a	-999	7	[-999, -999, -999]	n/a	FR1	2	R1137E
810.293	1.135	405121	DISTRACT_END	n/a	n/a	n/a	-999	7	[0, 0, 0]	n/a	FR1	2	R1137E
811.428	1.74	405688	REC_START	n/a	n/a	n/a	-999	7	[0, 0, 0]	n/a	FR1	2	R1137E
813.168	1.118	406558	REC_WORD	1.74	n/a	MULE	-999	7	[0, 0, 0]	n/a	FR1	2	R1137E
814.286	1.408	407117	REC_WORD	2.858	n/a	STORE	-999	7	[0, 0, 0]	n/a	FR1	2	R1137E
815.694	2.48	407821	REC_WORD	4.266	n/a	LIP	-999	7	[0, 0, 0]	n/a	FR1	2	R1137E
818.174	12.872	409061	REC_WORD	6.746	n/a	RING	-999	7	[0, 0, 0]	n/a	FR1	2	R1137E
831.046	1.678	415497	REC_WORD	19.618	n/a	RIB	-999	7	[0, 0, 0]	n/a	FR1	2	R1137E
832.724	8.712	416336	REC_WORD	21.296	n/a	STRAW	-999	7	[0, 0, 0]	n/a	FR1	2	R1137E
841.436	19.484	420691	REC_END	n/a	n/a	n/a	-999	7	[0, 0, 0]	n/a	FR1	2	R1137E
860.92	0.0	430433	TRIAL	n/a	n/a	n/a	-999	8	[0, 0, 0]	n/a	FR1	2	R1137E
860.92	10.0	430433	COUNTDOWN_START	n/a	n/a	n/a	-999	8	[0, 0, 0]	n/a	FR1	2	R1137E
871.348	0.006	435647	COUNTDOWN_END	n/a	n/a	n/a	-999	8	[0, 0, 0]	n/a	FR1	2	R1137E
871.354	1.6	435650	ORIENT	n/a	n/a	n/a	-999	8	[0, 0, 0]	n/a	FR1	2	R1137E
873.771	1.6	436858	WORD	n/a	wordpools/wordpool_EN.txt	TANK	1	8	[0, 0, 0]	n/a	FR1	2	R1137E
876.338	1.6	438142	WORD	n/a	wordpools/wordpool_EN.txt	HOSE	2	8	[0, 0, 0]	n/a	FR1	2	R1137E
878.922	1.6	439433	WORD	n/a	wordpools/wordpool_EN.txt	BOMB	3	8	[0, 0, 0]	n/a	FR1	2	R1137E
881.456	1.6	440700	WORD	n/a	wordpools/wordpool_EN.txt	COIN	4	8	[0, 0, 0]	n/a	FR1	2	R1137E
883.956	1.6	441950	WORD	n/a	wordpools/wordpool_EN.txt	PLANE	5	8	[0, 0, 0]	n/a	FR1	2	R1137E
886.541	1.6	443243	WORD	n/a	wordpools/wordpool_EN.txt	BRICK	6	8	[0, 0, 0]	n/a	FR1	2	R1137E
889.074	1.6	444509	WORD	n/a	wordpools/wordpool_EN.txt	PLATE	7	8	[0, 0, 0]	n/a	FR1	2	R1137E
891.608	1.6	445776	WORD	n/a	wordpools/wordpool_EN.txt	SQUARE	8	8	[0, 0, 0]	n/a	FR1	2	R1137E
894.009	1.6	446977	WORD	n/a	wordpools/wordpool_EN.txt	MOON	9	8	[0, 0, 0]	n/a	FR1	2	R1137E
896.542	1.6	448243	WORD	n/a	wordpools/wordpool_EN.txt	SHEET	10	8	[0, 0, 0]	n/a	FR1	2	R1137E
899.16	1.6	449552	WORD	n/a	wordpools/wordpool_EN.txt	ARK	11	8	[0, 0, 0]	n/a	FR1	2	R1137E
901.727	1.6	450835	WORD	n/a	wordpools/wordpool_EN.txt	TRAIN	12	8	[0, 0, 0]	n/a	FR1	2	R1137E
903.343	0.0	451643	DISTRACT_START	n/a	n/a	n/a	-999	8	[0, 0, 0]	n/a	FR1	2	R1137E
903.343	0.016	451643	START	n/a	n/a	n/a	-999	8	[-999, -999, -999]	n/a	FR1	2	R1137E
903.359	6.885	451651	PROB	6.856	n/a	n/a	-999	8	[9, 8, 7]	24.0	FR1	2	R1137E
910.244	1.468	455094	PROB	1.436	n/a	n/a	-999	8	[1, 2, 1]	4.0	FR1	2	R1137E
911.712	3.45	455828	PROB	3.424	n/a	n/a	-999	8	[7, 5, 2]	14.0	FR1	2	R1137E
915.162	2.551	457552	PROB	2.518	n/a	n/a	-999	8	[8, 5, 2]	15.0	FR1	2	R1137E
917.713	3.334	458828	PROB	3.311	n/a	n/a	-999	8	[4, 6, 7]	17.0	FR1	2	R1137E
921.047	7.239	460495	PROB	7.239	n/a	n/a	-999	8	[3, 8, 9]	20.0	FR1	2	R1137E
928.286	0.011	464114	STOP	n/a	n/a	n/a	-999	8	[-999, -999, -999]	n/a	FR1	2	R1137E
928.297	1.168	464120	DISTRACT_END	n/a	n/a	n/a	-999	8	[0, 0, 0]	n/a	FR1	2	R1137E
929.465	1.232	464704	REC_START	n/a	n/a	n/a	-999	8	[0, 0, 0]	n/a	FR1	2	R1137E
930.697	0.676	465320	REC_WORD	1.232	n/a	ARK	-999	8	[0, 0, 0]	n/a	FR1	2	R1137E
931.373	1.296	465657	REC_WORD	1.908	n/a	SHEET	-999	8	[0, 0, 0]	n/a	FR1	2	R1137E
932.669	26.808	466305	REC_WORD	3.204	n/a	SUN	-999	8	[0, 0, 0]	n/a	FR1	2	R1137E
959.477	1.859	479709	REC_END	n/a	n/a	n/a	-999	8	[0, 0, 0]	n/a	FR1	2	R1137E
961.336	10.0	480638	COUNTDOWN_START	n/a	n/a	n/a	-999	9	[0, 0, 0]	n/a	FR1	2	R1137E
961.336	10.428	480638	TRIAL	n/a	n/a	n/a	-999	9	[0, 0, 0]	n/a	FR1	2	R1137E
971.764	0.008	485852	COUNTDOWN_END	n/a	n/a	n/a	-999	9	[0, 0, 0]	n/a	FR1	2	R1137E
971.772	1.6	485856	ORIENT	n/a	n/a	n/a	-999	9	[0, 0, 0]	n/a	FR1	2	R1137E
974.388	1.6	487164	WORD	n/a	wordpools/wordpool_EN.txt	ROPE	1	9	[0, 0, 0]	n/a	FR1	2	R1137E
976.823	1.6	488381	WORD	n/a	wordpools/wordpool_EN.txt	DUCK	2	9	[0, 0, 0]	n/a	FR1	2	R1137E
979.222	1.6	489581	WORD	n/a	wordpools/wordpool_EN.txt	SNAKE	3	9	[0, 0, 0]	n/a	FR1	2	R1137E
981.807	1.6	490873	WORD	n/a	wordpools/wordpool_EN.txt	TENT	4	9	[0, 0, 0]	n/a	FR1	2	R1137E
984.357	1.6	492148	WORD	n/a	wordpools/wordpool_EN.txt	MAZE	5	9	[0, 0, 0]	n/a	FR1	2	R1137E
986.942	1.6	493440	WORD	n/a	wordpools/wordpool_EN.txt	HAWK	6	9	[0, 0, 0]	n/a	FR1	2	R1137E
989.341	1.6	494640	WORD	n/a	wordpools/wordpool_EN.txt	WEED	7	9	[0, 0, 0]	n/a	FR1	2	R1137E
991.892	1.6	495915	WORD	n/a	wordpools/wordpool_EN.txt	OWL	8	9	[0, 0, 0]	n/a	FR1	2	R1137E
994.459	1.6	497199	WORD	n/a	wordpools/wordpool_EN.txt	DEER	9	9	[0, 0, 0]	n/a	FR1	2	R1137E
996.86	1.6	498399	WORD	n/a	wordpools/wordpool_EN.txt	BROOM	10	9	[0, 0, 0]	n/a	FR1	2	R1137E
999.259	1.6	499599	WORD	n/a	wordpools/wordpool_EN.txt	ROAD	11	9	[0, 0, 0]	n/a	FR1	2	R1137E
1001.744	1.6	500841	WORD	n/a	wordpools/wordpool_EN.txt	DOCK	12	9	[0, 0, 0]	n/a	FR1	2	R1137E
1003.36	0.001	501649	DISTRACT_START	n/a	n/a	n/a	-999	9	[0, 0, 0]	n/a	FR1	2	R1137E
1003.361	0.016	501650	START	n/a	n/a	n/a	-999	9	[-999, -999, -999]	n/a	FR1	2	R1137E
1003.377	3.601	501658	PROB	3.581	n/a	n/a	-999	9	[1, 2, 7]	10.0	FR1	2	R1137E
1006.978	2.001	503458	PROB	1.972	n/a	n/a	-999	9	[1, 5, 4]	10.0	FR1	2	R1137E
1008.979	2.382	504458	PROB	2.354	n/a	n/a	-999	9	[6, 3, 2]	11.0	FR1	2	R1137E
1011.361	2.884	505649	PROB	2.852	n/a	n/a	-999	9	[3, 8, 3]	14.0	FR1	2	R1137E
1014.245	2.402	507091	PROB	2.377	n/a	n/a	-999	9	[8, 3, 7]	18.0	FR1	2	R1137E
1016.647	3.9	508292	PROB	3.871	n/a	n/a	-999	9	[5, 9, 9]	23.0	FR1	2	R1137E
1020.547	2.101	510242	PROB	2.067	n/a	n/a	-999	9	[5, 2, 8]	15.0	FR1	2	R1137E
1022.648	6.823	511292	PROB	6.823	n/a	n/a	-999	9	[6, 9, 7]	22.0	FR1	2	R1137E
1029.471	0.011	514704	STOP	n/a	n/a	n/a	-999	9	[-999, -999, -999]	n/a	FR1	2	R1137E
1029.482	1.184	514709	DISTRACT_END	n/a	n/a	n/a	-999	9	[0, 0, 0]	n/a	FR1	2	R1137E
1030.666	1.052	515301	REC_START	n/a	n/a	n/a	-999	9	[0, 0, 0]	n/a	FR1	2	R1137E
1031.718	1.172	515827	REC_WORD	1.052	n/a	SNAKE	-999	9	[0, 0, 0]	n/a	FR1	2	R1137E
1032.89	3.243	516413	REC_WORD	2.224	n/a	ROPE	-999	9	[0, 0, 0]	n/a	FR1	2	R1137E
1036.133	1.734	518035	REC_WORD	5.467	n/a	MOUSE	-999	9	[0, 0, 0]	n/a	FR1	2	R1137E
1037.867	5.803	518902	REC_WORD	7.201	n/a	DEER	-999	9	[0, 0, 0]	n/a	FR1	2	R1137E
1043.67	3.208	521803	REC_WORD	13.004	n/a	RING	-999	9	[0, 0, 0]	n/a	FR1	2	R1137E
1046.878	13.8	523407	REC_WORD	16.212	n/a	ROPE	-999	9	[0, 0, 0]	n/a	FR1	2	R1137E
1060.678	1.743	530306	REC_END	n/a	n/a	n/a	-999	9	[0, 0, 0]	n/a	FR1	2	R1137E
1062.421	10.0	531178	COUNTDOWN_START	n/a	n/a	n/a	-999	10	[0, 0, 0]	n/a	FR1	2	R1137E
1062.422	10.427	531178	TRIAL	n/a	n/a	n/a	-999	10	[0, 0, 0]	n/a	FR1	2	R1137E
1072.849	0.008	536392	COUNTDOWN_END	n/a	n/a	n/a	-999	10	[0, 0, 0]	n/a	FR1	2	R1137E
1072.857	1.6	536396	ORIENT	n/a	n/a	n/a	-999	10	[0, 0, 0]	n/a	FR1	2	R1137E
1075.356	1.6	537645	WORD	n/a	wordpools/wordpool_EN.txt	GLASS	1	10	[0, 0, 0]	n/a	FR1	2	R1137E
1077.774	1.6	538854	WORD	n/a	wordpools/wordpool_EN.txt	FOG	2	10	[0, 0, 0]	n/a	FR1	2	R1137E
1080.191	1.6	540062	WORD	n/a	wordpools/wordpool_EN.txt	TRAY	3	10	[0, 0, 0]	n/a	FR1	2	R1137E
1082.642	1.6	541288	WORD	n/a	wordpools/wordpool_EN.txt	FUDGE	4	10	[0, 0, 0]	n/a	FR1	2	R1137E
1085.109	1.6	542521	WORD	n/a	wordpools/wordpool_EN.txt	STEAM	5	10	[0, 0, 0]	n/a	FR1	2	R1137E
1087.559	1.6	543746	WORD	n/a	wordpools/wordpool_EN.txt	JET	6	10	[0, 0, 0]	n/a	FR1	2	R1137E
1090.16	1.6	545047	WORD	n/a	wordpools/wordpool_EN.txt	LAND	7	10	[0, 0, 0]	n/a	FR1	2	R1137E
1092.627	1.6	546280	WORD	n/a	wordpools/wordpool_EN.txt	SALT	8	10	[0, 0, 0]	n/a	FR1	2	R1137E
1095.161	1.6	547547	WORD	n/a	wordpools/wordpool_EN.txt	FLAME	9	10	[0, 0, 0]	n/a	FR1	2	R1137E
1097.578	1.6	548755	WORD	n/a	wordpools/wordpool_EN.txt	CLOUD	10	10	[0, 0, 0]	n/a	FR1	2	R1137E
1100.078	1.6	550005	WORD	n/a	wordpools/wordpool_EN.txt	SHIP	11	10	[0, 0, 0]	n/a	FR1	2	R1137E
1102.612	1.6	551272	WORD	n/a	wordpools/wordpool_EN.txt	SPONGE	12	10	[0, 0, 0]	n/a	FR1	2	R1137E
1104.228	0.001	552080	DISTRACT_START	n/a	n/a	n/a	-999	10	[0, 0, 0]	n/a	FR1	2	R1137E
1104.229	0.015	552081	START	n/a	n/a	n/a	-999	10	[-999, -999, -999]	n/a	FR1	2	R1137E
1104.244	2.385	552088	PROB	2.361	n/a	n/a	-999	10	[2, 1, 9]	12.0	FR1	2	R1137E
1106.629	1.85	553281	PROB	1.824	n/a	n/a	-999	10	[4, 1, 9]	14.0	FR1	2	R1137E
1108.479	2.85	554206	PROB	2.829	n/a	n/a	-999	10	[3, 1, 2]	6.0	FR1	2	R1137E
1111.329	2.585	555631	PROB	2.556	n/a	n/a	-999	10	[5, 5, 9]	19.0	FR1	2	R1137E
1113.914	3.85	556923	PROB	3.827	n/a	n/a	-999	10	[7, 2, 8]	17.0	FR1	2	R1137E
1117.764	3.068	558848	PROB	3.041	n/a	n/a	-999	10	[3, 7, 8]	18.0	FR1	2	R1137E
1120.832	1.566	560382	PROB	1.54	n/a	n/a	-999	10	[5, 5, 3]	13.0	FR1	2	R1137E
1122.398	2.806	561165	PROB	2.806	n/a	n/a	-999	10	[7, 7, 6]	20.0	FR1	2	R1137E
1125.204	0.011	562568	STOP	n/a	n/a	n/a	-999	10	[-999, -999, -999]	n/a	FR1	2	R1137E
1125.215	1.184	562573	DISTRACT_END	n/a	n/a	n/a	-999	10	[0, 0, 0]	n/a	FR1	2	R1137E
1126.399	1.048	563165	REC_START	n/a	n/a	n/a	-999	10	[0, 0, 0]	n/a	FR1	2	R1137E
1127.447	0.782	563689	REC_WORD	1.048	n/a	FOG	-999	10	[0, 0, 0]	n/a	FR1	2	R1137E
1128.229	0.969	564080	REC_WORD	1.83	n/a	SHIP	-999	10	[0, 0, 0]	n/a	FR1	2	R1137E
1129.198	11.444	564565	REC_WORD	2.799	n/a	SAIL	-999	10	[0, 0, 0]	n/a	FR1	2	R1137E
1140.642	4.597	570286	REC_WORD	14.243	n/a	FUDGE	-999	10	[0, 0, 0]	n/a	FR1	2	R1137E
1145.239	11.17	572585	REC_WORD	18.84	n/a	GLASS	-999	10	[0, 0, 0]	n/a	FR1	2	R1137E
1156.409	2.763	578169	REC_END	n/a	n/a	n/a	-999	10	[0, 0, 0]	n/a	FR1	2	R1137E
1159.172	10.0	579551	COUNTDOWN_START	n/a	n/a	n/a	-999	11	[0, 0, 0]	n/a	FR1	2	R1137E
1159.172	10.428	579551	TRIAL	n/a	n/a	n/a	-999	11	[0, 0, 0]	n/a	FR1	2	R1137E
1169.6	0.007	584764	COUNTDOWN_END	n/a	n/a	n/a	-999	11	[0, 0, 0]	n/a	FR1	2	R1137E
1169.607	1.6	584768	ORIENT	n/a	n/a	n/a	-999	11	[0, 0, 0]	n/a	FR1	2	R1137E
1172.074	1.6	586001	WORD	n/a	wordpools/wordpool_EN.txt	CLOCK	1	11	[0, 0, 0]	n/a	FR1	2	R1137E
1174.641	1.6	587285	WORD	n/a	wordpools/wordpool_EN.txt	SPOON	2	11	[0, 0, 0]	n/a	FR1	2	R1137E
1177.075	1.6	588502	WORD	n/a	wordpools/wordpool_EN.txt	SWORD	3	11	[0, 0, 0]	n/a	FR1	2	R1137E
1179.675	1.6	589802	WORD	n/a	wordpools/wordpool_EN.txt	VAN	4	11	[0, 0, 0]	n/a	FR1	2	R1137E
1182.092	1.6	591010	WORD	n/a	wordpools/wordpool_EN.txt	BOOK	5	11	[0, 0, 0]	n/a	FR1	2	R1137E
1184.643	1.6	592285	WORD	n/a	wordpools/wordpool_EN.txt	ROOM	6	11	[0, 0, 0]	n/a	FR1	2	R1137E
1187.226	1.6	593577	WORD	n/a	wordpools/wordpool_EN.txt	STREET	7	11	[0, 0, 0]	n/a	FR1	2	R1137E
1189.627	1.6	594777	WORD	n/a	wordpools/wordpool_EN.txt	BLUSH	8	11	[0, 0, 0]	n/a	FR1	2	R1137E
1192.161	1.6	596044	WORD	n/a	wordpools/wordpool_EN.txt	SOUP	9	11	[0, 0, 0]	n/a	FR1	2	R1137E
1194.678	1.6	597303	WORD	n/a	wordpools/wordpool_EN.txt	TRUCK	10	11	[0, 0, 0]	n/a	FR1	2	R1137E
1197.195	1.6	598561	WORD	n/a	wordpools/wordpool_EN.txt	GOAT	11	11	[0, 0, 0]	n/a	FR1	2	R1137E
1199.662	1.6	599795	WORD	n/a	wordpools/wordpool_EN.txt	CART	12	11	[0, 0, 0]	n/a	FR1	2	R1137E
1201.278	0.001	600603	DISTRACT_START	n/a	n/a	n/a	-999	11	[0, 0, 0]	n/a	FR1	2	R1137E
1201.279	0.016	600603	START	n/a	n/a	n/a	-999	11	[-999, -999, -999]	n/a	FR1	2	R1137E
1201.295	2.651	600611	PROB	2.62	n/a	n/a	-999	11	[1, 3, 9]	13.0	FR1	2	R1137E
1203.946	3.751	601936	PROB	3.721	n/a	n/a	-999	11	[8, 5, 8]	21.0	FR1	2	R1137E
1207.697	2.533	603812	PROB	2.498	n/a	n/a	-999	11	[1, 3, 3]	7.0	FR1	2	R1137E
1210.23	2.434	605078	PROB	2.413	n/a	n/a	-999	11	[5, 8, 5]	18.0	FR1	2	R1137E
1212.664	1.917	606295	PROB	1.883	n/a	n/a	-999	11	[8, 2, 1]	11.0	FR1	2	R1137E
1214.581	2.984	607254	PROB	2.95	n/a	n/a	-999	11	[2, 7, 4]	13.0	FR1	2	R1137E
1217.565	3.317	608746	PROB	3.294	n/a	n/a	-999	11	[5, 3, 2]	10.0	FR1	2	R1137E
1220.882	2.753	610404	PROB	2.753	n/a	n/a	-999	11	[2, 9, 5]	16.0	FR1	2	R1137E
1223.635	0.015	611780	STOP	n/a	n/a	n/a	-999	11	[-999, -999, -999]	n/a	FR1	2	R1137E
1223.65	1.117	611788	DISTRACT_END	n/a	n/a	n/a	-999	11	[0, 0, 0]	n/a	FR1	2	R1137E
1224.767	0.883	612346	REC_START	n/a	n/a	n/a	-999	11	[0, 0, 0]	n/a	FR1	2	R1137E
1225.65	1.092	612788	REC_WORD	0.883	n/a	SWORD	-999	11	[0, 0, 0]	n/a	FR1	2	R1137E
1226.742	5.617	613334	REC_WORD	1.975	n/a	BLUSH	-999	11	[0, 0, 0]	n/a	FR1	2	R1137E
1232.359	22.424	616142	REC_WORD	7.592	n/a	PAINT	-999	11	[0, 0, 0]	n/a	FR1	2	R1137E
1254.783	1.689	627354	REC_END	n/a	n/a	n/a	-999	11	[0, 0, 0]	n/a	FR1	2	R1137E
1256.472	0.0	628198	TRIAL	n/a	n/a	n/a	-999	12	[0, 0, 0]	n/a	FR1	2	R1137E
1256.472	10.0	628198	COUNTDOWN_START	n/a	n/a	n/a	-999	12	[0, 0, 0]	n/a	FR1	2	R1137E
1266.9	0.007	633412	COUNTDOWN_END	n/a	n/a	n/a	-999	12	[0, 0, 0]	n/a	FR1	2	R1137E
1266.907	1.6	633415	ORIENT	n/a	n/a	n/a	-999	12	[0, 0, 0]	n/a	FR1	2	R1137E
1269.307	1.6	634615	WORD	n/a	wordpools/wordpool_EN.txt	NEST	1	12	[0, 0, 0]	n/a	FR1	2	R1137E
1271.791	1.6	635857	WORD	n/a	wordpools/wordpool_EN.txt	CAKE	2	12	[0, 0, 0]	n/a	FR1	2	R1137E
1274.391	1.6	637157	WORD	n/a	wordpools/wordpool_EN.txt	CHEEK	3	12	[0, 0, 0]	n/a	FR1	2	R1137E
1276.876	1.6	638399	WORD	n/a	wordpools/wordpool_EN.txt	FACE	4	12	[0, 0, 0]	n/a	FR1	2	R1137E
1279.409	1.6	639666	WORD	n/a	wordpools/wordpool_EN.txt	FORK	5	12	[0, 0, 0]	n/a	FR1	2	R1137E
1281.843	1.6	640883	WORD	n/a	wordpools/wordpool_EN.txt	CUP	6	12	[0, 0, 0]	n/a	FR1	2	R1137E
1284.276	1.6	642099	WORD	n/a	wordpools/wordpool_EN.txt	MOOSE	7	12	[0, 0, 0]	n/a	FR1	2	R1137E
1286.777	1.6	643350	WORD	n/a	wordpools/wordpool_EN.txt	AXE	8	12	[0, 0, 0]	n/a	FR1	2	R1137E
1289.227	1.6	644575	WORD	n/a	wordpools/wordpool_EN.txt	TOAST	9	12	[0, 0, 0]	n/a	FR1	2	R1137E
1291.812	1.6	645867	WORD	n/a	wordpools/wordpool_EN.txt	HEN	10	12	[0, 0, 0]	n/a	FR1	2	R1137E
1294.244	1.6	647083	WORD	n/a	wordpools/wordpool_EN.txt	FRUIT	11	12	[0, 0, 0]	n/a	FR1	2	R1137E
1296.779	1.6	648350	WORD	n/a	wordpools/wordpool_EN.txt	PALM	12	12	[0, 0, 0]	n/a	FR1	2	R1137E
1298.395	0.001	649158	DISTRACT_START	n/a	n/a	n/a	-999	12	[0, 0, 0]	n/a	FR1	2	R1137E
1298.396	0.016	649159	START	n/a	n/a	n/a	-999	12	[-999, -999, -999]	n/a	FR1	2	R1137E
1298.412	1.883	649167	PROB	1.86	n/a	n/a	-999	12	[1, 2, 9]	12.0	FR1	2	R1137E
1300.295	2.934	650108	PROB	2.905	n/a	n/a	-999	12	[9, 5, 7]	21.0	FR1	2	R1137E
1303.229	2.184	651575	PROB	2.163	n/a	n/a	-999	12	[8, 4, 2]	14.0	FR1	2	R1137E
1305.413	6.119	652667	PROB	6.093	n/a	n/a	-999	12	[3, 6, 9]	18.0	FR1	2	R1137E
1311.532	3.117	655726	PROB	3.094	n/a	n/a	-999	12	[2, 5, 8]	15.0	FR1	2	R1137E
1314.649	3.15	657285	PROB	3.121	n/a	n/a	-999	12	[1, 4, 2]	7.0	FR1	2	R1137E
1317.799	2.843	658860	PROB	2.843	n/a	n/a	-999	12	[8, 4, 8]	20.0	FR1	2	R1137E
1320.642	0.008	660281	STOP	n/a	n/a	n/a	-999	12	[-999, -999, -999]	n/a	FR1	2	R1137E
1320.65	1.101	660285	DISTRACT_END	n/a	n/a	n/a	-999	12	[0, 0, 0]	n/a	FR1	2	R1137E
1321.751	1.368	660836	REC_START	n/a	n/a	n/a	-999	12	[0, 0, 0]	n/a	FR1	2	R1137E
1323.119	1.155	661520	REC_WORD	1.368	n/a	CAKE	-999	12	[0, 0, 0]	n/a	FR1	2	R1137E
1324.274	1.414	662097	REC_WORD	2.523	n/a	CUP	-999	12	[0, 0, 0]	n/a	FR1	2	R1137E
1325.688	1.534	662804	REC_WORD	3.937	n/a	BLUSH	-999	12	[0, 0, 0]	n/a	FR1	2	R1137E
1327.222	2.453	663571	REC_WORD	5.471	n/a	NEST	-999	12	[0, 0, 0]	n/a	FR1	2	R1137E
1329.675	1.915	664797	REC_WORD	7.924	n/a	FACE	-999	12	[0, 0, 0]	n/a	FR1	2	R1137E
1331.59	20.171	665755	REC_WORD	9.839	n/a	CHEEK	-999	12	[0, 0, 0]	n/a	FR1	2	R1137E
1351.761	23.965	675840	REC_END	n/a	n/a	n/a	-999	12	[0, 0, 0]	n/a	FR1	2	R1137E
1375.726	10.0	687822	COUNTDOWN_START	n/a	n/a	n/a	-999	13	[0, 0, 0]	n/a	FR1	2	R1137E
1375.727	10.427	687822	TRIAL	n/a	n/a	n/a	-999	13	[0, 0, 0]	n/a	FR1	2	R1137E
1386.154	0.008	693035	COUNTDOWN_END	n/a	n/a	n/a	-999	13	[0, 0, 0]	n/a	FR1	2	R1137E
1386.162	1.6	693039	ORIENT	n/a	n/a	n/a	-999	13	[0, 0, 0]	n/a	FR1	2	R1137E
1388.545	1.6	694231	WORD	n/a	wordpools/wordpool_EN.txt	WORM	1	13	[0, 0, 0]	n/a	FR1	2	R1137E
1391.146	1.6	695531	WORD	n/a	wordpools/wordpool_EN.txt	EGG	2	13	[0, 0, 0]	n/a	FR1	2	R1137E
1393.663	1.6	696790	WORD	n/a	wordpools/wordpool_EN.txt	HOOK	3	13	[0, 0, 0]	n/a	FR1	2	R1137E
1396.245	1.6	698081	WORD	n/a	wordpools/wordpool_EN.txt	WING	4	13	[0, 0, 0]	n/a	FR1	2	R1137E
1398.68	1.6	699298	WORD	n/a	wordpools/wordpool_EN.txt	FISH	5	13	[0, 0, 0]	n/a	FR1	2	R1137E
1401.148	1.6	700532	WORD	n/a	wordpools/wordpool_EN.txt	STORM	6	13	[0, 0, 0]	n/a	FR1	2	R1137E
1403.598	1.6	701757	WORD	n/a	wordpools/wordpool_EN.txt	SEA	7	13	[0, 0, 0]	n/a	FR1	2	R1137E
1406.082	1.6	702999	WORD	n/a	wordpools/wordpool_EN.txt	WEB	8	13	[0, 0, 0]	n/a	FR1	2	R1137E
1408.465	1.6	704190	WORD	n/a	wordpools/wordpool_EN.txt	SHRIMP	9	13	[0, 0, 0]	n/a	FR1	2	R1137E
1410.966	1.6	705441	WORD	n/a	wordpools/wordpool_EN.txt	SHELL	10	13	[0, 0, 0]	n/a	FR1	2	R1137E
1413.349	1.6	706632	WORD	n/a	wordpools/wordpool_EN.txt	CUBE	11	13	[0, 0, 0]	n/a	FR1	2	R1137E
1415.95	1.6	707933	WORD	n/a	wordpools/wordpool_EN.txt	BOAT	12	13	[0, 0, 0]	n/a	FR1	2	R1137E
1417.567	0.001	708741	DISTRACT_START	n/a	n/a	n/a	-999	13	[0, 0, 0]	n/a	FR1	2	R1137E
1417.568	0.016	708742	START	n/a	n/a	n/a	-999	13	[-999, -999, -999]	n/a	FR1	2	R1137E
1417.584	3.217	708750	PROB	3.194	n/a	n/a	-999	13	[6, 2, 6]	14.0	FR1	2	R1137E
1420.801	2.449	710358	PROB	2.416	n/a	n/a	-999	13	[8, 5, 2]	15.0	FR1	2	R1137E
1423.25	2.602	711582	PROB	2.576	n/a	n/a	-999	13	[1, 6, 7]	14.0	FR1	2	R1137E
1425.852	3.167	712883	PROB	3.134	n/a	n/a	-999	13	[1, 6, 8]	15.0	FR1	2	R1137E
1429.019	2.283	714467	PROB	2.262	n/a	n/a	-999	13	[4, 2, 8]	14.0	FR1	2	R1137E
1431.302	4.768	715608	PROB	4.743	n/a	n/a	-999	13	[7, 9, 6]	22.0	FR1	2	R1137E
1436.07	2.639	717992	PROB	2.639	n/a	n/a	-999	13	[6, 1, 2]	9.0	FR1	2	R1137E
1438.709	0.012	719311	STOP	n/a	n/a	n/a	-999	13	[-999, -999, -999]	n/a	FR1	2	R1137E
1438.721	1.234	719317	DISTRACT_END	n/a	n/a	n/a	-999	13	[0, 0, 0]	n/a	FR1	2	R1137E
1439.955	1.081	719934	REC_START	n/a	n/a	n/a	-999	13	[0, 0, 0]	n/a	FR1	2	R1137E
1441.036	0.836	720475	REC_WORD	1.081	n/a	FISH	-999	13	[0, 0, 0]	n/a	FR1	2	R1137E
1441.872	1.16	720893	REC_WORD	1.917	n/a	WORM	-999	13	[0, 0, 0]	n/a	FR1	2	R1137E
1443.032	1.281	721473	REC_WORD	3.077	n/a	HOOK	-999	13	[0, 0, 0]	n/a	FR1	2	R1137E
1444.313	1.947	722113	REC_WORD	4.358	n/a	NEST	-999	13	[0, 0, 0]	n/a	FR1	2	R1137E
1446.26	23.705	723087	REC_WORD	6.305	n/a	SWING	-999	13	[0, 0, 0]	n/a	FR1	2	R1137E
1469.965	1.578	734939	REC_END	n/a	n/a	n/a	-999	13	[0, 0, 0]	n/a	FR1	2	R1137E
1471.543	10.0	735728	COUNTDOWN_START	n/a	n/a	n/a	-999	14	[0, 0, 0]	n/a	FR1	2	R1137E
1471.543	10.428	735728	TRIAL	n/a	n/a	n/a	-999	14	[0, 0, 0]	n/a	FR1	2	R1137E
1481.971	0.007	740941	COUNTDOWN_END	n/a	n/a	n/a	-999	14	[0, 0, 0]	n/a	FR1	2	R1137E
1481.978	1.6	740945	ORIENT	n/a	n/a	n/a	-999	14	[0, 0, 0]	n/a	FR1	2	R1137E
1484.462	1.6	742187	WORD	n/a	wordpools/wordpool_EN.txt	MOUTH	1	14	[0, 0, 0]	n/a	FR1	2	R1137E
1486.913	1.6	743412	WORD	n/a	wordpools/wordpool_EN.txt	ROSE	2	14	[0, 0, 0]	n/a	FR1	2	R1137E
1489.295	1.6	744603	WORD	n/a	wordpools/wordpool_EN.txt	FLOOR	3	14	[0, 0, 0]	n/a	FR1	2	R1137E
1491.747	1.6	745829	WORD	n/a	wordpools/wordpool_EN.txt	PARK	4	14	[0, 0, 0]	n/a	FR1	2	R1137E
1494.346	1.6	747128	WORD	n/a	wordpools/wordpool_EN.txt	SHOE	5	14	[0, 0, 0]	n/a	FR1	2	R1137E
1496.798	1.6	748354	WORD	n/a	wordpools/wordpool_EN.txt	BOOT	6	14	[0, 0, 0]	n/a	FR1	2	R1137E
1499.247	1.6	749579	WORD	n/a	wordpools/wordpool_EN.txt	CLOWN	7	14	[0, 0, 0]	n/a	FR1	2	R1137E
1501.782	1.6	750846	WORD	n/a	wordpools/wordpool_EN.txt	SUIT	8	14	[0, 0, 0]	n/a	FR1	2	R1137E
1504.166	1.6	752038	WORD	n/a	wordpools/wordpool_EN.txt	CAPE	9	14	[0, 0, 0]	n/a	FR1	2	R1137E
1506.599	1.6	753255	WORD	n/a	wordpools/wordpool_EN.txt	JUICE	10	14	[0, 0, 0]	n/a	FR1	2	R1137E
1509.016	1.6	754463	WORD	n/a	wordpools/wordpool_EN.txt	WORLD	11	14	[0, 0, 0]	n/a	FR1	2	R1137E
1511.484	1.6	755697	WORD	n/a	wordpools/wordpool_EN.txt	BAG	12	14	[0, 0, 0]	n/a	FR1	2	R1137E
1513.1	0.001	756505	DISTRACT_START	n/a	n/a	n/a	-999	14	[0, 0, 0]	n/a	FR1	2	R1137E
1513.101	0.016	756505	START	n/a	n/a	n/a	-999	14	[-999, -999, -999]	n/a	FR1	2	R1137E
1513.117	2.984	756513	PROB	2.953	n/a	n/a	-999	14	[1, 2, 5]	8.0	FR1	2	R1137E
1516.101	4.717	758005	PROB	4.681	n/a	n/a	-999	14	[5, 8, 1]	14.0	FR1	2	R1137E
1520.818	2.784	760364	PROB	2.764	n/a	n/a	-999	14	[2, 9, 5]	16.0	FR1	2	R1137E
1523.602	1.984	761756	PROB	1.948	n/a	n/a	-999	14	[2, 2, 8]	12.0	FR1	2	R1137E
1525.586	3.151	762748	PROB	3.116	n/a	n/a	-999	14	[3, 8, 7]	18.0	FR1	2	R1137E
1528.737	2.4	764323	PROB	2.365	n/a	n/a	-999	14	[3, 4, 1]	8.0	FR1	2	R1137E
1531.137	1.834	765523	PROB	1.813	n/a	n/a	-999	14	[2, 2, 8]	12.0	FR1	2	R1137E
1532.971	3.611	766440	PROB	3.611	n/a	n/a	-999	14	[6, 3, 2]	11.0	FR1	2	R1137E
1536.582	0.006	768245	STOP	n/a	n/a	n/a	-999	14	[-999, -999, -999]	n/a	FR1	2	R1137E
1536.588	1.184	768248	DISTRACT_END	n/a	n/a	n/a	-999	14	[0, 0, 0]	n/a	FR1	2	R1137E
1537.772	0.982	768840	REC_START	n/a	n/a	n/a	-999	14	[0, 0, 0]	n/a	FR1	2	R1137E
1538.754	0.809	769331	REC_WORD	0.982	n/a	CLOWN	-999	14	[0, 0, 0]	n/a	FR1	2	R1137E
1539.563	1.304	769736	REC_WORD	1.791	n/a	SUIT	-999	14	[0, 0, 0]	n/a	FR1	2	R1137E
1540.867	1.348	770388	REC_WORD	3.095	n/a	CAPE	-999	14	[0, 0, 0]	n/a	FR1	2	R1137E
1542.215	1.167	771062	REC_WORD	4.443	n/a	MOUTH	-999	14	[0, 0, 0]	n/a	FR1	2	R1137E
1543.382	3.747	771645	REC_WORD	5.61	n/a	LIP	-999	14	[0, 0, 0]	n/a	FR1	2	R1137E
1547.129	2.433	773518	REC_WORD	9.357	n/a	FLOOR	-999	14	[0, 0, 0]	n/a	FR1	2	R1137E
1549.562	2.607	774735	REC_WORD	11.79	n/a	WORLD	-999	14	[0, 0, 0]	n/a	FR1	2	R1137E
1552.169	1.217	776038	REC_WORD	14.397	n/a	MAP	-999	14	[0, 0, 0]	n/a	FR1	2	R1137E
1553.386	14.397	776647	REC_WORD	15.614	n/a	JUICE	-999	14	[0, 0, 0]	n/a	FR1	2	R1137E
1567.783	1.127	783845	REC_END	n/a	n/a	n/a	-999	14	[0, 0, 0]	n/a	FR1	2	R1137E
1568.91	0.0	784408	TRIAL	n/a	n/a	n/a	-999	15	[0, 0, 0]	n/a	FR1	2	R1137E
1568.91	10.0	784408	COUNTDOWN_START	n/a	n/a	n/a	-999	15	[0, 0, 0]	n/a	FR1	2	R1137E
1579.338	0.007	789622	COUNTDOWN_END	n/a	n/a	n/a	-999	15	[0, 0, 0]	n/a	FR1	2	R1137E
1579.345	1.6	789626	ORIENT	n/a	n/a	n/a	-999	15	[0, 0, 0]	n/a	FR1	2	R1137E
1581.779	1.6	790842	WORD	n/a	wordpools/wordpool_EN.txt	BRUSH	1	15	[0, 0, 0]	n/a	FR1	2	R1137E
1584.245	1.6	792075	WORD	n/a	wordpools/wordpool_EN.txt	MUD	2	15	[0, 0, 0]	n/a	FR1	2	R1137E
1586.63	1.6	793268	WORD	n/a	wordpools/wordpool_EN.txt	PHONE	3	15	[0, 0, 0]	n/a	FR1	2	R1137E
1589.181	1.6	794543	WORD	n/a	wordpools/wordpool_EN.txt	CHALK	4	15	[0, 0, 0]	n/a	FR1	2	R1137E
1591.564	1.6	795735	WORD	n/a	wordpools/wordpool_EN.txt	SMOKE	5	15	[0, 0, 0]	n/a	FR1	2	R1137E
1594.165	1.6	797035	WORD	n/a	wordpools/wordpool_EN.txt	BATH	6	15	[0, 0, 0]	n/a	FR1	2	R1137E
1596.632	1.6	798269	WORD	n/a	wordpools/wordpool_EN.txt	FOAM	7	15	[0, 0, 0]	n/a	FR1	2	R1137E
1599.116	1.6	799511	WORD	n/a	wordpools/wordpool_EN.txt	FROG	8	15	[0, 0, 0]	n/a	FR1	2	R1137E
1601.632	1.6	800768	WORD	n/a	wordpools/wordpool_EN.txt	STRING	9	15	[0, 0, 0]	n/a	FR1	2	R1137E
1604.067	1.6	801986	WORD	n/a	wordpools/wordpool_EN.txt	BOARD	10	15	[0, 0, 0]	n/a	FR1	2	R1137E
1606.634	1.6	803269	WORD	n/a	wordpools/wordpool_EN.txt	PIE	11	15	[0, 0, 0]	n/a	FR1	2	R1137E
1609.233	1.6	804569	WORD	n/a	wordpools/wordpool_EN.txt	TOOTH	12	15	[0, 0, 0]	n/a	FR1	2	R1137E
1610.851	0.001	805378	DISTRACT_START	n/a	n/a	n/a	-999	15	[0, 0, 0]	n/a	FR1	2	R1137E
1610.852	0.016	805378	START	n/a	n/a	n/a	-999	15	[-999, -999, -999]	n/a	FR1	2	R1137E
1610.868	5.366	805386	PROB	5.342	n/a	n/a	-999	15	[7, 2, 8]	17.0	FR1	2	R1137E
1616.234	2.352	808069	PROB	2.33	n/a	n/a	-999	15	[2, 5, 7]	14.0	FR1	2	R1137E
1618.586	2.383	809245	PROB	2.354	n/a	n/a	-999	15	[2, 4, 1]	7.0	FR1	2	R1137E
1620.969	2.634	810436	PROB	2.61	n/a	n/a	-999	15	[2, 4, 1]	7.0	FR1	2	R1137E
1623.603	6.451	811753	PROB	6.418	n/a	n/a	-999	15	[8, 5, 7]	20.0	FR1	2	R1137E
1630.054	2.199	814979	PROB	2.199	n/a	n/a	-999	15	[1, 1, 8]	10.0	FR1	2	R1137E
1632.253	0.017	816078	STOP	n/a	n/a	n/a	-999	15	[-999, -999, -999]	n/a	FR1	2	R1137E
1632.27	1.101	816087	DISTRACT_END	n/a	n/a	n/a	-999	15	[0, 0, 0]	n/a	FR1	2	R1137E
1633.371	1.688	816637	REC_START	n/a	n/a	n/a	-999	15	[0, 0, 0]	n/a	FR1	2	R1137E
1635.059	1.682	817481	REC_WORD	1.688	n/a	SWIPE	-999	15	[0, 0, 0]	n/a	FR1	2	R1137E
1636.741	1.493	818322	REC_WORD	3.37	n/a	MOUTH	-999	15	[0, 0, 0]	n/a	FR1	2	R1137E
1638.234	25.153	819068	REC_WORD	4.863	n/a	MUD	-999	15	[0, 0, 0]	n/a	FR1	2	R1137E
1663.387	10.857	831644	REC_END	n/a	n/a	n/a	-999	15	[0, 0, 0]	n/a	FR1	2	R1137E
1674.244	10.0	837072	COUNTDOWN_START	n/a	n/a	n/a	-999	16	[0, 0, 0]	n/a	FR1	2	R1137E
1674.245	10.427	837073	TRIAL	n/a	n/a	n/a	-999	16	[0, 0, 0]	n/a	FR1	2	R1137E
1684.672	0.009	842286	COUNTDOWN_END	n/a	n/a	n/a	-999	16	[0, 0, 0]	n/a	FR1	2	R1137E
1684.681	1.6	842291	ORIENT	n/a	n/a	n/a	-999	16	[0, 0, 0]	n/a	FR1	2	R1137E
1687.23	1.6	843565	WORD	n/a	wordpools/wordpool_EN.txt	GUARD	1	16	[0, 0, 0]	n/a	FR1	2	R1137E
1689.598	1.6	844749	WORD	n/a	wordpools/wordpool_EN.txt	FENCE	2	16	[0, 0, 0]	n/a	FR1	2	R1137E
1692.198	1.6	846049	WORD	n/a	wordpools/wordpool_EN.txt	DOLL	3	16	[0, 0, 0]	n/a	FR1	2	R1137E
1694.799	1.6	847349	WORD	n/a	wordpools/wordpool_EN.txt	BAT	4	16	[0, 0, 0]	n/a	FR1	2	R1137E
1697.298	1.6	848599	WORD	n/a	wordpools/wordpool_EN.txt	LEG	5	16	[0, 0, 0]	n/a	FR1	2	R1137E
1699.8	1.6	849850	WORD	n/a	wordpools/wordpool_EN.txt	HORN	6	16	[0, 0, 0]	n/a	FR1	2	R1137E
1702.366	1.6	851133	WORD	n/a	wordpools/wordpool_EN.txt	OAR	7	16	[0, 0, 0]	n/a	FR1	2	R1137E
1704.918	1.6	852409	WORD	n/a	wordpools/wordpool_EN.txt	FOOT	8	16	[0, 0, 0]	n/a	FR1	2	R1137E
1707.3	1.6	853600	WORD	n/a	wordpools/wordpool_EN.txt	BOY	9	16	[0, 0, 0]	n/a	FR1	2	R1137E
1709.718	1.6	854808	WORD	n/a	wordpools/wordpool_EN.txt	SOCK	10	16	[0, 0, 0]	n/a	FR1	2	R1137E
1712.301	1.6	856100	WORD	n/a	wordpools/wordpool_EN.txt	LOCK	11	16	[0, 0, 0]	n/a	FR1	2	R1137E
1714.719	1.6	857309	WORD	n/a	wordpools/wordpool_EN.txt	PEN	12	16	[0, 0, 0]	n/a	FR1	2	R1137E
1716.335	0.001	858117	DISTRACT_START	n/a	n/a	n/a	-999	16	[0, 0, 0]	n/a	FR1	2	R1137E
1716.336	0.016	858117	START	n/a	n/a	n/a	-999	16	[-999, -999, -999]	n/a	FR1	2	R1137E
1716.352	2.95	858125	PROB	2.918	n/a	n/a	-999	16	[8, 8, 2]	18.0	FR1	2	R1137E
1719.302	2.819	859600	PROB	2.785	n/a	n/a	-999	16	[5, 4, 3]	12.0	FR1	2	R1137E
1722.121	3.232	861010	PROB	3.213	n/a	n/a	-999	16	[9, 3, 1]	13.0	FR1	2	R1137E
1725.353	3.369	862626	PROB	3.341	n/a	n/a	-999	16	[9, 3, 8]	20.0	FR1	2	R1137E
1728.722	4.067	864310	PROB	4.045	n/a	n/a	-999	16	[2, 5, 6]	13.0	FR1	2	R1137E
1732.789	4.01	866343	PROB	4.01	n/a	n/a	-999	16	[8, 4, 4]	16.0	FR1	2	R1137E
1736.799	0.007	868348	STOP	n/a	n/a	n/a	-999	16	[-999, -999, -999]	n/a	FR1	2	R1137E
1736.806	1.218	868352	DISTRACT_END	n/a	n/a	n/a	-999	16	[0, 0, 0]	n/a	FR1	2	R1137E
1738.024	1.247	868961	REC_START	n/a	n/a	n/a	-999	16	[0, 0, 0]	n/a	FR1	2	R1137E
1739.271	1.038	869584	REC_WORD	1.247	n/a	SOCK	-999	16	[0, 0, 0]	n/a	FR1	2	R1137E
1740.309	1.395	870103	REC_WORD	2.285	n/a	PEN	-999	16	[0, 0, 0]	n/a	FR1	2	R1137E
1741.704	0.949	870801	REC_WORD	3.68	n/a	OAR	-999	16	[0, 0, 0]	n/a	FR1	2	R1137E
1742.653	25.381	871275	REC_WORD	4.629	n/a	LEG	-999	16	[0, 0, 0]	n/a	FR1	2	R1137E
1768.034	1.695	883965	REC_END	n/a	n/a	n/a	-999	16	[0, 0, 0]	n/a	FR1	2	R1137E
1769.729	0.0	884812	TRIAL	n/a	n/a	n/a	-999	17	[0, 0, 0]	n/a	FR1	2	R1137E
1769.729	10.0	884812	COUNTDOWN_START	n/a	n/a	n/a	-999	17	[0, 0, 0]	n/a	FR1	2	R1137E
1780.157	0.007	890026	COUNTDOWN_END	n/a	n/a	n/a	-999	17	[0, 0, 0]	n/a	FR1	2	R1137E
1780.164	1.6	890030	ORIENT	n/a	n/a	n/a	-999	17	[0, 0, 0]	n/a	FR1	2	R1137E
1782.565	1.6	891230	WORD	n/a	wordpools/wordpool_EN.txt	ANT	1	17	[0, 0, 0]	n/a	FR1	2	R1137E
1785.048	1.6	892471	WORD	n/a	wordpools/wordpool_EN.txt	RAT	2	17	[0, 0, 0]	n/a	FR1	2	R1137E
1787.632	1.6	893763	WORD	n/a	wordpools/wordpool_EN.txt	PEAR	3	17	[0, 0, 0]	n/a	FR1	2	R1137E
1790.198	1.6	895046	WORD	n/a	wordpools/wordpool_EN.txt	BRANCH	4	17	[0, 0, 0]	n/a	FR1	2	R1137E
1792.616	1.6	896255	WORD	n/a	wordpools/wordpool_EN.txt	CAVE	5	17	[0, 0, 0]	n/a	FR1	2	R1137E
1795.0	1.6	897447	WORD	n/a	wordpools/wordpool_EN.txt	MOLE	6	17	[0, 0, 0]	n/a	FR1	2	R1137E
1797.517	1.6	898706	WORD	n/a	wordpools/wordpool_EN.txt	HEART	7	17	[0, 0, 0]	n/a	FR1	2	R1137E
1799.917	1.6	899905	WORD	n/a	wordpools/wordpool_EN.txt	SLIME	8	17	[0, 0, 0]	n/a	FR1	2	R1137E
1802.417	1.6	901155	WORD	n/a	wordpools/wordpool_EN.txt	FOOD	9	17	[0, 0, 0]	n/a	FR1	2	R1137E
1804.985	1.6	902439	WORD	n/a	wordpools/wordpool_EN.txt	BEE	10	17	[0, 0, 0]	n/a	FR1	2	R1137E
1807.519	1.6	903706	WORD	n/a	wordpools/wordpool_EN.txt	BED	11	17	[0, 0, 0]	n/a	FR1	2	R1137E
1809.903	1.6	904898	WORD	n/a	wordpools/wordpool_EN.txt	PLANT	12	17	[0, 0, 0]	n/a	FR1	2	R1137E
1811.52	0.0	905707	DISTRACT_START	n/a	n/a	n/a	-999	17	[0, 0, 0]	n/a	FR1	2	R1137E
1811.52	0.016	905707	START	n/a	n/a	n/a	-999	17	[-999, -999, -999]	n/a	FR1	2	R1137E
1811.536	3.167	905715	PROB	3.135	n/a	n/a	-999	17	[7, 1, 2]	10.0	FR1	2	R1137E
1814.703	3.918	907298	PROB	3.888	n/a	n/a	-999	17	[6, 7, 5]	18.0	FR1	2	R1137E
1818.621	3.0	909257	PROB	2.97	n/a	n/a	-999	17	[2, 6, 6]	14.0	FR1	2	R1137E
1821.621	4.268	910757	PROB	4.245	n/a	n/a	-999	17	[9, 8, 5]	22.0	FR1	2	R1137E
1825.889	3.584	912891	PROB	3.553	n/a	n/a	-999	17	[7, 8, 7]	22.0	FR1	2	R1137E
1829.473	2.049	914683	PROB	2.049	n/a	n/a	-999	17	[1, 5, 1]	7.0	FR1	2	R1137E
1831.522	0.018	915707	STOP	n/a	n/a	n/a	-999	17	[-999, -999, -999]	n/a	FR1	2	R1137E
1831.54	1.217	915716	DISTRACT_END	n/a	n/a	n/a	-999	17	[0, 0, 0]	n/a	FR1	2	R1137E
1832.757	1.215	916325	REC_START	n/a	n/a	n/a	-999	17	[0, 0, 0]	n/a	FR1	2	R1137E
1833.972	0.915	916932	REC_WORD	1.215	n/a	MOLE	-999	17	[0, 0, 0]	n/a	FR1	2	R1137E
1834.887	1.127	917389	REC_WORD	2.13	n/a	RAT	-999	17	[0, 0, 0]	n/a	FR1	2	R1137E
1836.014	1.665	917953	REC_WORD	3.257	n/a	PEAR	-999	17	[0, 0, 0]	n/a	FR1	2	R1137E
1837.679	0.841	918785	REC_WORD	4.922	n/a	HEART	-999	17	[0, 0, 0]	n/a	FR1	2	R1137E
1838.52	6.508	919206	REC_WORD	5.763	n/a	SLIME	-999	17	[0, 0, 0]	n/a	FR1	2	R1137E
1845.028	17.745	922460	REC_WORD	12.271	n/a	FOOD	-999	17	[0, 0, 0]	n/a	FR1	2	R1137E
1862.773	1.273	931332	REC_END	n/a	n/a	n/a	-999	17	[0, 0, 0]	n/a	FR1	2	R1137E
1864.046	0.0	931968	TRIAL	n/a	n/a	n/a	-999	18	[0, 0, 0]	n/a	FR1	2	R1137E
1864.046	10.0	931968	COUNTDOWN_START	n/a	n/a	n/a	-999	18	[0, 0, 0]	n/a	FR1	2	R1137E
1874.474	0.007	937182	COUNTDOWN_END	n/a	n/a	n/a	-999	18	[0, 0, 0]	n/a	FR1	2	R1137E
1874.481	1.6	937185	ORIENT	n/a	n/a	n/a	-999	18	[0, 0, 0]	n/a	FR1	2	R1137E
1877.048	1.6	938469	WORD	n/a	wordpools/wordpool_EN.txt	POLE	1	18	[0, 0, 0]	n/a	FR1	2	R1137E
1879.482	1.6	939686	WORD	n/a	wordpools/wordpool_EN.txt	HORSE	2	18	[0, 0, 0]	n/a	FR1	2	R1137E
1881.865	1.6	940877	WORD	n/a	wordpools/wordpool_EN.txt	BALL	3	18	[0, 0, 0]	n/a	FR1	2	R1137E
1884.348	1.6	942119	WORD	n/a	wordpools/wordpool_EN.txt	APE	4	18	[0, 0, 0]	n/a	FR1	2	R1137E
1886.883	1.6	943386	WORD	n/a	wordpools/wordpool_EN.txt	CORD	5	18	[0, 0, 0]	n/a	FR1	2	R1137E
1889.433	1.6	944661	WORD	n/a	wordpools/wordpool_EN.txt	MAP	6	18	[0, 0, 0]	n/a	FR1	2	R1137E
1891.867	1.6	945878	WORD	n/a	wordpools/wordpool_EN.txt	MAIL	7	18	[0, 0, 0]	n/a	FR1	2	R1137E
1894.333	1.6	947111	WORD	n/a	wordpools/wordpool_EN.txt	TOAD	8	18	[0, 0, 0]	n/a	FR1	2	R1137E
1896.818	1.6	948353	WORD	n/a	wordpools/wordpool_EN.txt	TEETH	9	18	[0, 0, 0]	n/a	FR1	2	R1137E
1899.334	1.6	949611	WORD	n/a	wordpools/wordpool_EN.txt	BEAR	10	18	[0, 0, 0]	n/a	FR1	2	R1137E
1901.935	1.6	950912	WORD	n/a	wordpools/wordpool_EN.txt	CAT	11	18	[0, 0, 0]	n/a	FR1	2	R1137E
1904.486	1.6	952187	WORD	n/a	wordpools/wordpool_EN.txt	JUDGE	12	18	[0, 0, 0]	n/a	FR1	2	R1137E
1906.103	0.001	952996	DISTRACT_START	n/a	n/a	n/a	-999	18	[0, 0, 0]	n/a	FR1	2	R1137E
1906.104	0.016	952996	START	n/a	n/a	n/a	-999	18	[-999, -999, -999]	n/a	FR1	2	R1137E
1906.12	4.099	953004	PROB	4.076	n/a	n/a	-999	18	[9, 3, 5]	17.0	FR1	2	R1137E
1910.219	2.652	955053	PROB	2.617	n/a	n/a	-999	18	[6, 2, 2]	10.0	FR1	2	R1137E
1912.871	4.483	956379	PROB	4.461	n/a	n/a	-999	18	[9, 8, 9]	26.0	FR1	2	R1137E
1917.354	4.418	958621	PROB	4.394	n/a	n/a	-999	18	[6, 3, 9]	18.0	FR1	2	R1137E
1921.772	2.701	960830	PROB	2.672	n/a	n/a	-999	18	[2, 8, 5]	15.0	FR1	2	R1137E
1924.473	1.755	962180	PROB	1.755	n/a	n/a	-999	18	[1, 5, 5]	11.0	FR1	2	R1137E
1926.228	0.011	963057	STOP	n/a	n/a	n/a	-999	18	[-999, -999, -999]	n/a	FR1	2	R1137E
1926.239	1.084	963063	DISTRACT_END	n/a	n/a	n/a	-999	18	[0, 0, 0]	n/a	FR1	2	R1137E
1927.323	1.913	963605	REC_START	n/a	n/a	n/a	-999	18	[0, 0, 0]	n/a	FR1	2	R1137E
1929.236	0.98	964561	REC_WORD	1.913	n/a	TOAD	-999	18	[0, 0, 0]	n/a	FR1	2	R1137E
1930.216	1.028	965051	REC_WORD	2.893	n/a	HORSE	-999	18	[0, 0, 0]	n/a	FR1	2	R1137E
1931.244	0.758	965565	REC_WORD	3.921	n/a	BEAR	-999	18	[0, 0, 0]	n/a	FR1	2	R1137E
1932.002	2.034	965944	REC_WORD	4.679	n/a	ROPE	-999	18	[0, 0, 0]	n/a	FR1	2	R1137E
1934.036	2.341	966961	REC_WORD	6.713	n/a	TEETH	-999	18	[0, 0, 0]	n/a	FR1	2	R1137E
1936.377	0.849	968132	REC_WORD	9.054	n/a	MAIL	-999	18	[0, 0, 0]	n/a	FR1	2	R1137E
1937.226	3.2	968556	REC_WORD	9.903	n/a	MAP	-999	18	[0, 0, 0]	n/a	FR1	2	R1137E
1940.426	16.907	970156	REC_WORD	13.103	n/a	BALL	-999	18	[0, 0, 0]	n/a	FR1	2	R1137E
1957.333	1.829	978609	REC_END	n/a	n/a	n/a	-999	18	[0, 0, 0]	n/a	FR1	2	R1137E
1959.162	0.0	979524	TRIAL	n/a	n/a	n/a	-999	19	[0, 0, 0]	n/a	FR1	2	R1137E
1959.162	10.0	979524	COUNTDOWN_START	n/a	n/a	n/a	-999	19	[0, 0, 0]	n/a	FR1	2	R1137E
1969.59	0.007	984737	COUNTDOWN_END	n/a	n/a	n/a	-999	19	[0, 0, 0]	n/a	FR1	2	R1137E
1969.597	1.6	984741	ORIENT	n/a	n/a	n/a	-999	19	[0, 0, 0]	n/a	FR1	2	R1137E
1972.048	1.6	985966	WORD	n/a	wordpools/wordpool_EN.txt	GLOVE	1	19	[0, 0, 0]	n/a	FR1	2	R1137E
1974.515	1.6	987200	WORD	n/a	wordpools/wordpool_EN.txt	PIPE	2	19	[0, 0, 0]	n/a	FR1	2	R1137E
1977.099	1.6	988492	WORD	n/a	wordpools/wordpool_EN.txt	FAN	3	19	[0, 0, 0]	n/a	FR1	2	R1137E
1979.566	1.6	989725	WORD	n/a	wordpools/wordpool_EN.txt	PURSE	4	19	[0, 0, 0]	n/a	FR1	2	R1137E
1981.966	1.6	990925	WORD	n/a	wordpools/wordpool_EN.txt	BAND	5	19	[0, 0, 0]	n/a	FR1	2	R1137E
1984.433	1.6	992158	WORD	n/a	wordpools/wordpool_EN.txt	PIN	6	19	[0, 0, 0]	n/a	FR1	2	R1137E
1986.95	1.6	993417	WORD	n/a	wordpools/wordpool_EN.txt	WAND	7	19	[0, 0, 0]	n/a	FR1	2	R1137E
1989.333	1.6	994608	WORD	n/a	wordpools/wordpool_EN.txt	TOOL	8	19	[0, 0, 0]	n/a	FR1	2	R1137E
1991.868	1.6	995876	WORD	n/a	wordpools/wordpool_EN.txt	THUMB	9	19	[0, 0, 0]	n/a	FR1	2	R1137E
1994.401	1.6	997142	WORD	n/a	wordpools/wordpool_EN.txt	YARD	10	19	[0, 0, 0]	n/a	FR1	2	R1137E
1996.985	1.6	998434	WORD	n/a	wordpools/wordpool_EN.txt	VEST	11	19	[0, 0, 0]	n/a	FR1	2	R1137E
1999.469	1.6	999676	WORD	n/a	wordpools/wordpool_EN.txt	DESK	12	19	[0, 0, 0]	n/a	FR1	2	R1137E
2001.086	0.001	1000484	DISTRACT_START	n/a	n/a	n/a	-999	19	[0, 0, 0]	n/a	FR1	2	R1137E
2001.087	0.016	1000485	START	n/a	n/a	n/a	-999	19	[-999, -999, -999]	n/a	FR1	2	R1137E
2001.103	2.266	1000493	PROB	2.239	n/a	n/a	-999	19	[5, 1, 9]	15.0	FR1	2	R1137E
2003.369	5.851	1001626	PROB	5.829	n/a	n/a	-999	19	[5, 6, 7]	18.0	FR1	2	R1137E
2009.22	2.918	1004551	PROB	2.883	n/a	n/a	-999	19	[6, 4, 3]	13.0	FR1	2	R1137E
2012.138	4.434	1006010	PROB	4.413	n/a	n/a	-999	19	[4, 5, 3]	12.0	FR1	2	R1137E
2016.572	3.901	1008227	PROB	3.875	n/a	n/a	-999	19	[6, 1, 7]	14.0	FR1	2	R1137E
2020.473	5.329	1010177	PROB	5.329	n/a	n/a	-999	19	[8, 6, 1]	15.0	FR1	2	R1137E
2025.802	0.005	1012842	STOP	n/a	n/a	n/a	-999	19	[-999, -999, -999]	n/a	FR1	2	R1137E
2025.807	1.151	1012844	DISTRACT_END	n/a	n/a	n/a	-999	19	[0, 0, 0]	n/a	FR1	2	R1137E
2026.958	1.835	1013420	REC_START	n/a	n/a	n/a	-999	19	[0, 0, 0]	n/a	FR1	2	R1137E
2028.793	0.987	1014337	REC_WORD	1.835	n/a	VEST	-999	19	[0, 0, 0]	n/a	FR1	2	R1137E
2029.78	0.881	1014831	REC_WORD	2.822	n/a	DESK	-999	19	[0, 0, 0]	n/a	FR1	2	R1137E
2030.661	1.951	1015271	REC_WORD	3.703	n/a	PIN	-999	19	[0, 0, 0]	n/a	FR1	2	R1137E
2032.612	24.356	1016247	REC_WORD	5.654	n/a	PURSE	-999	19	[0, 0, 0]	n/a	FR1	2	R1137E
2056.968	1.228	1028424	REC_END	n/a	n/a	n/a	-999	19	[0, 0, 0]	n/a	FR1	2	R1137E
2058.196	0.0	1029038	TRIAL	n/a	n/a	n/a	-999	20	[0, 0, 0]	n/a	FR1	2	R1137E
2058.196	10.0	1029038	COUNTDOWN_START	n/a	n/a	n/a	-999	20	[0, 0, 0]	n/a	FR1	2	R1137E
2068.624	0.007	1034252	COUNTDOWN_END	n/a	n/a	n/a	-999	20	[0, 0, 0]	n/a	FR1	2	R1137E
2068.631	1.6	1034255	ORIENT	n/a	n/a	n/a	-999	20	[0, 0, 0]	n/a	FR1	2	R1137E
2071.099	1.6	1035489	WORD	n/a	wordpools/wordpool_EN.txt	COW	1	20	[0, 0, 0]	n/a	FR1	2	R1137E
2073.482	1.6	1036680	WORD	n/a	wordpools/wordpool_EN.txt	STAR	2	20	[0, 0, 0]	n/a	FR1	2	R1137E
2075.983	1.6	1037931	WORD	n/a	wordpools/wordpool_EN.txt	HOUSE	3	20	[0, 0, 0]	n/a	FR1	2	R1137E
2078.416	1.6	1039147	WORD	n/a	wordpools/wordpool_EN.txt	DRESS	4	20	[0, 0, 0]	n/a	FR1	2	R1137E
2080.917	1.6	1040398	WORD	n/a	wordpools/wordpool_EN.txt	BRIDGE	5	20	[0, 0, 0]	n/a	FR1	2	R1137E
2083.316	1.6	1041597	WORD	n/a	wordpools/wordpool_EN.txt	GATE	6	20	[0, 0, 0]	n/a	FR1	2	R1137E
2085.885	1.6	1042882	WORD	n/a	wordpools/wordpool_EN.txt	STONE	7	20	[0, 0, 0]	n/a	FR1	2	R1137E
2088.452	1.6	1044165	WORD	n/a	wordpools/wordpool_EN.txt	FOX	8	20	[0, 0, 0]	n/a	FR1	2	R1137E
2091.019	1.6	1045448	WORD	n/a	wordpools/wordpool_EN.txt	TIE	9	20	[0, 0, 0]	n/a	FR1	2	R1137E
2093.603	1.6	1046740	WORD	n/a	wordpools/wordpool_EN.txt	SKY	10	20	[0, 0, 0]	n/a	FR1	2	R1137E
2096.17	1.6	1048024	WORD	n/a	wordpools/wordpool_EN.txt	PEA	11	20	[0, 0, 0]	n/a	FR1	2	R1137E
2098.77	1.6	1049324	WORD	n/a	wordpools/wordpool_EN.txt	HILL	12	20	[0, 0, 0]	n/a	FR1	2	R1137E
2100.386	0.001	1050132	DISTRACT_START	n/a	n/a	n/a	-999	20	[0, 0, 0]	n/a	FR1	2	R1137E
2100.387	0.016	1050132	START	n/a	n/a	n/a	-999	20	[-999, -999, -999]	n/a	FR1	2	R1137E
2100.403	3.351	1050140	PROB	3.327	n/a	n/a	-999	20	[3, 7, 7]	17.0	FR1	2	R1137E
2103.754	3.001	1051816	PROB	2.977	n/a	n/a	-999	20	[1, 3, 8]	12.0	FR1	2	R1137E
2106.755	2.649	1053316	PROB	2.629	n/a	n/a	-999	20	[4, 5, 6]	15.0	FR1	2	R1137E
2109.404	3.752	1054640	PROB	3.725	n/a	n/a	-999	20	[6, 8, 1]	15.0	FR1	2	R1137E
2113.156	6.167	1056516	PROB	6.135	n/a	n/a	-999	20	[7, 8, 5]	20.0	FR1	2	R1137E
2119.323	2.225	1059600	PROB	2.225	n/a	n/a	-999	20	[1, 3, 1]	5.0	FR1	2	R1137E
2121.548	0.009	1060712	STOP	n/a	n/a	n/a	-999	20	[-999, -999, -999]	n/a	FR1	2	R1137E
2121.557	1.085	1060717	DISTRACT_END	n/a	n/a	n/a	-999	20	[0, 0, 0]	n/a	FR1	2	R1137E
2122.642	1.527	1061259	REC_START	n/a	n/a	n/a	-999	20	[0, 0, 0]	n/a	FR1	2	R1137E
2124.169	1.025	1062022	REC_WORD	1.527	n/a	COW	-999	20	[0, 0, 0]	n/a	FR1	2	R1137E
2125.194	0.677	1062535	REC_WORD	2.552	n/a	TIE	-999	20	[0, 0, 0]	n/a	FR1	2	R1137E
2125.871	1.053	1062873	REC_WORD	3.229	n/a	STAR	-999	20	[0, 0, 0]	n/a	FR1	2	R1137E
2126.924	0.887	1063400	REC_WORD	4.282	n/a	DRESS	-999	20	[0, 0, 0]	n/a	FR1	2	R1137E
2127.811	1.271	1063843	REC_WORD	5.169	n/a	GATE	-999	20	[0, 0, 0]	n/a	FR1	2	R1137E
2129.082	2.46	1064479	REC_WORD	6.44	n/a	HOUSE	-999	20	[0, 0, 0]	n/a	FR1	2	R1137E
2131.542	0.854	1065709	REC_WORD	8.9	n/a	FOX	-999	20	[0, 0, 0]	n/a	FR1	2	R1137E
2132.396	9.05	1066136	REC_WORD	9.754	n/a	TIE	-999	20	[0, 0, 0]	n/a	FR1	2	R1137E
2141.446	11.206	1070661	REC_WORD	18.804	n/a	PURSE	-999	20	[0, 0, 0]	n/a	FR1	2	R1137E
2152.652	1.211	1076263	REC_END	n/a	n/a	n/a	-999	20	[0, 0, 0]	n/a	FR1	2	R1137E
2153.863	0.0	1076869	TRIAL	n/a	n/a	n/a	-999	21	[0, 0, 0]	n/a	FR1	2	R1137E
2153.863	10.0	1076869	COUNTDOWN_START	n/a	n/a	n/a	-999	21	[0, 0, 0]	n/a	FR1	2	R1137E
2164.291	0.006	1082082	COUNTDOWN_END	n/a	n/a	n/a	-999	21	[0, 0, 0]	n/a	FR1	2	R1137E
2164.297	1.6	1082085	ORIENT	n/a	n/a	n/a	-999	21	[0, 0, 0]	n/a	FR1	2	R1137E
2166.815	1.6	1083344	WORD	n/a	wordpools/wordpool_EN.txt	SEAT	1	21	[0, 0, 0]	n/a	FR1	2	R1137E
2169.398	1.6	1084636	WORD	n/a	wordpools/wordpool_EN.txt	ROOF	2	21	[0, 0, 0]	n/a	FR1	2	R1137E
2171.916	1.6	1085895	WORD	n/a	wordpools/wordpool_EN.txt	HAND	3	21	[0, 0, 0]	n/a	FR1	2	R1137E
2174.299	1.6	1087086	WORD	n/a	wordpools/wordpool_EN.txt	BADGE	4	21	[0, 0, 0]	n/a	FR1	2	R1137E
2176.917	1.6	1088395	WORD	n/a	wordpools/wordpool_EN.txt	DIME	5	21	[0, 0, 0]	n/a	FR1	2	R1137E
2179.451	1.6	1089662	WORD	n/a	wordpools/wordpool_EN.txt	MAT	6	21	[0, 0, 0]	n/a	FR1	2	R1137E
2182.018	1.6	1090945	WORD	n/a	wordpools/wordpool_EN.txt	STICK	7	21	[0, 0, 0]	n/a	FR1	2	R1137E
2184.552	1.6	1092212	WORD	n/a	wordpools/wordpool_EN.txt	KITE	8	21	[0, 0, 0]	n/a	FR1	2	R1137E
2186.985	1.6	1093429	WORD	n/a	wordpools/wordpool_EN.txt	SMILE	9	21	[0, 0, 0]	n/a	FR1	2	R1137E
2189.453	1.6	1094663	WORD	n/a	wordpools/wordpool_EN.txt	SCHOOL	10	21	[0, 0, 0]	n/a	FR1	2	R1137E
2191.903	1.6	1095888	WORD	n/a	wordpools/wordpool_EN.txt	CANE	11	21	[0, 0, 0]	n/a	FR1	2	R1137E
2194.454	1.6	1097163	WORD	n/a	wordpools/wordpool_EN.txt	COUCH	12	21	[0, 0, 0]	n/a	FR1	2	R1137E
2196.071	0.0	1097971	DISTRACT_START	n/a	n/a	n/a	-999	21	[0, 0, 0]	n/a	FR1	2	R1137E
2196.071	0.016	1097971	START	n/a	n/a	n/a	-999	21	[-999, -999, -999]	n/a	FR1	2	R1137E
2196.087	3.634	1097979	PROB	3.599	n/a	n/a	-999	21	[9, 8, 2]	19.0	FR1	2	R1137E
2199.721	4.55	1099796	PROB	4.525	n/a	n/a	-999	21	[8, 5, 9]	22.0	FR1	2	R1137E
2204.271	1.918	1102071	PROB	1.896	n/a	n/a	-999	21	[3, 7, 4]	14.0	FR1	2	R1137E
2206.189	4.834	1103030	PROB	4.809	n/a	n/a	-999	21	[8, 3, 4]	15.0	FR1	2	R1137E
2211.023	3.067	1105447	PROB	3.04	n/a	n/a	-999	21	[6, 5, 2]	13.0	FR1	2	R1137E
2214.09	3.525	1106980	PROB	3.525	n/a	n/a	-999	21	[9, 5, 3]	17.0	FR1	2	R1137E
2217.615	0.009	1108743	STOP	n/a	n/a	n/a	-999	21	[-999, -999, -999]	n/a	FR1	2	R1137E
2217.624	1.034	1108747	DISTRACT_END	n/a	n/a	n/a	-999	21	[0, 0, 0]	n/a	FR1	2	R1137E
2218.658	2.004	1109264	REC_START	n/a	n/a	n/a	-999	21	[0, 0, 0]	n/a	FR1	2	R1137E
2220.662	1.168	1110266	REC_WORD	2.004	n/a	ROOF	-999	21	[0, 0, 0]	n/a	FR1	2	R1137E
2221.83	3.498	1110850	REC_WORD	3.172	n/a	BADGE	-999	21	[0, 0, 0]	n/a	FR1	2	R1137E
2225.328	4.27	1112599	REC_WORD	6.67	n/a	SCHOOL	-999	21	[0, 0, 0]	n/a	FR1	2	R1137E
2229.598	4.062	1114734	REC_WORD	10.94	n/a	SMILE	-999	21	[0, 0, 0]	n/a	FR1	2	R1137E
2233.66	5.817	1116765	REC_WORD	15.002	n/a	CAVE	-999	21	[0, 0, 0]	n/a	FR1	2	R1137E
2239.477	9.192	1119673	REC_WORD	20.819	n/a	CANE	-999	21	[0, 0, 0]	n/a	FR1	2	R1137E
2248.669	1.844	1124269	REC_END	n/a	n/a	n/a	-999	21	[0, 0, 0]	n/a	FR1	2	R1137E
2250.513	10.0	1125191	COUNTDOWN_START	n/a	n/a	n/a	-999	22	[0, 0, 0]	n/a	FR1	2	R1137E
2250.514	10.427	1125191	TRIAL	n/a	n/a	n/a	-999	22	[0, 0, 0]	n/a	FR1	2	R1137E
2260.941	0.008	1130405	COUNTDOWN_END	n/a	n/a	n/a	-999	22	[0, 0, 0]	n/a	FR1	2	R1137E
2260.949	1.6	1130409	ORIENT	n/a	n/a	n/a	-999	22	[0, 0, 0]	n/a	FR1	2	R1137E
2263.381	1.6	1131625	WORD	n/a	wordpools/wordpool_EN.txt	CLAY	1	22	[0, 0, 0]	n/a	FR1	2	R1137E
2265.816	1.6	1132842	WORD	n/a	wordpools/wordpool_EN.txt	INK	2	22	[0, 0, 0]	n/a	FR1	2	R1137E
2268.399	1.6	1134133	WORD	n/a	wordpools/wordpool_EN.txt	CHIN	3	22	[0, 0, 0]	n/a	FR1	2	R1137E
2270.967	1.6	1135417	WORD	n/a	wordpools/wordpool_EN.txt	BANK	4	22	[0, 0, 0]	n/a	FR1	2	R1137E
2273.451	1.6	1136659	WORD	n/a	wordpools/wordpool_EN.txt	PEACH	5	22	[0, 0, 0]	n/a	FR1	2	R1137E
2276.035	1.6	1137951	WORD	n/a	wordpools/wordpool_EN.txt	STOOL	6	22	[0, 0, 0]	n/a	FR1	2	R1137E
2278.601	1.6	1139234	WORD	n/a	wordpools/wordpool_EN.txt	BENCH	7	22	[0, 0, 0]	n/a	FR1	2	R1137E
2281.152	1.6	1140510	WORD	n/a	wordpools/wordpool_EN.txt	THREAD	8	22	[0, 0, 0]	n/a	FR1	2	R1137E
2283.769	1.6	1141818	WORD	n/a	wordpools/wordpool_EN.txt	LAMP	9	22	[0, 0, 0]	n/a	FR1	2	R1137E
2286.352	1.6	1143109	WORD	n/a	wordpools/wordpool_EN.txt	SOAP	10	22	[0, 0, 0]	n/a	FR1	2	R1137E
2288.737	1.6	1144302	WORD	n/a	wordpools/wordpool_EN.txt	FLUTE	11	22	[0, 0, 0]	n/a	FR1	2	R1137E
2291.236	1.6	1145551	WORD	n/a	wordpools/wordpool_EN.txt	PASTE	12	22	[0, 0, 0]	n/a	FR1	2	R1137E
2292.837	0.001	1146352	DISTRACT_START	n/a	n/a	n/a	-999	22	[0, 0, 0]	n/a	FR1	2	R1137E
2292.838	0.016	1146352	START	n/a	n/a	n/a	-999	22	[-999, -999, -999]	n/a	FR1	2	R1137E
2292.854	2.984	1146360	PROB	2.952	n/a	n/a	-999	22	[2, 6, 8]	16.0	FR1	2	R1137E
2295.838	2.017	1147852	PROB	1.993	n/a	n/a	-999	22	[2, 2, 8]	12.0	FR1	2	R1137E
2297.855	1.95	1148861	PROB	1.92	n/a	n/a	-999	22	[1, 3, 3]	7.0	FR1	2	R1137E
2299.805	1.917	1149836	PROB	1.889	n/a	n/a	-999	22	[5, 5, 4]	14.0	FR1	2	R1137E
2301.722	2.617	1150794	PROB	2.588	n/a	n/a	-999	22	[4, 2, 2]	8.0	FR1	2	R1137E
2304.339	2.368	1152102	PROB	2.332	n/a	n/a	-999	22	[3, 8, 1]	12.0	FR1	2	R1137E
2306.707	3.85	1153286	PROB	3.828	n/a	n/a	-999	22	[1, 7, 9]	17.0	FR1	2	R1137E
2310.557	3.146	1155211	PROB	3.146	n/a	n/a	-999	22	[5, 2, 4]	11.0	FR1	2	R1137E
2313.703	0.005	1156784	STOP	n/a	n/a	n/a	-999	22	[-999, -999, -999]	n/a	FR1	2	R1137E
2313.708	1.1	1156787	DISTRACT_END	n/a	n/a	n/a	-999	22	[0, 0, 0]	n/a	FR1	2	R1137E
2314.808	1.426	1157337	REC_START	n/a	n/a	n/a	-999	22	[0, 0, 0]	n/a	FR1	2	R1137E
2316.234	1.087	1158050	REC_WORD	1.426	n/a	PASTE	-999	22	[0, 0, 0]	n/a	FR1	2	R1137E
2317.321	2.483	1158593	REC_WORD	2.513	n/a	TOOTH	-999	22	[0, 0, 0]	n/a	FR1	2	R1137E
2319.804	1.132	1159835	REC_WORD	4.996	n/a	INK	-999	22	[0, 0, 0]	n/a	FR1	2	R1137E
2320.936	23.888	1160401	REC_WORD	6.128	n/a	CLAY	-999	22	[0, 0, 0]	n/a	FR1	2	R1137E
2344.824	1.455	1172344	REC_END	n/a	n/a	n/a	-999	22	[0, 0, 0]	n/a	FR1	2	R1137E
2346.279	0.0	1173071	TRIAL	n/a	n/a	n/a	-999	23	[0, 0, 0]	n/a	FR1	2	R1137E
2346.279	10.0	1173071	COUNTDOWN_START	n/a	n/a	n/a	-999	23	[0, 0, 0]	n/a	FR1	2	R1137E
2356.707	0.008	1178285	COUNTDOWN_END	n/a	n/a	n/a	-999	23	[0, 0, 0]	n/a	FR1	2	R1137E
2356.715	1.6	1178289	ORIENT	n/a	n/a	n/a	-999	23	[0, 0, 0]	n/a	FR1	2	R1137E
2359.116	1.6	1179489	WORD	n/a	wordpools/wordpool_EN.txt	RAIN	1	23	[0, 0, 0]	n/a	FR1	2	R1137E
2361.6	1.6	1180731	WORD	n/a	wordpools/wordpool_EN.txt	SKI	2	23	[0, 0, 0]	n/a	FR1	2	R1137E
2364.15	1.6	1182006	WORD	n/a	wordpools/wordpool_EN.txt	DRUM	3	23	[0, 0, 0]	n/a	FR1	2	R1137E
2366.734	1.6	1183298	WORD	n/a	wordpools/wordpool_EN.txt	CAR	4	23	[0, 0, 0]	n/a	FR1	2	R1137E
2369.168	1.6	1184515	WORD	n/a	wordpools/wordpool_EN.txt	CROWN	5	23	[0, 0, 0]	n/a	FR1	2	R1137E
2371.701	1.6	1185782	WORD	n/a	wordpools/wordpool_EN.txt	STAIR	6	23	[0, 0, 0]	n/a	FR1	2	R1137E
2374.102	1.6	1186982	WORD	n/a	wordpools/wordpool_EN.txt	KEY	7	23	[0, 0, 0]	n/a	FR1	2	R1137E
2376.519	1.6	1188190	WORD	n/a	wordpools/wordpool_EN.txt	DOOR	8	23	[0, 0, 0]	n/a	FR1	2	R1137E
2378.919	1.6	1189390	WORD	n/a	wordpools/wordpool_EN.txt	CHIEF	9	23	[0, 0, 0]	n/a	FR1	2	R1137E
2381.503	1.6	1190682	WORD	n/a	wordpools/wordpool_EN.txt	WAVE	10	23	[0, 0, 0]	n/a	FR1	2	R1137E
2384.07	1.6	1191966	WORD	n/a	wordpools/wordpool_EN.txt	TOY	11	23	[0, 0, 0]	n/a	FR1	2	R1137E
2386.604	1.6	1193233	WORD	n/a	wordpools/wordpool_EN.txt	BLOOM	12	23	[0, 0, 0]	n/a	FR1	2	R1137E
2388.22	0.001	1194041	DISTRACT_START	n/a	n/a	n/a	-999	23	[0, 0, 0]	n/a	FR1	2	R1137E
2388.221	0.016	1194041	START	n/a	n/a	n/a	-999	23	[-999, -999, -999]	n/a	FR1	2	R1137E
2388.237	3.335	1194049	PROB	3.308	n/a	n/a	-999	23	[8, 4, 5]	17.0	FR1	2	R1137E
2391.572	2.267	1195717	PROB	2.245	n/a	n/a	-999	23	[8, 2, 9]	19.0	FR1	2	R1137E
2393.839	3.167	1196850	PROB	3.146	n/a	n/a	-999	23	[5, 8, 3]	16.0	FR1	2	R1137E
2397.006	4.567	1198433	PROB	4.539	n/a	n/a	-999	23	[6, 5, 9]	20.0	FR1	2	R1137E
2401.573	2.451	1200717	PROB	2.428	n/a	n/a	-999	23	[7, 1, 4]	12.0	FR1	2	R1137E
2404.024	2.5	1201942	PROB	2.473	n/a	n/a	-999	23	[6, 2, 8]	16.0	FR1	2	R1137E
2406.524	2.525	1203192	PROB	2.525	n/a	n/a	-999	23	[4, 2, 6]	12.0	FR1	2	R1137E
2409.049	0.009	1204455	STOP	n/a	n/a	n/a	-999	23	[-999, -999, -999]	n/a	FR1	2	R1137E
2409.058	1.134	1204459	DISTRACT_END	n/a	n/a	n/a	-999	23	[0, 0, 0]	n/a	FR1	2	R1137E
2410.192	1.713	1205026	REC_START	n/a	n/a	n/a	-999	23	[0, 0, 0]	n/a	FR1	2	R1137E
2411.905	1.308	1205883	REC_WORD	1.713	n/a	SKI	-999	23	[0, 0, 0]	n/a	FR1	2	R1137E
2413.213	0.819	1206536	REC_WORD	3.021	n/a	HILL	-999	23	[0, 0, 0]	n/a	FR1	2	R1137E
2414.032	0.873	1206946	REC_WORD	3.84	n/a	CAR	-999	23	[0, 0, 0]	n/a	FR1	2	R1137E
2414.905	1.509	1207382	REC_WORD	4.713	n/a	KEY	-999	23	[0, 0, 0]	n/a	FR1	2	R1137E
2416.414	0.84	1208137	REC_WORD	6.222	n/a	DOOR	-999	23	[0, 0, 0]	n/a	FR1	2	R1137E
2417.254	0.942	1208557	REC_WORD	7.062	n/a	CROWN	-999	23	[0, 0, 0]	n/a	FR1	2	R1137E
2418.196	7.927	1209028	REC_WORD	8.004	n/a	CHIEF	-999	23	[0, 0, 0]	n/a	FR1	2	R1137E
2426.123	7.597	1212991	REC_WORD	15.931	n/a	BLOOM	-999	23	[0, 0, 0]	n/a	FR1	2	R1137E
2433.72	6.487	1216789	REC_WORD	23.528	n/a	SNOW	-999	23	[0, 0, 0]	n/a	FR1	2	R1137E
2440.207	1.39	1220033	REC_END	n/a	n/a	n/a	-999	23	[0, 0, 0]	n/a	FR1	2	R1137E
2441.597	10.0	1220728	COUNTDOWN_START	n/a	n/a	n/a	-999	24	[0, 0, 0]	n/a	FR1	2	R1137E
2441.597	10.428	1220728	TRIAL	n/a	n/a	n/a	-999	24	[0, 0, 0]	n/a	FR1	2	R1137E
2452.025	0.007	1225941	COUNTDOWN_END	n/a	n/a	n/a	-999	24	[0, 0, 0]	n/a	FR1	2	R1137E
2452.032	1.6	1225945	ORIENT	n/a	n/a	n/a	-999	24	[0, 0, 0]	n/a	FR1	2	R1137E
2454.483	1.6	1227170	WORD	n/a	wordpools/wordpool_EN.txt	NET	1	24	[0, 0, 0]	n/a	FR1	2	R1137E
2457.067	1.6	1228462	WORD	n/a	wordpools/wordpool_EN.txt	MILK	2	24	[0, 0, 0]	n/a	FR1	2	R1137E
2459.65	1.6	1229754	WORD	n/a	wordpools/wordpool_EN.txt	CASH	3	24	[0, 0, 0]	n/a	FR1	2	R1137E
2462.067	1.6	1230962	WORD	n/a	wordpools/wordpool_EN.txt	GOLD	4	24	[0, 0, 0]	n/a	FR1	2	R1137E
2464.568	1.6	1232213	WORD	n/a	wordpools/wordpool_EN.txt	STEAK	5	24	[0, 0, 0]	n/a	FR1	2	R1137E
2467.135	1.6	1233496	WORD	n/a	wordpools/wordpool_EN.txt	GRAPE	6	24	[0, 0, 0]	n/a	FR1	2	R1137E
2469.569	1.6	1234713	WORD	n/a	wordpools/wordpool_EN.txt	CORN	7	24	[0, 0, 0]	n/a	FR1	2	R1137E
2472.069	1.6	1235963	WORD	n/a	wordpools/wordpool_EN.txt	CLOTH	8	24	[0, 0, 0]	n/a	FR1	2	R1137E
2474.653	1.6	1237255	WORD	n/a	wordpools/wordpool_EN.txt	FILM	9	24	[0, 0, 0]	n/a	FR1	2	R1137E
2477.202	1.6	1238529	WORD	n/a	wordpools/wordpool_EN.txt	PIG	10	24	[0, 0, 0]	n/a	FR1	2	R1137E
2479.57	1.6	1239713	WORD	n/a	wordpools/wordpool_EN.txt	BEAK	11	24	[0, 0, 0]	n/a	FR1	2	R1137E
2482.154	1.6	1241005	WORD	n/a	wordpools/wordpool_EN.txt	PEARL	12	24	[0, 0, 0]	n/a	FR1	2	R1137E
2483.771	0.001	1241814	DISTRACT_START	n/a	n/a	n/a	-999	24	[0, 0, 0]	n/a	FR1	2	R1137E
2483.772	0.016	1241814	START	n/a	n/a	n/a	-999	24	[-999, -999, -999]	n/a	FR1	2	R1137E
2483.788	3.449	1241822	PROB	3.427	n/a	n/a	-999	24	[3, 4, 4]	12.0	FR1	2	R1137E
2487.237	3.519	1243546	PROB	3.491	n/a	n/a	-999	24	[5, 2, 7]	14.0	FR1	2	R1137E
2490.756	4.45	1245306	PROB	4.419	n/a	n/a	-999	24	[5, 7, 9]	21.0	FR1	2	R1137E
2495.206	2.684	1247531	PROB	2.649	n/a	n/a	-999	24	[4, 2, 5]	11.0	FR1	2	R1137E
2497.89	5.118	1248873	PROB	5.084	n/a	n/a	-999	24	[6, 9, 7]	22.0	FR1	2	R1137E
2503.008	2.55	1251431	PROB	2.55	n/a	n/a	-999	24	[3, 2, 3]	8.0	FR1	2	R1137E
2505.558	0.017	1252706	STOP	n/a	n/a	n/a	-999	24	[-999, -999, -999]	n/a	FR1	2	R1137E
2505.575	1.084	1252715	DISTRACT_END	n/a	n/a	n/a	-999	24	[0, 0, 0]	n/a	FR1	2	R1137E
2506.659	1.101	1253257	REC_START	n/a	n/a	n/a	-999	24	[0, 0, 0]	n/a	FR1	2	R1137E
2507.76	0.859	1253807	REC_WORD	1.101	n/a	PIG	-999	24	[0, 0, 0]	n/a	FR1	2	R1137E
2508.619	0.651	1254237	REC_WORD	1.96	n/a	BEAK	-999	24	[0, 0, 0]	n/a	FR1	2	R1137E
2509.27	1.105	1254562	REC_WORD	2.611	n/a	STEAK	-999	24	[0, 0, 0]	n/a	FR1	2	R1137E
2510.375	9.091	1255115	REC_WORD	3.716	n/a	MILK	-999	24	[0, 0, 0]	n/a	FR1	2	R1137E
2519.466	0.599	1259660	REC_WORD	12.807	n/a	NET	-999	24	[0, 0, 0]	n/a	FR1	2	R1137E
2520.065	0.746	1259960	REC_WORD	13.406	n/a	CASH	-999	24	[0, 0, 0]	n/a	FR1	2	R1137E
2520.811	15.859	1260333	REC_WORD	14.152	n/a	GOLD	-999	24	[0, 0, 0]	n/a	FR1	2	R1137E
2536.67	2.061	1268262	REC_END	n/a	n/a	n/a	-999	24	[0, 0, 0]	n/a	FR1	2	R1137E
2538.731	0.0	1269292	TRIAL	n/a	n/a	n/a	-999	25	[0, 0, 0]	n/a	FR1	2	R1137E
2538.731	10.0	1269292	COUNTDOWN_START	n/a	n/a	n/a	-999	25	[0, 0, 0]	n/a	FR1	2	R1137E
2549.159	0.007	1274506	COUNTDOWN_END	n/a	n/a	n/a	-999	25	[0, 0, 0]	n/a	FR1	2	R1137E
2549.166	1.6	1274509	ORIENT	n/a	n/a	n/a	-999	25	[0, 0, 0]	n/a	FR1	2	R1137E
2551.75	1.6	1275801	WORD	n/a	wordpools/wordpool_EN.txt	SLEEVE	1	25	[0, 0, 0]	n/a	FR1	2	R1137E
2554.199	1.6	1277026	WORD	n/a	wordpools/wordpool_EN.txt	DITCH	2	25	[0, 0, 0]	n/a	FR1	2	R1137E
2556.601	1.6	1278227	WORD	n/a	wordpools/wordpool_EN.txt	VINE	3	25	[0, 0, 0]	n/a	FR1	2	R1137E
2558.984	1.6	1279418	WORD	n/a	wordpools/wordpool_EN.txt	BUSH	4	25	[0, 0, 0]	n/a	FR1	2	R1137E
2561.552	1.6	1280702	WORD	n/a	wordpools/wordpool_EN.txt	SNAIL	5	25	[0, 0, 0]	n/a	FR1	2	R1137E
2564.085	1.6	1281968	WORD	n/a	wordpools/wordpool_EN.txt	WHEEL	6	25	[0, 0, 0]	n/a	FR1	2	R1137E
2566.569	1.6	1283210	WORD	n/a	wordpools/wordpool_EN.txt	BIRD	7	25	[0, 0, 0]	n/a	FR1	2	R1137E
2569.036	1.6	1284444	WORD	n/a	wordpools/wordpool_EN.txt	EAR	8	25	[0, 0, 0]	n/a	FR1	2	R1137E
2571.553	1.6	1285702	WORD	n/a	wordpools/wordpool_EN.txt	SWAMP	9	25	[0, 0, 0]	n/a	FR1	2	R1137E
2574.104	1.6	1286978	WORD	n/a	wordpools/wordpool_EN.txt	HOLE	10	25	[0, 0, 0]	n/a	FR1	2	R1137E
2576.654	1.6	1288252	WORD	n/a	wordpools/wordpool_EN.txt	EEL	11	25	[0, 0, 0]	n/a	FR1	2	R1137E
2579.22	1.6	1289535	WORD	n/a	wordpools/wordpool_EN.txt	CRANE	12	25	[0, 0, 0]	n/a	FR1	2	R1137E
2580.821	0.001	1290336	DISTRACT_START	n/a	n/a	n/a	-999	25	[0, 0, 0]	n/a	FR1	2	R1137E
2580.822	0.016	1290336	START	n/a	n/a	n/a	-999	25	[-999, -999, -999]	n/a	FR1	2	R1137E
2580.838	2.167	1290344	PROB	2.141	n/a	n/a	-999	25	[2, 1, 9]	12.0	FR1	2	R1137E
2583.005	3.167	1291428	PROB	3.135	n/a	n/a	-999	25	[3, 9, 2]	14.0	FR1	2	R1137E
2586.172	3.651	1293011	PROB	3.615	n/a	n/a	-999	25	[9, 7, 5]	21.0	FR1	2	R1137E
2589.823	3.984	1294837	PROB	3.964	n/a	n/a	-999	25	[8, 4, 7]	19.0	FR1	2	R1137E
2593.807	1.867	1296828	PROB	1.845	n/a	n/a	-999	25	[6, 1, 1]	8.0	FR1	2	R1137E
2595.674	3.284	1297762	PROB	3.25	n/a	n/a	-999	25	[4, 8, 1]	13.0	FR1	2	R1137E
2598.958	4.718	1299404	PROB	4.718	n/a	n/a	-999	25	[6, 9, 9]	24.0	FR1	2	R1137E
2603.676	0.016	1301763	STOP	n/a	n/a	n/a	-999	25	[-999, -999, -999]	n/a	FR1	2	R1137E
2603.692	1.085	1301771	DISTRACT_END	n/a	n/a	n/a	-999	25	[0, 0, 0]	n/a	FR1	2	R1137E
2604.777	1.424	1302313	REC_START	n/a	n/a	n/a	-999	25	[0, 0, 0]	n/a	FR1	2	R1137E
2606.201	0.78	1303025	REC_WORD	1.424	n/a	BIRD	-999	25	[0, 0, 0]	n/a	FR1	2	R1137E
2606.981	1.006	1303415	REC_WORD	2.204	n/a	NAIL	-999	25	[0, 0, 0]	n/a	FR1	2	R1137E
2607.987	3.512	1303918	REC_WORD	3.21	n/a	TIRE	-999	25	[0, 0, 0]	n/a	FR1	2	R1137E
2611.499	2.16	1305674	REC_WORD	6.722	n/a	BEAK	-999	25	[0, 0, 0]	n/a	FR1	2	R1137E
2613.659	4.966	1306754	REC_WORD	8.882	n/a	WHEEL	-999	25	[0, 0, 0]	n/a	FR1	2	R1137E
2618.625	16.162	1309237	REC_WORD	13.848	n/a	BADGE	-999	25	[0, 0, 0]	n/a	FR1	2	R1137E
2634.787	7.712	1317317	REC_END	n/a	n/a	n/a	-999	25	[0, 0, 0]	n/a	FR1	2	R1137E
2642.499	0.0	-1	SESS_END	n/a	n/a	n/a	-999	25	[0, 0, 0]	n/a	FR1	2	R1137E
