onset	duration	sample	trial_type	response_time	stim_file	item_name	serialpos	list	test	answer	experiment	session	subject
0.0	18.473	1936732	SESS_START	n/a	n/a	n/a	-999	-999	[0, 0, 0]	n/a	FR1	1	R1118N
18.473	10.0	1955204	COUNTDOWN_START	n/a	n/a	n/a	-999	-999	[0, 0, 0]	n/a	FR1	1	R1118N
28.901	3.708	1965632	COUNTDOWN_END	n/a	n/a	n/a	-999	-999	[0, 0, 0]	n/a	FR1	1	R1118N
32.609	1.6	1969339	PRACTICE_WORD	n/a	n/a	BEAM	1	-1	[0, 0, 0]	n/a	FR1	1	R1118N
35.159	1.6	1971889	PRACTICE_WORD	n/a	n/a	RING	2	-1	[0, 0, 0]	n/a	FR1	1	R1118N
37.726	1.6	1974456	PRACTICE_WORD	n/a	n/a	TONGUE	3	-1	[0, 0, 0]	n/a	FR1	1	R1118N
40.26	1.6	1976990	PRACTICE_WORD	n/a	n/a	CAMEL	4	-1	[0, 0, 0]	n/a	FR1	1	R1118N
42.744	1.6	1979474	PRACTICE_WORD	n/a	n/a	FLOOD	5	-1	[0, 0, 0]	n/a	FR1	1	R1118N
45.161	1.6	1981891	PRACTICE_WORD	n/a	n/a	CHEST	6	-1	[0, 0, 0]	n/a	FR1	1	R1118N
47.728	1.6	1984458	PRACTICE_WORD	n/a	n/a	COTTON	7	-1	[0, 0, 0]	n/a	FR1	1	R1118N
50.329	1.6	1987059	PRACTICE_WORD	n/a	n/a	RHINO	8	-1	[0, 0, 0]	n/a	FR1	1	R1118N
52.879	1.6	1989609	PRACTICE_WORD	n/a	n/a	WAGON	9	-1	[0, 0, 0]	n/a	FR1	1	R1118N
55.362	1.6	1992091	PRACTICE_WORD	n/a	n/a	WATCH	10	-1	[0, 0, 0]	n/a	FR1	1	R1118N
57.83	1.6	1994559	PRACTICE_WORD	n/a	n/a	IRON	11	-1	[0, 0, 0]	n/a	FR1	1	R1118N
60.447	1.6	1997176	PRACTICE_WORD	n/a	n/a	ATTIC	12	-1	[0, 0, 0]	n/a	FR1	1	R1118N
62.048	0.0	1998777	PRACTICE_DISTRACT_START	n/a	n/a	n/a	-999	-1	[0, 0, 0]	n/a	FR1	1	R1118N
62.048	0.017	1998777	START	n/a	n/a	n/a	-999	-1	[-999, -999, -999]	n/a	FR1	1	R1118N
62.065	6.068	1998794	PROB	6.033	n/a	n/a	-999	-1	[8, 7, 7]	22.0	FR1	1	R1118N
68.133	5.951	2004862	PROB	5.917	n/a	n/a	-999	-1	[8, 7, 8]	23.0	FR1	1	R1118N
74.084	3.516	2010813	PROB	3.493	n/a	n/a	-999	-1	[8, 7, 6]	23.0	FR1	1	R1118N
77.6	2.435	2014329	PROB	2.409	n/a	n/a	-999	-1	[8, 8, 8]	24.0	FR1	1	R1118N
80.035	5.782	2016764	PROB	5.782	n/a	n/a	-999	-1	[2, 9, 5]	17.0	FR1	1	R1118N
85.817	0.017	2022545	STOP	n/a	n/a	n/a	-999	-1	[-999, -999, -999]	n/a	FR1	1	R1118N
85.834	0.553	2022562	PRACTICE_DISTRACT_END	n/a	n/a	n/a	-999	-1	[0, 0, 0]	n/a	FR1	1	R1118N
86.387	30.514	2023115	PRACTICE_REC_START	n/a	n/a	n/a	-999	-1	[0, 0, 0]	n/a	FR1	1	R1118N
116.901	6.191	2053628	PRACTICE_REC_END	n/a	n/a	n/a	-999	-1	[0, 0, 0]	n/a	FR1	1	R1118N
123.092	10.0	2059819	COUNTDOWN_START	n/a	n/a	n/a	-999	1	[0, 0, 0]	n/a	FR1	1	R1118N
123.092	10.428	2059819	TRIAL	n/a	n/a	n/a	-999	1	[0, 0, 0]	n/a	FR1	1	R1118N
133.52	0.006	2070246	COUNTDOWN_END	n/a	n/a	n/a	-999	1	[0, 0, 0]	n/a	FR1	1	R1118N
133.526	1.6	2070252	ORIENT	n/a	n/a	n/a	-999	1	[0, 0, 0]	n/a	FR1	1	R1118N
135.976	1.6	2072702	WORD	n/a	wordpools/wordpool_EN.txt	FOOT	1	1	[0, 0, 0]	n/a	FR1	1	R1118N
138.56	1.6	2075286	WORD	n/a	wordpools/wordpool_EN.txt	HORSE	2	1	[0, 0, 0]	n/a	FR1	1	R1118N
141.01	1.6	2077736	WORD	n/a	wordpools/wordpool_EN.txt	CALF	3	1	[0, 0, 0]	n/a	FR1	1	R1118N
143.427	1.6	2080153	WORD	n/a	wordpools/wordpool_EN.txt	BAG	4	1	[0, 0, 0]	n/a	FR1	1	R1118N
145.811	1.6	2082537	WORD	n/a	wordpools/wordpool_EN.txt	NOSE	5	1	[0, 0, 0]	n/a	FR1	1	R1118N
148.362	1.6	2085088	WORD	n/a	wordpools/wordpool_EN.txt	DITCH	6	1	[0, 0, 0]	n/a	FR1	1	R1118N
150.979	1.6	2087705	WORD	n/a	wordpools/wordpool_EN.txt	WAND	7	1	[0, 0, 0]	n/a	FR1	1	R1118N
153.562	1.6	2090288	WORD	n/a	wordpools/wordpool_EN.txt	SHIRT	8	1	[0, 0, 0]	n/a	FR1	1	R1118N
156.047	1.6	2092772	WORD	n/a	wordpools/wordpool_EN.txt	MOUTH	9	1	[0, 0, 0]	n/a	FR1	1	R1118N
158.647	1.6	2095372	WORD	n/a	wordpools/wordpool_EN.txt	CHALK	10	1	[0, 0, 0]	n/a	FR1	1	R1118N
161.214	1.6	2097939	WORD	n/a	wordpools/wordpool_EN.txt	SINK	11	1	[0, 0, 0]	n/a	FR1	1	R1118N
163.747	1.6	2100472	WORD	n/a	wordpools/wordpool_EN.txt	MUD	12	1	[0, 0, 0]	n/a	FR1	1	R1118N
165.364	0.001	2102089	DISTRACT_START	n/a	n/a	n/a	-999	1	[0, 0, 0]	n/a	FR1	1	R1118N
165.365	0.016	2102090	START	n/a	n/a	n/a	-999	1	[-999, -999, -999]	n/a	FR1	1	R1118N
165.381	5.784	2102106	PROB	5.765	n/a	n/a	-999	1	[4, 2, 7]	13.0	FR1	1	R1118N
171.165	5.618	2107890	PROB	5.58	n/a	n/a	-999	1	[4, 9, 8]	12.0	FR1	1	R1118N
176.783	1.933	2113508	PROB	1.898	n/a	n/a	-999	1	[1, 1, 6]	8.0	FR1	1	R1118N
178.716	2.319	2115441	PROB	2.285	n/a	n/a	-999	1	[8, 3, 7]	18.0	FR1	1	R1118N
181.035	3.649	2117759	PROB	3.614	n/a	n/a	-999	1	[6, 6, 9]	17.0	FR1	1	R1118N
184.684	6.861	2121408	PROB	6.861	n/a	n/a	-999	1	[1, 5, 8]	16.0	FR1	1	R1118N
191.545	0.007	2128269	STOP	n/a	n/a	n/a	-999	1	[-999, -999, -999]	n/a	FR1	1	R1118N
191.552	1.134	2128276	DISTRACT_END	n/a	n/a	n/a	-999	1	[0, 0, 0]	n/a	FR1	1	R1118N
192.686	1.441	2129410	REC_START	n/a	n/a	n/a	-999	1	[0, 0, 0]	n/a	FR1	1	R1118N
194.127	0.983	2130851	REC_WORD	1.441	n/a	FOOT	-999	1	[0, 0, 0]	n/a	FR1	1	R1118N
195.11	1.429	2131834	REC_WORD_VV	2.424	n/a	<>	-999	1	[0, 0, 0]	n/a	FR1	1	R1118N
196.539	1.666	2133263	REC_WORD_VV	3.853	n/a	<>	-999	1	[0, 0, 0]	n/a	FR1	1	R1118N
198.205	0.957	2134929	REC_WORD	5.519	n/a	BAG	-999	1	[0, 0, 0]	n/a	FR1	1	R1118N
199.162	1.905	2135886	REC_WORD	6.476	n/a	CALF	-999	1	[0, 0, 0]	n/a	FR1	1	R1118N
201.067	21.632	2137791	REC_WORD	8.381	n/a	TONGUE	-999	1	[0, 0, 0]	n/a	FR1	1	R1118N
222.699	2.125	2159422	REC_END	n/a	n/a	n/a	-999	1	[0, 0, 0]	n/a	FR1	1	R1118N
224.824	0.0	2161547	TRIAL	n/a	n/a	n/a	-999	2	[0, 0, 0]	n/a	FR1	1	R1118N
224.824	10.0	2161547	COUNTDOWN_START	n/a	n/a	n/a	-999	2	[0, 0, 0]	n/a	FR1	1	R1118N
235.252	0.007	2171974	COUNTDOWN_END	n/a	n/a	n/a	-999	2	[0, 0, 0]	n/a	FR1	1	R1118N
235.259	1.6	2171981	ORIENT	n/a	n/a	n/a	-999	2	[0, 0, 0]	n/a	FR1	1	R1118N
237.759	1.6	2174481	WORD	n/a	wordpools/wordpool_EN.txt	BRUSH	1	2	[0, 0, 0]	n/a	FR1	1	R1118N
240.377	1.6	2177099	WORD	n/a	wordpools/wordpool_EN.txt	FLAME	2	2	[0, 0, 0]	n/a	FR1	1	R1118N
242.861	1.6	2179583	WORD	n/a	wordpools/wordpool_EN.txt	STICK	3	2	[0, 0, 0]	n/a	FR1	1	R1118N
245.461	1.6	2182183	WORD	n/a	wordpools/wordpool_EN.txt	ROSE	4	2	[0, 0, 0]	n/a	FR1	1	R1118N
248.011	1.6	2184733	WORD	n/a	wordpools/wordpool_EN.txt	POND	5	2	[0, 0, 0]	n/a	FR1	1	R1118N
250.545	1.6	2187267	WORD	n/a	wordpools/wordpool_EN.txt	PARK	6	2	[0, 0, 0]	n/a	FR1	1	R1118N
253.012	1.6	2189734	WORD	n/a	wordpools/wordpool_EN.txt	SLIME	7	2	[0, 0, 0]	n/a	FR1	1	R1118N
255.396	1.6	2192117	WORD	n/a	wordpools/wordpool_EN.txt	DEER	8	2	[0, 0, 0]	n/a	FR1	1	R1118N
257.963	1.6	2194684	WORD	n/a	wordpools/wordpool_EN.txt	LIP	9	2	[0, 0, 0]	n/a	FR1	1	R1118N
260.447	1.6	2197168	WORD	n/a	wordpools/wordpool_EN.txt	MAT	10	2	[0, 0, 0]	n/a	FR1	1	R1118N
263.048	1.6	2199769	WORD	n/a	wordpools/wordpool_EN.txt	CLIFF	11	2	[0, 0, 0]	n/a	FR1	1	R1118N
265.464	1.6	2202185	WORD	n/a	wordpools/wordpool_EN.txt	JAR	12	2	[0, 0, 0]	n/a	FR1	1	R1118N
267.065	0.001	2203786	DISTRACT_START	n/a	n/a	n/a	-999	2	[0, 0, 0]	n/a	FR1	1	R1118N
267.066	0.016	2203787	START	n/a	n/a	n/a	-999	2	[-999, -999, -999]	n/a	FR1	1	R1118N
267.082	2.233	2203803	PROB	2.199	n/a	n/a	-999	2	[8, 9, 1]	18.0	FR1	1	R1118N
269.315	1.801	2206036	PROB	1.775	n/a	n/a	-999	2	[3, 7, 6]	16.0	FR1	1	R1118N
271.116	4.45	2207837	PROB	4.429	n/a	n/a	-999	2	[9, 8, 3]	20.0	FR1	1	R1118N
275.566	6.301	2212287	PROB	6.275	n/a	n/a	-999	2	[5, 8, 4]	19.0	FR1	1	R1118N
281.867	4.151	2218587	PROB	4.126	n/a	n/a	-999	2	[1, 3, 8]	12.0	FR1	1	R1118N
286.018	7.064	2222738	PROB	7.064	n/a	n/a	-999	2	[5, 7, 9]	20.0	FR1	1	R1118N
293.082	0.004	2229802	STOP	n/a	n/a	n/a	-999	2	[-999, -999, -999]	n/a	FR1	1	R1118N
293.086	1.184	2229806	DISTRACT_END	n/a	n/a	n/a	-999	2	[0, 0, 0]	n/a	FR1	1	R1118N
294.27	1.311	2230990	REC_START	n/a	n/a	n/a	-999	2	[0, 0, 0]	n/a	FR1	1	R1118N
295.581	1.44	2232301	REC_WORD	1.311	n/a	CAMEL	-999	2	[0, 0, 0]	n/a	FR1	1	R1118N
297.021	1.172	2233741	REC_WORD	2.751	n/a	TONGUE	-999	2	[0, 0, 0]	n/a	FR1	1	R1118N
298.193	1.655	2234913	REC_WORD	3.923	n/a	BAG	-999	2	[0, 0, 0]	n/a	FR1	1	R1118N
299.848	1.19	2236568	REC_WORD	5.578	n/a	VASE	-999	2	[0, 0, 0]	n/a	FR1	1	R1118N
301.038	2.437	2237758	REC_WORD	6.768	n/a	MUD	-999	2	[0, 0, 0]	n/a	FR1	1	R1118N
303.475	3.706	2240195	REC_WORD	9.205	n/a	CALF	-999	2	[0, 0, 0]	n/a	FR1	1	R1118N
307.181	17.098	2243900	REC_WORD	12.911	n/a	BACK	-999	2	[0, 0, 0]	n/a	FR1	1	R1118N
324.279	1.545	2260998	REC_END	n/a	n/a	n/a	-999	2	[0, 0, 0]	n/a	FR1	1	R1118N
325.824	0.0	2262543	TRIAL	n/a	n/a	n/a	-999	3	[0, 0, 0]	n/a	FR1	1	R1118N
325.824	10.0	2262543	COUNTDOWN_START	n/a	n/a	n/a	-999	3	[0, 0, 0]	n/a	FR1	1	R1118N
336.252	0.007	2272970	COUNTDOWN_END	n/a	n/a	n/a	-999	3	[0, 0, 0]	n/a	FR1	1	R1118N
336.259	1.6	2272977	ORIENT	n/a	n/a	n/a	-999	3	[0, 0, 0]	n/a	FR1	1	R1118N
338.76	1.6	2275478	WORD	n/a	wordpools/wordpool_EN.txt	PASTE	1	3	[0, 0, 0]	n/a	FR1	1	R1118N
341.227	1.6	2277945	WORD	n/a	wordpools/wordpool_EN.txt	PEAR	2	3	[0, 0, 0]	n/a	FR1	1	R1118N
343.677	1.6	2280395	WORD	n/a	wordpools/wordpool_EN.txt	LEG	3	3	[0, 0, 0]	n/a	FR1	1	R1118N
346.244	1.6	2282962	WORD	n/a	wordpools/wordpool_EN.txt	APE	4	3	[0, 0, 0]	n/a	FR1	1	R1118N
348.845	1.6	2285563	WORD	n/a	wordpools/wordpool_EN.txt	CONE	5	3	[0, 0, 0]	n/a	FR1	1	R1118N
351.228	1.6	2287946	WORD	n/a	wordpools/wordpool_EN.txt	SEED	6	3	[0, 0, 0]	n/a	FR1	1	R1118N
353.612	1.6	2290330	WORD	n/a	wordpools/wordpool_EN.txt	CLOTH	7	3	[0, 0, 0]	n/a	FR1	1	R1118N
356.047	1.6	2292764	WORD	n/a	wordpools/wordpool_EN.txt	LEAF	8	3	[0, 0, 0]	n/a	FR1	1	R1118N
358.63	1.6	2295347	WORD	n/a	wordpools/wordpool_EN.txt	RAT	9	3	[0, 0, 0]	n/a	FR1	1	R1118N
361.18	1.6	2297897	WORD	n/a	wordpools/wordpool_EN.txt	WING	10	3	[0, 0, 0]	n/a	FR1	1	R1118N
363.797	1.6	2300514	WORD	n/a	wordpools/wordpool_EN.txt	CHIEF	11	3	[0, 0, 0]	n/a	FR1	1	R1118N
366.231	1.6	2302948	WORD	n/a	wordpools/wordpool_EN.txt	PLANT	12	3	[0, 0, 0]	n/a	FR1	1	R1118N
367.848	0.001	2304565	DISTRACT_START	n/a	n/a	n/a	-999	3	[0, 0, 0]	n/a	FR1	1	R1118N
367.849	0.016	2304566	START	n/a	n/a	n/a	-999	3	[-999, -999, -999]	n/a	FR1	1	R1118N
367.865	4.201	2304582	PROB	4.169	n/a	n/a	-999	3	[3, 9, 3]	15.0	FR1	1	R1118N
372.066	4.733	2308783	PROB	4.703	n/a	n/a	-999	3	[6, 5, 4]	15.0	FR1	1	R1118N
376.799	2.401	2313516	PROB	2.378	n/a	n/a	-999	3	[6, 2, 6]	14.0	FR1	1	R1118N
379.2	3.65	2315917	PROB	3.617	n/a	n/a	-999	3	[4, 9, 4]	15.0	FR1	1	R1118N
382.85	2.834	2319566	PROB	2.807	n/a	n/a	-999	3	[4, 8, 2]	14.0	FR1	1	R1118N
385.684	2.589	2322400	PROB	2.589	n/a	n/a	-999	3	[4, 6, 2]	12.0	FR1	1	R1118N
388.273	0.011	2324989	STOP	n/a	n/a	n/a	-999	3	[-999, -999, -999]	n/a	FR1	1	R1118N
388.284	1.035	2325000	DISTRACT_END	n/a	n/a	n/a	-999	3	[0, 0, 0]	n/a	FR1	1	R1118N
389.319	2.483	2326035	REC_START	n/a	n/a	n/a	-999	3	[0, 0, 0]	n/a	FR1	1	R1118N
391.802	1.55	2328518	REC_WORD_VV	2.483	n/a	<>	-999	3	[0, 0, 0]	n/a	FR1	1	R1118N
393.352	1.826	2330068	REC_WORD	4.033	n/a	PASTE	-999	3	[0, 0, 0]	n/a	FR1	1	R1118N
395.178	1.045	2331894	REC_WORD	5.859	n/a	TRAVEL	-999	3	[0, 0, 0]	n/a	FR1	1	R1118N
396.223	2.803	2332939	REC_WORD	6.904	n/a	FLY	-999	3	[0, 0, 0]	n/a	FR1	1	R1118N
399.026	5.855	2335742	REC_WORD	9.707	n/a	VASE	-999	3	[0, 0, 0]	n/a	FR1	1	R1118N
404.881	14.448	2341597	REC_WORD	15.562	n/a	MAP	-999	3	[0, 0, 0]	n/a	FR1	1	R1118N
419.329	1.978	2356044	REC_END	n/a	n/a	n/a	-999	3	[0, 0, 0]	n/a	FR1	1	R1118N
421.307	0.0	2358022	TRIAL	n/a	n/a	n/a	-999	4	[0, 0, 0]	n/a	FR1	1	R1118N
421.307	10.0	2358022	COUNTDOWN_START	n/a	n/a	n/a	-999	4	[0, 0, 0]	n/a	FR1	1	R1118N
431.735	0.007	2368449	COUNTDOWN_END	n/a	n/a	n/a	-999	4	[0, 0, 0]	n/a	FR1	1	R1118N
431.742	1.6	2368456	ORIENT	n/a	n/a	n/a	-999	4	[0, 0, 0]	n/a	FR1	1	R1118N
434.225	1.6	2370939	WORD	n/a	wordpools/wordpool_EN.txt	BRICK	1	4	[0, 0, 0]	n/a	FR1	1	R1118N
436.776	1.6	2373490	WORD	n/a	wordpools/wordpool_EN.txt	POLE	2	4	[0, 0, 0]	n/a	FR1	1	R1118N
439.243	1.6	2375957	WORD	n/a	wordpools/wordpool_EN.txt	JAIL	3	4	[0, 0, 0]	n/a	FR1	1	R1118N
441.743	1.6	2378457	WORD	n/a	wordpools/wordpool_EN.txt	MAP	4	4	[0, 0, 0]	n/a	FR1	1	R1118N
444.26	1.6	2380974	WORD	n/a	wordpools/wordpool_EN.txt	MOON	5	4	[0, 0, 0]	n/a	FR1	1	R1118N
446.727	1.6	2383441	WORD	n/a	wordpools/wordpool_EN.txt	CORD	6	4	[0, 0, 0]	n/a	FR1	1	R1118N
449.245	1.6	2385959	WORD	n/a	wordpools/wordpool_EN.txt	BOMB	7	4	[0, 0, 0]	n/a	FR1	1	R1118N
451.712	1.6	2388426	WORD	n/a	wordpools/wordpool_EN.txt	OAR	8	4	[0, 0, 0]	n/a	FR1	1	R1118N
454.162	1.6	2390876	WORD	n/a	wordpools/wordpool_EN.txt	STAR	9	4	[0, 0, 0]	n/a	FR1	1	R1118N
456.712	1.6	2393425	WORD	n/a	wordpools/wordpool_EN.txt	STEM	10	4	[0, 0, 0]	n/a	FR1	1	R1118N
459.313	1.6	2396026	WORD	n/a	wordpools/wordpool_EN.txt	BAT	11	4	[0, 0, 0]	n/a	FR1	1	R1118N
461.73	1.6	2398443	WORD	n/a	wordpools/wordpool_EN.txt	TOOTH	12	4	[0, 0, 0]	n/a	FR1	1	R1118N
463.347	0.001	2400060	DISTRACT_START	n/a	n/a	n/a	-999	4	[0, 0, 0]	n/a	FR1	1	R1118N
463.348	0.016	2400061	START	n/a	n/a	n/a	-999	4	[-999, -999, -999]	n/a	FR1	1	R1118N
463.364	4.2	2400077	PROB	4.165	n/a	n/a	-999	4	[3, 1, 8]	14.0	FR1	1	R1118N
467.564	3.234	2404277	PROB	3.213	n/a	n/a	-999	4	[2, 3, 5]	10.0	FR1	1	R1118N
470.798	3.302	2407511	PROB	3.268	n/a	n/a	-999	4	[9, 2, 8]	19.0	FR1	1	R1118N
474.1	1.882	2410813	PROB	1.853	n/a	n/a	-999	4	[5, 5, 3]	13.0	FR1	1	R1118N
475.982	2.267	2412695	PROB	2.243	n/a	n/a	-999	4	[4, 1, 9]	14.0	FR1	1	R1118N
478.249	6.704	2414962	PROB	6.704	n/a	n/a	-999	4	[8, 7, 4]	18.0	FR1	1	R1118N
484.953	0.014	2421665	STOP	n/a	n/a	n/a	-999	4	[-999, -999, -999]	n/a	FR1	1	R1118N
484.967	1.169	2421679	DISTRACT_END	n/a	n/a	n/a	-999	4	[0, 0, 0]	n/a	FR1	1	R1118N
486.136	2.041	2422848	REC_START	n/a	n/a	n/a	-999	4	[0, 0, 0]	n/a	FR1	1	R1118N
488.177	2.151	2424889	REC_WORD	2.041	n/a	BRICK	-999	4	[0, 0, 0]	n/a	FR1	1	R1118N
490.328	2.53	2427040	REC_WORD	4.192	n/a	JAIL	-999	4	[0, 0, 0]	n/a	FR1	1	R1118N
492.858	3.507	2429570	REC_WORD	6.722	n/a	TOOTH	-999	4	[0, 0, 0]	n/a	FR1	1	R1118N
496.365	5.386	2433077	REC_WORD	10.229	n/a	BOB	-999	4	[0, 0, 0]	n/a	FR1	1	R1118N
501.751	2.93	2438463	REC_WORD	15.615	n/a	CAMEL	-999	4	[0, 0, 0]	n/a	FR1	1	R1118N
504.681	6.342	2441393	REC_WORD	18.545	n/a	BADGE	-999	4	[0, 0, 0]	n/a	FR1	1	R1118N
511.023	4.894	2447734	REC_WORD	24.887	n/a	BRICK	-999	4	[0, 0, 0]	n/a	FR1	1	R1118N
515.917	0.229	2452628	REC_WORD	29.781	n/a	BAT	-999	4	[0, 0, 0]	n/a	FR1	1	R1118N
516.146	2.11	2452857	REC_END	n/a	n/a	n/a	-999	4	[0, 0, 0]	n/a	FR1	1	R1118N
518.256	0.0	2454967	TRIAL	n/a	n/a	n/a	-999	5	[0, 0, 0]	n/a	FR1	1	R1118N
518.256	10.0	2454967	COUNTDOWN_START	n/a	n/a	n/a	-999	5	[0, 0, 0]	n/a	FR1	1	R1118N
528.684	0.007	2465395	COUNTDOWN_END	n/a	n/a	n/a	-999	5	[0, 0, 0]	n/a	FR1	1	R1118N
528.691	1.6	2465402	ORIENT	n/a	n/a	n/a	-999	5	[0, 0, 0]	n/a	FR1	1	R1118N
531.275	1.6	2467985	WORD	n/a	wordpools/wordpool_EN.txt	TRAY	1	5	[0, 0, 0]	n/a	FR1	1	R1118N
533.675	1.6	2470385	WORD	n/a	wordpools/wordpool_EN.txt	SPOON	2	5	[0, 0, 0]	n/a	FR1	1	R1118N
536.292	1.6	2473002	WORD	n/a	wordpools/wordpool_EN.txt	TIE	3	5	[0, 0, 0]	n/a	FR1	1	R1118N
538.759	1.6	2475469	WORD	n/a	wordpools/wordpool_EN.txt	FROG	4	5	[0, 0, 0]	n/a	FR1	1	R1118N
541.31	1.6	2478020	WORD	n/a	wordpools/wordpool_EN.txt	SMILE	5	5	[0, 0, 0]	n/a	FR1	1	R1118N
543.877	1.6	2480587	WORD	n/a	wordpools/wordpool_EN.txt	FORK	6	5	[0, 0, 0]	n/a	FR1	1	R1118N
546.261	1.6	2482971	WORD	n/a	wordpools/wordpool_EN.txt	VEST	7	5	[0, 0, 0]	n/a	FR1	1	R1118N
548.778	1.6	2485488	WORD	n/a	wordpools/wordpool_EN.txt	ARM	8	5	[0, 0, 0]	n/a	FR1	1	R1118N
551.245	1.6	2487955	WORD	n/a	wordpools/wordpool_EN.txt	BREAD	9	5	[0, 0, 0]	n/a	FR1	1	R1118N
553.645	1.6	2490355	WORD	n/a	wordpools/wordpool_EN.txt	GOAT	10	5	[0, 0, 0]	n/a	FR1	1	R1118N
556.046	1.6	2492755	WORD	n/a	wordpools/wordpool_EN.txt	PIE	11	5	[0, 0, 0]	n/a	FR1	1	R1118N
558.446	1.6	2495155	WORD	n/a	wordpools/wordpool_EN.txt	STEAK	12	5	[0, 0, 0]	n/a	FR1	1	R1118N
560.047	0.001	2496756	DISTRACT_START	n/a	n/a	n/a	-999	5	[0, 0, 0]	n/a	FR1	1	R1118N
560.048	0.016	2496757	START	n/a	n/a	n/a	-999	5	[-999, -999, -999]	n/a	FR1	1	R1118N
560.064	2.416	2496773	PROB	2.385	n/a	n/a	-999	5	[5, 8, 2]	15.0	FR1	1	R1118N
562.48	5.317	2499189	PROB	5.281	n/a	n/a	-999	5	[9, 2, 6]	19.0	FR1	1	R1118N
567.797	4.868	2504506	PROB	4.844	n/a	n/a	-999	5	[7, 1, 2]	10.0	FR1	1	R1118N
572.665	3.452	2509374	PROB	3.425	n/a	n/a	-999	5	[5, 8, 3]	16.0	FR1	1	R1118N
576.117	7.868	2512826	PROB	7.868	n/a	n/a	-999	5	[2, 9, 7]	18.0	FR1	1	R1118N
583.985	0.015	2520693	STOP	n/a	n/a	n/a	-999	5	[-999, -999, -999]	n/a	FR1	1	R1118N
584.0	1.103	2520708	DISTRACT_END	n/a	n/a	n/a	-999	5	[0, 0, 0]	n/a	FR1	1	R1118N
585.103	3.774	2521811	REC_START	n/a	n/a	n/a	-999	5	[0, 0, 0]	n/a	FR1	1	R1118N
588.877	5.04	2525585	REC_WORD	3.774	n/a	TRAY	-999	5	[0, 0, 0]	n/a	FR1	1	R1118N
593.917	7.199	2530625	REC_WORD	8.814	n/a	CAMEL	-999	5	[0, 0, 0]	n/a	FR1	1	R1118N
601.116	6.223	2537824	REC_WORD	16.013	n/a	BRICK	-999	5	[0, 0, 0]	n/a	FR1	1	R1118N
607.339	7.773	2544046	REC_WORD	22.236	n/a	FROG	-999	5	[0, 0, 0]	n/a	FR1	1	R1118N
615.112	1.394	2551819	REC_END	n/a	n/a	n/a	-999	5	[0, 0, 0]	n/a	FR1	1	R1118N
616.506	0.0	2553213	TRIAL	n/a	n/a	n/a	-999	6	[0, 0, 0]	n/a	FR1	1	R1118N
616.506	10.0	2553213	COUNTDOWN_START	n/a	n/a	n/a	-999	6	[0, 0, 0]	n/a	FR1	1	R1118N
626.934	0.006	2563641	COUNTDOWN_END	n/a	n/a	n/a	-999	6	[0, 0, 0]	n/a	FR1	1	R1118N
626.94	1.6	2563647	ORIENT	n/a	n/a	n/a	-999	6	[0, 0, 0]	n/a	FR1	1	R1118N
629.558	1.6	2566265	WORD	n/a	wordpools/wordpool_EN.txt	HAWK	1	6	[0, 0, 0]	n/a	FR1	1	R1118N
632.109	1.6	2568815	WORD	n/a	wordpools/wordpool_EN.txt	BEE	2	6	[0, 0, 0]	n/a	FR1	1	R1118N
634.725	1.6	2571431	WORD	n/a	wordpools/wordpool_EN.txt	SEAT	3	6	[0, 0, 0]	n/a	FR1	1	R1118N
637.259	1.6	2573965	WORD	n/a	wordpools/wordpool_EN.txt	CORN	4	6	[0, 0, 0]	n/a	FR1	1	R1118N
639.876	1.6	2576582	WORD	n/a	wordpools/wordpool_EN.txt	COW	5	6	[0, 0, 0]	n/a	FR1	1	R1118N
642.276	1.6	2578982	WORD	n/a	wordpools/wordpool_EN.txt	BARN	6	6	[0, 0, 0]	n/a	FR1	1	R1118N
644.794	1.6	2581500	WORD	n/a	wordpools/wordpool_EN.txt	OWL	7	6	[0, 0, 0]	n/a	FR1	1	R1118N
647.344	1.6	2584050	WORD	n/a	wordpools/wordpool_EN.txt	PET	8	6	[0, 0, 0]	n/a	FR1	1	R1118N
649.778	1.6	2586484	WORD	n/a	wordpools/wordpool_EN.txt	LAMB	9	6	[0, 0, 0]	n/a	FR1	1	R1118N
652.278	1.6	2588984	WORD	n/a	wordpools/wordpool_EN.txt	SKY	10	6	[0, 0, 0]	n/a	FR1	1	R1118N
654.762	1.6	2591468	WORD	n/a	wordpools/wordpool_EN.txt	FLEA	11	6	[0, 0, 0]	n/a	FR1	1	R1118N
657.279	1.6	2593984	WORD	n/a	wordpools/wordpool_EN.txt	EEL	12	6	[0, 0, 0]	n/a	FR1	1	R1118N
658.896	0.001	2595601	DISTRACT_START	n/a	n/a	n/a	-999	6	[0, 0, 0]	n/a	FR1	1	R1118N
658.897	0.016	2595602	START	n/a	n/a	n/a	-999	6	[-999, -999, -999]	n/a	FR1	1	R1118N
658.913	5.617	2595618	PROB	5.584	n/a	n/a	-999	6	[2, 7, 4]	16.0	FR1	1	R1118N
664.53	5.001	2601235	PROB	4.975	n/a	n/a	-999	6	[2, 9, 7]	18.0	FR1	1	R1118N
669.531	7.168	2606236	PROB	7.142	n/a	n/a	-999	6	[6, 9, 5]	20.0	FR1	1	R1118N
676.699	3.375	2613404	PROB	3.375	n/a	n/a	-999	6	[4, 2, 3]	9.0	FR1	1	R1118N
680.074	0.009	2616779	STOP	n/a	n/a	n/a	-999	6	[-999, -999, -999]	n/a	FR1	1	R1118N
680.083	1.185	2616788	DISTRACT_END	n/a	n/a	n/a	-999	6	[0, 0, 0]	n/a	FR1	1	R1118N
681.268	3.502	2617972	REC_START	n/a	n/a	n/a	-999	6	[0, 0, 0]	n/a	FR1	1	R1118N
684.77	1.063	2621474	REC_WORD	3.502	n/a	HAWK	-999	6	[0, 0, 0]	n/a	FR1	1	R1118N
685.833	5.321	2622537	REC_WORD	4.565	n/a	SEA	-999	6	[0, 0, 0]	n/a	FR1	1	R1118N
691.154	2.303	2627858	REC_WORD	9.886	n/a	CAMEL	-999	6	[0, 0, 0]	n/a	FR1	1	R1118N
693.457	12.041	2630161	REC_WORD	12.189	n/a	BACK	-999	6	[0, 0, 0]	n/a	FR1	1	R1118N
705.498	5.779	2642202	REC_WORD	24.23	n/a	TRAY	-999	6	[0, 0, 0]	n/a	FR1	1	R1118N
711.277	1.511	2647980	REC_END	n/a	n/a	n/a	-999	6	[0, 0, 0]	n/a	FR1	1	R1118N
712.788	0.0	2649491	TRIAL	n/a	n/a	n/a	-999	7	[0, 0, 0]	n/a	FR1	1	R1118N
712.788	10.0	2649491	COUNTDOWN_START	n/a	n/a	n/a	-999	7	[0, 0, 0]	n/a	FR1	1	R1118N
723.216	0.007	2659919	COUNTDOWN_END	n/a	n/a	n/a	-999	7	[0, 0, 0]	n/a	FR1	1	R1118N
723.223	1.6	2659926	ORIENT	n/a	n/a	n/a	-999	7	[0, 0, 0]	n/a	FR1	1	R1118N
725.757	1.6	2662460	WORD	n/a	wordpools/wordpool_EN.txt	EAR	1	7	[0, 0, 0]	n/a	FR1	1	R1118N
728.291	1.6	2664994	WORD	n/a	wordpools/wordpool_EN.txt	HOUSE	2	7	[0, 0, 0]	n/a	FR1	1	R1118N
730.858	1.6	2667560	WORD	n/a	wordpools/wordpool_EN.txt	DOOR	3	7	[0, 0, 0]	n/a	FR1	1	R1118N
733.308	1.6	2670010	WORD	n/a	wordpools/wordpool_EN.txt	STREET	4	7	[0, 0, 0]	n/a	FR1	1	R1118N
735.875	1.6	2672577	WORD	n/a	wordpools/wordpool_EN.txt	DIME	5	7	[0, 0, 0]	n/a	FR1	1	R1118N
738.326	1.6	2675028	WORD	n/a	wordpools/wordpool_EN.txt	BED	6	7	[0, 0, 0]	n/a	FR1	1	R1118N
740.776	1.6	2677478	WORD	n/a	wordpools/wordpool_EN.txt	CAKE	7	7	[0, 0, 0]	n/a	FR1	1	R1118N
743.326	1.6	2680028	WORD	n/a	wordpools/wordpool_EN.txt	CART	8	7	[0, 0, 0]	n/a	FR1	1	R1118N
745.894	1.6	2682596	WORD	n/a	wordpools/wordpool_EN.txt	FENCE	9	7	[0, 0, 0]	n/a	FR1	1	R1118N
748.494	1.6	2685196	WORD	n/a	wordpools/wordpool_EN.txt	CUP	10	7	[0, 0, 0]	n/a	FR1	1	R1118N
750.961	1.6	2687663	WORD	n/a	wordpools/wordpool_EN.txt	SLUSH	11	7	[0, 0, 0]	n/a	FR1	1	R1118N
753.411	1.6	2690113	WORD	n/a	wordpools/wordpool_EN.txt	STAIR	12	7	[0, 0, 0]	n/a	FR1	1	R1118N
755.029	0.001	2691731	DISTRACT_START	n/a	n/a	n/a	-999	7	[0, 0, 0]	n/a	FR1	1	R1118N
755.03	0.016	2691732	START	n/a	n/a	n/a	-999	7	[-999, -999, -999]	n/a	FR1	1	R1118N
755.046	3.116	2691748	PROB	3.084	n/a	n/a	-999	7	[2, 9, 1]	12.0	FR1	1	R1118N
758.162	2.617	2694863	PROB	2.583	n/a	n/a	-999	7	[3, 5, 2]	10.0	FR1	1	R1118N
760.779	1.984	2697480	PROB	1.951	n/a	n/a	-999	7	[3, 9, 1]	13.0	FR1	1	R1118N
762.763	4.385	2699464	PROB	4.351	n/a	n/a	-999	7	[2, 4, 4]	10.0	FR1	1	R1118N
767.148	1.866	2703849	PROB	1.845	n/a	n/a	-999	7	[3, 1, 1]	5.0	FR1	1	R1118N
769.014	2.367	2705715	PROB	2.339	n/a	n/a	-999	7	[2, 5, 1]	8.0	FR1	1	R1118N
771.381	2.25	2708082	PROB	2.22	n/a	n/a	-999	7	[2, 2, 6]	10.0	FR1	1	R1118N
773.631	2.515	2710332	PROB	2.515	n/a	n/a	-999	7	[2, 1, 6]	9.0	FR1	1	R1118N
776.146	0.002	2712847	STOP	n/a	n/a	n/a	-999	7	[-999, -999, -999]	n/a	FR1	1	R1118N
776.148	1.135	2712849	DISTRACT_END	n/a	n/a	n/a	-999	7	[0, 0, 0]	n/a	FR1	1	R1118N
777.283	4.698	2713984	REC_START	n/a	n/a	n/a	-999	7	[0, 0, 0]	n/a	FR1	1	R1118N
781.981	2.475	2718681	REC_WORD	4.698	n/a	HOUSE	-999	7	[0, 0, 0]	n/a	FR1	1	R1118N
784.456	2.619	2721156	REC_WORD	7.173	n/a	BAT	-999	7	[0, 0, 0]	n/a	FR1	1	R1118N
787.075	2.847	2723775	REC_WORD	9.792	n/a	CAKE	-999	7	[0, 0, 0]	n/a	FR1	1	R1118N
789.922	17.371	2726622	REC_WORD	12.639	n/a	COUCH	-999	7	[0, 0, 0]	n/a	FR1	1	R1118N
807.293	1.378	2743992	REC_END	n/a	n/a	n/a	-999	7	[0, 0, 0]	n/a	FR1	1	R1118N
808.671	0.0	2745370	TRIAL	n/a	n/a	n/a	-999	8	[0, 0, 0]	n/a	FR1	1	R1118N
808.671	10.0	2745370	COUNTDOWN_START	n/a	n/a	n/a	-999	8	[0, 0, 0]	n/a	FR1	1	R1118N
819.099	0.008	2755798	COUNTDOWN_END	n/a	n/a	n/a	-999	8	[0, 0, 0]	n/a	FR1	1	R1118N
819.107	1.6	2755806	ORIENT	n/a	n/a	n/a	-999	8	[0, 0, 0]	n/a	FR1	1	R1118N
821.656	1.6	2758355	WORD	n/a	wordpools/wordpool_EN.txt	BALL	1	8	[0, 0, 0]	n/a	FR1	1	R1118N
824.206	1.6	2760905	WORD	n/a	wordpools/wordpool_EN.txt	GLOVE	2	8	[0, 0, 0]	n/a	FR1	1	R1118N
826.657	1.6	2763356	WORD	n/a	wordpools/wordpool_EN.txt	DRUM	3	8	[0, 0, 0]	n/a	FR1	1	R1118N
829.241	1.6	2765940	WORD	n/a	wordpools/wordpool_EN.txt	PALM	4	8	[0, 0, 0]	n/a	FR1	1	R1118N
831.741	1.6	2768439	WORD	n/a	wordpools/wordpool_EN.txt	PLATE	5	8	[0, 0, 0]	n/a	FR1	1	R1118N
834.325	1.6	2771023	WORD	n/a	wordpools/wordpool_EN.txt	PRINCE	6	8	[0, 0, 0]	n/a	FR1	1	R1118N
836.759	1.6	2773457	WORD	n/a	wordpools/wordpool_EN.txt	CHAIR	7	8	[0, 0, 0]	n/a	FR1	1	R1118N
839.342	1.6	2776040	WORD	n/a	wordpools/wordpool_EN.txt	NET	8	8	[0, 0, 0]	n/a	FR1	1	R1118N
841.876	1.6	2778574	WORD	n/a	wordpools/wordpool_EN.txt	TREE	9	8	[0, 0, 0]	n/a	FR1	1	R1118N
844.36	1.6	2781058	WORD	n/a	wordpools/wordpool_EN.txt	VASE	10	8	[0, 0, 0]	n/a	FR1	1	R1118N
846.86	1.6	2783558	WORD	n/a	wordpools/wordpool_EN.txt	SHARK	11	8	[0, 0, 0]	n/a	FR1	1	R1118N
849.41	1.6	2786108	WORD	n/a	wordpools/wordpool_EN.txt	COIN	12	8	[0, 0, 0]	n/a	FR1	1	R1118N
851.028	0.001	2787726	DISTRACT_START	n/a	n/a	n/a	-999	8	[0, 0, 0]	n/a	FR1	1	R1118N
851.029	0.016	2787727	START	n/a	n/a	n/a	-999	8	[-999, -999, -999]	n/a	FR1	1	R1118N
851.045	2.966	2787743	PROB	2.932	n/a	n/a	-999	8	[5, 1, 2]	8.0	FR1	1	R1118N
854.011	5.151	2790709	PROB	5.119	n/a	n/a	-999	8	[2, 9, 7]	18.0	FR1	1	R1118N
859.162	4.851	2795859	PROB	4.815	n/a	n/a	-999	8	[4, 1, 7]	12.0	FR1	1	R1118N
864.013	4.801	2800710	PROB	4.772	n/a	n/a	-999	8	[7, 4, 4]	15.0	FR1	1	R1118N
868.814	4.763	2805511	PROB	4.763	n/a	n/a	-999	8	[8, 2, 4]	14.0	FR1	1	R1118N
873.577	0.004	2810274	STOP	n/a	n/a	n/a	-999	8	[-999, -999, -999]	n/a	FR1	1	R1118N
873.581	1.035	2810278	DISTRACT_END	n/a	n/a	n/a	-999	8	[0, 0, 0]	n/a	FR1	1	R1118N
874.616	2.22	2811313	REC_START	n/a	n/a	n/a	-999	8	[0, 0, 0]	n/a	FR1	1	R1118N
876.836	1.539	2813533	REC_WORD	2.22	n/a	BALL	-999	8	[0, 0, 0]	n/a	FR1	1	R1118N
878.375	1.743	2815072	REC_WORD	3.759	n/a	BAT	-999	8	[0, 0, 0]	n/a	FR1	1	R1118N
880.118	3.25	2816815	REC_WORD	5.502	n/a	VASE	-999	8	[0, 0, 0]	n/a	FR1	1	R1118N
883.368	21.258	2820064	REC_WORD	8.752	n/a	HOUSE	-999	8	[0, 0, 0]	n/a	FR1	1	R1118N
904.626	1.294	2841322	REC_END	n/a	n/a	n/a	-999	8	[0, 0, 0]	n/a	FR1	1	R1118N
905.92	10.0	2842615	COUNTDOWN_START	n/a	n/a	n/a	-999	9	[0, 0, 0]	n/a	FR1	1	R1118N
905.92	10.428	2842615	TRIAL	n/a	n/a	n/a	-999	9	[0, 0, 0]	n/a	FR1	1	R1118N
916.348	0.007	2853043	COUNTDOWN_END	n/a	n/a	n/a	-999	9	[0, 0, 0]	n/a	FR1	1	R1118N
916.355	1.6	2853050	ORIENT	n/a	n/a	n/a	-999	9	[0, 0, 0]	n/a	FR1	1	R1118N
918.922	1.6	2855617	WORD	n/a	wordpools/wordpool_EN.txt	TEA	1	9	[0, 0, 0]	n/a	FR1	1	R1118N
921.522	1.6	2858217	WORD	n/a	wordpools/wordpool_EN.txt	SHRIMP	2	9	[0, 0, 0]	n/a	FR1	1	R1118N
924.023	1.6	2860718	WORD	n/a	wordpools/wordpool_EN.txt	LAMP	3	9	[0, 0, 0]	n/a	FR1	1	R1118N
926.49	1.6	2863185	WORD	n/a	wordpools/wordpool_EN.txt	SUIT	4	9	[0, 0, 0]	n/a	FR1	1	R1118N
928.974	1.6	2865669	WORD	n/a	wordpools/wordpool_EN.txt	FOOD	5	9	[0, 0, 0]	n/a	FR1	1	R1118N
931.591	1.6	2868285	WORD	n/a	wordpools/wordpool_EN.txt	TOE	6	9	[0, 0, 0]	n/a	FR1	1	R1118N
933.991	1.6	2870685	WORD	n/a	wordpools/wordpool_EN.txt	HOOF	7	9	[0, 0, 0]	n/a	FR1	1	R1118N
936.442	1.6	2873136	WORD	n/a	wordpools/wordpool_EN.txt	ROOT	8	9	[0, 0, 0]	n/a	FR1	1	R1118N
938.992	1.6	2875686	WORD	n/a	wordpools/wordpool_EN.txt	BEAN	9	9	[0, 0, 0]	n/a	FR1	1	R1118N
941.476	1.6	2878170	WORD	n/a	wordpools/wordpool_EN.txt	RAKE	10	9	[0, 0, 0]	n/a	FR1	1	R1118N
943.876	1.6	2880570	WORD	n/a	wordpools/wordpool_EN.txt	SOCK	11	9	[0, 0, 0]	n/a	FR1	1	R1118N
946.493	1.6	2883187	WORD	n/a	wordpools/wordpool_EN.txt	BATH	12	9	[0, 0, 0]	n/a	FR1	1	R1118N
948.094	0.001	2884788	DISTRACT_START	n/a	n/a	n/a	-999	9	[0, 0, 0]	n/a	FR1	1	R1118N
948.095	0.016	2884789	START	n/a	n/a	n/a	-999	9	[-999, -999, -999]	n/a	FR1	1	R1118N
948.111	2.951	2884805	PROB	2.923	n/a	n/a	-999	9	[2, 1, 2]	5.0	FR1	1	R1118N
951.062	4.199	2887756	PROB	4.171	n/a	n/a	-999	9	[7, 5, 3]	15.0	FR1	1	R1118N
955.261	1.667	2891955	PROB	1.644	n/a	n/a	-999	9	[1, 2, 2]	5.0	FR1	1	R1118N
956.928	2.185	2893621	PROB	2.162	n/a	n/a	-999	9	[7, 5, 2]	14.0	FR1	1	R1118N
959.113	3.066	2895806	PROB	3.04	n/a	n/a	-999	9	[9, 2, 9]	20.0	FR1	1	R1118N
962.179	2.551	2898872	PROB	2.518	n/a	n/a	-999	9	[3, 2, 2]	7.0	FR1	1	R1118N
964.73	4.567	2901423	PROB	4.567	n/a	n/a	-999	9	[2, 9, 3]	14.0	FR1	1	R1118N
969.297	0.017	2905990	STOP	n/a	n/a	n/a	-999	9	[-999, -999, -999]	n/a	FR1	1	R1118N
969.314	1.2	2906007	DISTRACT_END	n/a	n/a	n/a	-999	9	[0, 0, 0]	n/a	FR1	1	R1118N
970.514	3.727	2907207	REC_START	n/a	n/a	n/a	-999	9	[0, 0, 0]	n/a	FR1	1	R1118N
974.241	5.308	2910934	REC_WORD	3.727	n/a	BALL	-999	9	[0, 0, 0]	n/a	FR1	1	R1118N
979.549	1.276	2916242	REC_WORD	9.035	n/a	SOUP	-999	9	[0, 0, 0]	n/a	FR1	1	R1118N
980.825	3.683	2917517	REC_WORD	10.311	n/a	SHRIMP	-999	9	[0, 0, 0]	n/a	FR1	1	R1118N
984.508	5.221	2921200	REC_WORD	13.994	n/a	BEAN	-999	9	[0, 0, 0]	n/a	FR1	1	R1118N
989.729	10.796	2926421	REC_WORD	19.215	n/a	TRACK	-999	9	[0, 0, 0]	n/a	FR1	1	R1118N
1000.525	1.344	2937217	REC_END	n/a	n/a	n/a	-999	9	[0, 0, 0]	n/a	FR1	1	R1118N
1001.869	0.0	2938561	TRIAL	n/a	n/a	n/a	-999	10	[0, 0, 0]	n/a	FR1	1	R1118N
1001.869	10.0	2938561	COUNTDOWN_START	n/a	n/a	n/a	-999	10	[0, 0, 0]	n/a	FR1	1	R1118N
1012.297	0.007	2948988	COUNTDOWN_END	n/a	n/a	n/a	-999	10	[0, 0, 0]	n/a	FR1	1	R1118N
1012.304	1.6	2948995	ORIENT	n/a	n/a	n/a	-999	10	[0, 0, 0]	n/a	FR1	1	R1118N
1014.871	1.6	2951562	WORD	n/a	wordpools/wordpool_EN.txt	SOAP	1	10	[0, 0, 0]	n/a	FR1	1	R1118N
1017.305	1.6	2953996	WORD	n/a	wordpools/wordpool_EN.txt	GRAPE	2	10	[0, 0, 0]	n/a	FR1	1	R1118N
1019.705	1.6	2956396	WORD	n/a	wordpools/wordpool_EN.txt	FLUTE	3	10	[0, 0, 0]	n/a	FR1	1	R1118N
1022.222	1.6	2958913	WORD	n/a	wordpools/wordpool_EN.txt	BENCH	4	10	[0, 0, 0]	n/a	FR1	1	R1118N
1024.823	1.6	2961514	WORD	n/a	wordpools/wordpool_EN.txt	FAN	5	10	[0, 0, 0]	n/a	FR1	1	R1118N
1027.423	1.6	2964114	WORD	n/a	wordpools/wordpool_EN.txt	JUICE	6	10	[0, 0, 0]	n/a	FR1	1	R1118N
1029.84	1.6	2966531	WORD	n/a	wordpools/wordpool_EN.txt	FRUIT	7	10	[0, 0, 0]	n/a	FR1	1	R1118N
1032.257	1.6	2968947	WORD	n/a	wordpools/wordpool_EN.txt	COUCH	8	10	[0, 0, 0]	n/a	FR1	1	R1118N
1034.875	1.6	2971565	WORD	n/a	wordpools/wordpool_EN.txt	GLASS	9	10	[0, 0, 0]	n/a	FR1	1	R1118N
1037.492	1.6	2974182	WORD	n/a	wordpools/wordpool_EN.txt	BOWL	10	10	[0, 0, 0]	n/a	FR1	1	R1118N
1039.859	1.6	2976549	WORD	n/a	wordpools/wordpool_EN.txt	BOOT	11	10	[0, 0, 0]	n/a	FR1	1	R1118N
1042.426	1.6	2979116	WORD	n/a	wordpools/wordpool_EN.txt	CANE	12	10	[0, 0, 0]	n/a	FR1	1	R1118N
1044.044	0.0	2980734	DISTRACT_START	n/a	n/a	n/a	-999	10	[0, 0, 0]	n/a	FR1	1	R1118N
1044.044	0.016	2980734	START	n/a	n/a	n/a	-999	10	[-999, -999, -999]	n/a	FR1	1	R1118N
1044.06	3.417	2980750	PROB	3.389	n/a	n/a	-999	10	[6, 5, 2]	13.0	FR1	1	R1118N
1047.477	2.651	2984167	PROB	2.629	n/a	n/a	-999	10	[7, 7, 2]	16.0	FR1	1	R1118N
1050.128	3.8	2986818	PROB	3.777	n/a	n/a	-999	10	[2, 7, 4]	13.0	FR1	1	R1118N
1053.928	3.284	2990618	PROB	3.249	n/a	n/a	-999	10	[5, 8, 3]	16.0	FR1	1	R1118N
1057.212	6.717	2993901	PROB	6.693	n/a	n/a	-999	10	[8, 9, 7]	30.0	FR1	1	R1118N
1063.929	2.328	3000618	PROB	2.328	n/a	n/a	-999	10	[5, 2, 3]	10.0	FR1	1	R1118N
1066.257	0.006	3002946	STOP	n/a	n/a	n/a	-999	10	[-999, -999, -999]	n/a	FR1	1	R1118N
1066.263	1.084	3002952	DISTRACT_END	n/a	n/a	n/a	-999	10	[0, 0, 0]	n/a	FR1	1	R1118N
1067.347	1.447	3004036	REC_START	n/a	n/a	n/a	-999	10	[0, 0, 0]	n/a	FR1	1	R1118N
1068.794	6.287	3005483	REC_WORD	1.447	n/a	SOAP	-999	10	[0, 0, 0]	n/a	FR1	1	R1118N
1075.081	3.308	3011770	REC_WORD	7.734	n/a	CAMEL	-999	10	[0, 0, 0]	n/a	FR1	1	R1118N
1078.389	5.647	3015078	REC_WORD	11.042	n/a	BACK	-999	10	[0, 0, 0]	n/a	FR1	1	R1118N
1084.036	5.812	3020724	REC_WORD_VV	16.689	n/a	<>	-999	10	[0, 0, 0]	n/a	FR1	1	R1118N
1089.848	7.513	3026536	REC_WORD	22.501	n/a	MUD	-999	10	[0, 0, 0]	n/a	FR1	1	R1118N
1097.361	1.407	3034049	REC_END	n/a	n/a	n/a	-999	10	[0, 0, 0]	n/a	FR1	1	R1118N
1098.768	10.0	3035456	COUNTDOWN_START	n/a	n/a	n/a	-999	11	[0, 0, 0]	n/a	FR1	1	R1118N
1098.769	10.427	3035457	TRIAL	n/a	n/a	n/a	-999	11	[0, 0, 0]	n/a	FR1	1	R1118N
1109.196	0.007	3045883	COUNTDOWN_END	n/a	n/a	n/a	-999	11	[0, 0, 0]	n/a	FR1	1	R1118N
1109.203	1.6	3045890	ORIENT	n/a	n/a	n/a	-999	11	[0, 0, 0]	n/a	FR1	1	R1118N
1111.687	1.6	3048374	WORD	n/a	wordpools/wordpool_EN.txt	PIPE	1	11	[0, 0, 0]	n/a	FR1	1	R1118N
1114.089	1.6	3050776	WORD	n/a	wordpools/wordpool_EN.txt	STRING	2	11	[0, 0, 0]	n/a	FR1	1	R1118N
1116.521	1.6	3053208	WORD	n/a	wordpools/wordpool_EN.txt	ROOM	3	11	[0, 0, 0]	n/a	FR1	1	R1118N
1119.039	1.6	3055726	WORD	n/a	wordpools/wordpool_EN.txt	DART	4	11	[0, 0, 0]	n/a	FR1	1	R1118N
1121.622	1.6	3058309	WORD	n/a	wordpools/wordpool_EN.txt	BAND	5	11	[0, 0, 0]	n/a	FR1	1	R1118N
1124.124	1.6	3060811	WORD	n/a	wordpools/wordpool_EN.txt	CHEEK	6	11	[0, 0, 0]	n/a	FR1	1	R1118N
1126.69	1.6	3063377	WORD	n/a	wordpools/wordpool_EN.txt	NEST	7	11	[0, 0, 0]	n/a	FR1	1	R1118N
1129.257	1.6	3065944	WORD	n/a	wordpools/wordpool_EN.txt	HAT	8	11	[0, 0, 0]	n/a	FR1	1	R1118N
1131.891	1.6	3068577	WORD	n/a	wordpools/wordpool_EN.txt	DOLL	9	11	[0, 0, 0]	n/a	FR1	1	R1118N
1134.391	1.6	3071077	WORD	n/a	wordpools/wordpool_EN.txt	BIRD	10	11	[0, 0, 0]	n/a	FR1	1	R1118N
1136.875	1.6	3073561	WORD	n/a	wordpools/wordpool_EN.txt	CRANE	11	11	[0, 0, 0]	n/a	FR1	1	R1118N
1139.458	1.6	3076144	WORD	n/a	wordpools/wordpool_EN.txt	TAIL	12	11	[0, 0, 0]	n/a	FR1	1	R1118N
1141.06	0.0	3077746	DISTRACT_START	n/a	n/a	n/a	-999	11	[0, 0, 0]	n/a	FR1	1	R1118N
1141.06	0.016	3077746	START	n/a	n/a	n/a	-999	11	[-999, -999, -999]	n/a	FR1	1	R1118N
1141.076	2.717	3077762	PROB	2.685	n/a	n/a	-999	11	[9, 5, 5]	19.0	FR1	1	R1118N
1143.793	5.684	3080479	PROB	5.648	n/a	n/a	-999	11	[8, 6, 6]	24.0	FR1	1	R1118N
1149.477	6.635	3086163	PROB	6.605	n/a	n/a	-999	11	[5, 5, 4]	14.0	FR1	1	R1118N
1156.112	3.566	3092797	PROB	3.537	n/a	n/a	-999	11	[6, 6, 4]	16.0	FR1	1	R1118N
1159.678	1.891	3096363	PROB	1.891	n/a	n/a	-999	11	[5, 9, 1]	15.0	FR1	1	R1118N
1161.569	0.01	3098254	STOP	n/a	n/a	n/a	-999	11	[-999, -999, -999]	n/a	FR1	1	R1118N
1161.579	1.201	3098264	DISTRACT_END	n/a	n/a	n/a	-999	11	[0, 0, 0]	n/a	FR1	1	R1118N
1162.78	1.306	3099465	REC_START	n/a	n/a	n/a	-999	11	[0, 0, 0]	n/a	FR1	1	R1118N
1164.086	0.812	3100771	REC_WORD	1.306	n/a	PIPE	-999	11	[0, 0, 0]	n/a	FR1	1	R1118N
1164.898	1.29	3101583	REC_WORD	2.118	n/a	STRING	-999	11	[0, 0, 0]	n/a	FR1	1	R1118N
1166.188	1.839	3102873	REC_WORD	3.408	n/a	ROOM	-999	11	[0, 0, 0]	n/a	FR1	1	R1118N
1168.027	5.262	3104712	REC_WORD	5.247	n/a	BIRD	-999	11	[0, 0, 0]	n/a	FR1	1	R1118N
1173.289	8.282	3109974	REC_WORD	10.509	n/a	TAIL	-999	11	[0, 0, 0]	n/a	FR1	1	R1118N
1181.571	11.219	3118255	REC_WORD	18.791	n/a	CRANE	-999	11	[0, 0, 0]	n/a	FR1	1	R1118N
1192.79	1.694	3129474	REC_END	n/a	n/a	n/a	-999	11	[0, 0, 0]	n/a	FR1	1	R1118N
1194.484	0.0	3131168	TRIAL	n/a	n/a	n/a	-999	12	[0, 0, 0]	n/a	FR1	1	R1118N
1194.484	10.0	3131168	COUNTDOWN_START	n/a	n/a	n/a	-999	12	[0, 0, 0]	n/a	FR1	1	R1118N
1204.912	0.007	3141596	COUNTDOWN_END	n/a	n/a	n/a	-999	12	[0, 0, 0]	n/a	FR1	1	R1118N
1204.919	1.6	3141603	ORIENT	n/a	n/a	n/a	-999	12	[0, 0, 0]	n/a	FR1	1	R1118N
1207.303	1.6	3143986	WORD	n/a	wordpools/wordpool_EN.txt	CAT	1	12	[0, 0, 0]	n/a	FR1	1	R1118N
1209.92	1.6	3146603	WORD	n/a	wordpools/wordpool_EN.txt	TANK	2	12	[0, 0, 0]	n/a	FR1	1	R1118N
1212.504	1.6	3149187	WORD	n/a	wordpools/wordpool_EN.txt	BOAT	3	12	[0, 0, 0]	n/a	FR1	1	R1118N
1214.987	1.6	3151670	WORD	n/a	wordpools/wordpool_EN.txt	SPARK	4	12	[0, 0, 0]	n/a	FR1	1	R1118N
1217.555	1.6	3154238	WORD	n/a	wordpools/wordpool_EN.txt	WORM	5	12	[0, 0, 0]	n/a	FR1	1	R1118N
1219.938	1.6	3156621	WORD	n/a	wordpools/wordpool_EN.txt	HOSE	6	12	[0, 0, 0]	n/a	FR1	1	R1118N
1222.322	1.6	3159005	WORD	n/a	wordpools/wordpool_EN.txt	TRASH	7	12	[0, 0, 0]	n/a	FR1	1	R1118N
1224.773	1.6	3161456	WORD	n/a	wordpools/wordpool_EN.txt	KITE	8	12	[0, 0, 0]	n/a	FR1	1	R1118N
1227.34	1.6	3164023	WORD	n/a	wordpools/wordpool_EN.txt	FISH	9	12	[0, 0, 0]	n/a	FR1	1	R1118N
1229.79	1.6	3166473	WORD	n/a	wordpools/wordpool_EN.txt	WHEEL	10	12	[0, 0, 0]	n/a	FR1	1	R1118N
1232.307	1.6	3168989	WORD	n/a	wordpools/wordpool_EN.txt	DOG	11	12	[0, 0, 0]	n/a	FR1	1	R1118N
1234.724	1.6	3171406	WORD	n/a	wordpools/wordpool_EN.txt	LAND	12	12	[0, 0, 0]	n/a	FR1	1	R1118N
1236.341	0.001	3173023	DISTRACT_START	n/a	n/a	n/a	-999	12	[0, 0, 0]	n/a	FR1	1	R1118N
1236.342	0.016	3173024	START	n/a	n/a	n/a	-999	12	[-999, -999, -999]	n/a	FR1	1	R1118N
1236.358	7.719	3173040	PROB	7.684	n/a	n/a	-999	12	[7, 6, 5]	18.0	FR1	1	R1118N
1244.077	2.782	3180759	PROB	2.748	n/a	n/a	-999	12	[5, 1, 3]	9.0	FR1	1	R1118N
1246.859	2.634	3183541	PROB	2.606	n/a	n/a	-999	12	[2, 8, 3]	13.0	FR1	1	R1118N
1249.493	2.652	3186175	PROB	2.629	n/a	n/a	-999	12	[3, 3, 4]	10.0	FR1	1	R1118N
1252.145	2.266	3188827	PROB	2.24	n/a	n/a	-999	12	[3, 6, 4]	13.0	FR1	1	R1118N
1254.411	5.647	3191093	PROB	5.647	n/a	n/a	-999	12	[9, 5, 2]	16.0	FR1	1	R1118N
1260.058	0.004	3196739	STOP	n/a	n/a	n/a	-999	12	[-999, -999, -999]	n/a	FR1	1	R1118N
1260.062	1.184	3196743	DISTRACT_END	n/a	n/a	n/a	-999	12	[0, 0, 0]	n/a	FR1	1	R1118N
1261.246	1.544	3197927	REC_START	n/a	n/a	n/a	-999	12	[0, 0, 0]	n/a	FR1	1	R1118N
1262.79	0.984	3199471	REC_WORD	1.544	n/a	FISH	-999	12	[0, 0, 0]	n/a	FR1	1	R1118N
1263.774	2.841	3200455	REC_WORD	2.528	n/a	TANK	-999	12	[0, 0, 0]	n/a	FR1	1	R1118N
1266.615	2.756	3203296	REC_WORD	5.369	n/a	CAT	-999	12	[0, 0, 0]	n/a	FR1	1	R1118N
1269.371	2.251	3206052	REC_WORD	8.125	n/a	BARREL	-999	12	[0, 0, 0]	n/a	FR1	1	R1118N
1271.622	3.938	3208303	REC_WORD	10.376	n/a	STRING	-999	12	[0, 0, 0]	n/a	FR1	1	R1118N
1275.56	4.651	3212241	REC_WORD	14.314	n/a	FACE	-999	12	[0, 0, 0]	n/a	FR1	1	R1118N
1280.211	5.898	3216892	REC_WORD	18.965	n/a	DOG	-999	12	[0, 0, 0]	n/a	FR1	1	R1118N
1286.109	5.147	3222789	REC_WORD	24.863	n/a	BIRD	-999	12	[0, 0, 0]	n/a	FR1	1	R1118N
1291.256	1.544	3227936	REC_END	n/a	n/a	n/a	-999	12	[0, 0, 0]	n/a	FR1	1	R1118N
1292.8	10.0	3229480	COUNTDOWN_START	n/a	n/a	n/a	-999	13	[0, 0, 0]	n/a	FR1	1	R1118N
1292.801	10.427	3229481	TRIAL	n/a	n/a	n/a	-999	13	[0, 0, 0]	n/a	FR1	1	R1118N
1303.228	0.008	3239908	COUNTDOWN_END	n/a	n/a	n/a	-999	13	[0, 0, 0]	n/a	FR1	1	R1118N
1303.236	1.6	3239916	ORIENT	n/a	n/a	n/a	-999	13	[0, 0, 0]	n/a	FR1	1	R1118N
1305.869	1.6	3242549	WORD	n/a	wordpools/wordpool_EN.txt	MULE	1	13	[0, 0, 0]	n/a	FR1	1	R1118N
1308.453	1.6	3245132	WORD	n/a	wordpools/wordpool_EN.txt	STORM	2	13	[0, 0, 0]	n/a	FR1	1	R1118N
1310.903	1.6	3247582	WORD	n/a	wordpools/wordpool_EN.txt	HEN	3	13	[0, 0, 0]	n/a	FR1	1	R1118N
1313.304	1.6	3249983	WORD	n/a	wordpools/wordpool_EN.txt	EGG	4	13	[0, 0, 0]	n/a	FR1	1	R1118N
1315.821	1.6	3252500	WORD	n/a	wordpools/wordpool_EN.txt	SKI	5	13	[0, 0, 0]	n/a	FR1	1	R1118N
1318.221	1.6	3254900	WORD	n/a	wordpools/wordpool_EN.txt	PEN	6	13	[0, 0, 0]	n/a	FR1	1	R1118N
1320.638	1.6	3257317	WORD	n/a	wordpools/wordpool_EN.txt	FORT	7	13	[0, 0, 0]	n/a	FR1	1	R1118N
1323.073	1.6	3259752	WORD	n/a	wordpools/wordpool_EN.txt	BEAK	8	13	[0, 0, 0]	n/a	FR1	1	R1118N
1325.606	1.6	3262285	WORD	n/a	wordpools/wordpool_EN.txt	SAIL	9	13	[0, 0, 0]	n/a	FR1	1	R1118N
1328.156	1.6	3264835	WORD	n/a	wordpools/wordpool_EN.txt	FARM	10	13	[0, 0, 0]	n/a	FR1	1	R1118N
1330.773	1.6	3267452	WORD	n/a	wordpools/wordpool_EN.txt	FUR	11	13	[0, 0, 0]	n/a	FR1	1	R1118N
1333.157	1.6	3269835	WORD	n/a	wordpools/wordpool_EN.txt	TRAIN	12	13	[0, 0, 0]	n/a	FR1	1	R1118N
1334.774	0.001	3271452	DISTRACT_START	n/a	n/a	n/a	-999	13	[0, 0, 0]	n/a	FR1	1	R1118N
1334.775	0.016	3271453	START	n/a	n/a	n/a	-999	13	[-999, -999, -999]	n/a	FR1	1	R1118N
1334.791	13.202	3271469	PROB	13.178	n/a	n/a	-999	13	[9, 4, 8]	24.0	FR1	1	R1118N
1347.993	3.4	3284671	PROB	3.368	n/a	n/a	-999	13	[2, 6, 6]	14.0	FR1	1	R1118N
1351.393	1.702	3288071	PROB	1.681	n/a	n/a	-999	13	[7, 1, 1]	9.0	FR1	1	R1118N
1353.095	2.434	3289773	PROB	2.434	n/a	n/a	-999	13	[9, 2, 8]	19.0	FR1	1	R1118N
1355.529	0.015	3292207	STOP	n/a	n/a	n/a	-999	13	[-999, -999, -999]	n/a	FR1	1	R1118N
1355.544	1.118	3292222	DISTRACT_END	n/a	n/a	n/a	-999	13	[0, 0, 0]	n/a	FR1	1	R1118N
1356.662	2.03	3293339	REC_START	n/a	n/a	n/a	-999	13	[0, 0, 0]	n/a	FR1	1	R1118N
1358.692	2.535	3295369	REC_WORD	2.03	n/a	FARM	-999	13	[0, 0, 0]	n/a	FR1	1	R1118N
1361.227	2.326	3297904	REC_WORD	4.565	n/a	STAND	-999	13	[0, 0, 0]	n/a	FR1	1	R1118N
1363.553	14.482	3300230	REC_WORD	6.891	n/a	FUR	-999	13	[0, 0, 0]	n/a	FR1	1	R1118N
1378.035	8.637	3314712	REC_WORD	21.373	n/a	BOAT	-999	13	[0, 0, 0]	n/a	FR1	1	R1118N
1386.672	1.261	3323348	REC_END	n/a	n/a	n/a	-999	13	[0, 0, 0]	n/a	FR1	1	R1118N
1387.933	0.0	3324609	TRIAL	n/a	n/a	n/a	-999	14	[0, 0, 0]	n/a	FR1	1	R1118N
1387.933	10.0	3324609	COUNTDOWN_START	n/a	n/a	n/a	-999	14	[0, 0, 0]	n/a	FR1	1	R1118N
1398.361	0.007	3335037	COUNTDOWN_END	n/a	n/a	n/a	-999	14	[0, 0, 0]	n/a	FR1	1	R1118N
1398.368	1.6	3335044	ORIENT	n/a	n/a	n/a	-999	14	[0, 0, 0]	n/a	FR1	1	R1118N
1400.785	1.6	3337461	WORD	n/a	wordpools/wordpool_EN.txt	MAIL	1	14	[0, 0, 0]	n/a	FR1	1	R1118N
1403.419	1.6	3340095	WORD	n/a	wordpools/wordpool_EN.txt	BANK	2	14	[0, 0, 0]	n/a	FR1	1	R1118N
1405.902	1.6	3342578	WORD	n/a	wordpools/wordpool_EN.txt	STORE	3	14	[0, 0, 0]	n/a	FR1	1	R1118N
1408.319	1.6	3344994	WORD	n/a	wordpools/wordpool_EN.txt	LAWN	4	14	[0, 0, 0]	n/a	FR1	1	R1118N
1410.82	1.6	3347495	WORD	n/a	wordpools/wordpool_EN.txt	PHONE	5	14	[0, 0, 0]	n/a	FR1	1	R1118N
1413.387	1.6	3350062	WORD	n/a	wordpools/wordpool_EN.txt	KEY	6	14	[0, 0, 0]	n/a	FR1	1	R1118N
1415.937	1.6	3352612	WORD	n/a	wordpools/wordpool_EN.txt	FUDGE	7	14	[0, 0, 0]	n/a	FR1	1	R1118N
1418.354	1.6	3355029	WORD	n/a	wordpools/wordpool_EN.txt	CASH	8	14	[0, 0, 0]	n/a	FR1	1	R1118N
1420.805	1.6	3357480	WORD	n/a	wordpools/wordpool_EN.txt	WALL	9	14	[0, 0, 0]	n/a	FR1	1	R1118N
1423.322	1.6	3359997	WORD	n/a	wordpools/wordpool_EN.txt	MILK	10	14	[0, 0, 0]	n/a	FR1	1	R1118N
1425.839	1.6	3362514	WORD	n/a	wordpools/wordpool_EN.txt	FOG	11	14	[0, 0, 0]	n/a	FR1	1	R1118N
1428.273	1.6	3364948	WORD	n/a	wordpools/wordpool_EN.txt	HEART	12	14	[0, 0, 0]	n/a	FR1	1	R1118N
1429.89	0.001	3366565	DISTRACT_START	n/a	n/a	n/a	-999	14	[0, 0, 0]	n/a	FR1	1	R1118N
1429.891	0.015	3366566	START	n/a	n/a	n/a	-999	14	[-999, -999, -999]	n/a	FR1	1	R1118N
1429.906	2.584	3366581	PROB	2.551	n/a	n/a	-999	14	[2, 7, 3]	12.0	FR1	1	R1118N
1432.49	3.652	3369164	PROB	3.624	n/a	n/a	-999	14	[4, 4, 7]	15.0	FR1	1	R1118N
1436.142	4.283	3372816	PROB	4.259	n/a	n/a	-999	14	[9, 5, 3]	19.0	FR1	1	R1118N
1440.425	2.3	3377099	PROB	2.264	n/a	n/a	-999	14	[9, 1, 2]	12.0	FR1	1	R1118N
1442.725	2.651	3379399	PROB	2.62	n/a	n/a	-999	14	[2, 1, 5]	8.0	FR1	1	R1118N
1445.376	2.4	3382050	PROB	2.369	n/a	n/a	-999	14	[5, 1, 2]	8.0	FR1	1	R1118N
1447.776	2.729	3384450	PROB	2.729	n/a	n/a	-999	14	[8, 1, 2]	11.0	FR1	1	R1118N
1450.505	0.005	3387179	STOP	n/a	n/a	n/a	-999	14	[-999, -999, -999]	n/a	FR1	1	R1118N
1450.51	1.035	3387184	DISTRACT_END	n/a	n/a	n/a	-999	14	[0, 0, 0]	n/a	FR1	1	R1118N
1451.545	1.501	3388219	REC_START	n/a	n/a	n/a	-999	14	[0, 0, 0]	n/a	FR1	1	R1118N
1453.046	0.955	3389720	REC_WORD	1.501	n/a	FUDGE	-999	14	[0, 0, 0]	n/a	FR1	1	R1118N
1454.001	1.32	3390675	REC_WORD	2.456	n/a	STORE	-999	14	[0, 0, 0]	n/a	FR1	1	R1118N
1455.321	2.175	3391995	REC_WORD	3.776	n/a	MILK	-999	14	[0, 0, 0]	n/a	FR1	1	R1118N
1457.496	8.316	3394169	REC_WORD	5.951	n/a	CANDY	-999	14	[0, 0, 0]	n/a	FR1	1	R1118N
1465.812	15.742	3402485	REC_WORD	14.267	n/a	APPLE	-999	14	[0, 0, 0]	n/a	FR1	1	R1118N
1481.554	1.878	3418226	REC_END	n/a	n/a	n/a	-999	14	[0, 0, 0]	n/a	FR1	1	R1118N
1483.432	0.0	3420104	TRIAL	n/a	n/a	n/a	-999	15	[0, 0, 0]	n/a	FR1	1	R1118N
1483.432	10.0	3420104	COUNTDOWN_START	n/a	n/a	n/a	-999	15	[0, 0, 0]	n/a	FR1	1	R1118N
1493.86	0.007	3430532	COUNTDOWN_END	n/a	n/a	n/a	-999	15	[0, 0, 0]	n/a	FR1	1	R1118N
1493.867	1.6	3430539	ORIENT	n/a	n/a	n/a	-999	15	[0, 0, 0]	n/a	FR1	1	R1118N
1496.401	1.6	3433073	WORD	n/a	wordpools/wordpool_EN.txt	HILL	1	15	[0, 0, 0]	n/a	FR1	1	R1118N
1498.784	1.6	3435456	WORD	n/a	wordpools/wordpool_EN.txt	CLOUD	2	15	[0, 0, 0]	n/a	FR1	1	R1118N
1501.352	1.6	3438024	WORD	n/a	wordpools/wordpool_EN.txt	SHOE	3	15	[0, 0, 0]	n/a	FR1	1	R1118N
1503.885	1.6	3440557	WORD	n/a	wordpools/wordpool_EN.txt	BOX	4	15	[0, 0, 0]	n/a	FR1	1	R1118N
1506.286	1.6	3442957	WORD	n/a	wordpools/wordpool_EN.txt	RICE	5	15	[0, 0, 0]	n/a	FR1	1	R1118N
1508.769	1.6	3445440	WORD	n/a	wordpools/wordpool_EN.txt	TOAST	6	15	[0, 0, 0]	n/a	FR1	1	R1118N
1511.27	1.6	3447941	WORD	n/a	wordpools/wordpool_EN.txt	RAIN	7	15	[0, 0, 0]	n/a	FR1	1	R1118N
1513.737	1.6	3450408	WORD	n/a	wordpools/wordpool_EN.txt	ELF	8	15	[0, 0, 0]	n/a	FR1	1	R1118N
1516.171	1.6	3452842	WORD	n/a	wordpools/wordpool_EN.txt	FILM	9	15	[0, 0, 0]	n/a	FR1	1	R1118N
1518.571	1.6	3455242	WORD	n/a	wordpools/wordpool_EN.txt	CHIN	10	15	[0, 0, 0]	n/a	FR1	1	R1118N
1521.005	1.6	3457676	WORD	n/a	wordpools/wordpool_EN.txt	SWAMP	11	15	[0, 0, 0]	n/a	FR1	1	R1118N
1523.639	1.6	3460310	WORD	n/a	wordpools/wordpool_EN.txt	SALT	12	15	[0, 0, 0]	n/a	FR1	1	R1118N
1525.256	0.0	3461927	DISTRACT_START	n/a	n/a	n/a	-999	15	[0, 0, 0]	n/a	FR1	1	R1118N
1525.256	0.016	3461927	START	n/a	n/a	n/a	-999	15	[-999, -999, -999]	n/a	FR1	1	R1118N
1525.272	2.25	3461943	PROB	2.217	n/a	n/a	-999	15	[5, 4, 1]	10.0	FR1	1	R1118N
1527.522	2.501	3464193	PROB	2.479	n/a	n/a	-999	15	[7, 5, 1]	13.0	FR1	1	R1118N
1530.023	3.601	3466694	PROB	3.578	n/a	n/a	-999	15	[5, 4, 2]	11.0	FR1	1	R1118N
1533.624	3.867	3470294	PROB	3.833	n/a	n/a	-999	15	[8, 7, 3]	18.0	FR1	1	R1118N
1537.491	5.851	3474161	PROB	5.83	n/a	n/a	-999	15	[3, 2, 8]	13.0	FR1	1	R1118N
1543.342	2.923	3480012	PROB	2.923	n/a	n/a	-999	15	[1, 3, 5]	9.0	FR1	1	R1118N
1546.265	0.011	3482935	STOP	n/a	n/a	n/a	-999	15	[-999, -999, -999]	n/a	FR1	1	R1118N
1546.276	1.2	3482946	DISTRACT_END	n/a	n/a	n/a	-999	15	[0, 0, 0]	n/a	FR1	1	R1118N
1547.476	1.951	3484146	REC_START	n/a	n/a	n/a	-999	15	[0, 0, 0]	n/a	FR1	1	R1118N
1549.427	4.064	3486097	REC_WORD	1.951	n/a	HILL	-999	15	[0, 0, 0]	n/a	FR1	1	R1118N
1553.491	3.416	3490161	REC_WORD	6.015	n/a	TOP	-999	15	[0, 0, 0]	n/a	FR1	1	R1118N
1556.907	10.062	3493576	REC_WORD	9.431	n/a	CAMMEL	-999	15	[0, 0, 0]	n/a	FR1	1	R1118N
1566.969	2.006	3503638	REC_WORD	19.493	n/a	BOX	-999	15	[0, 0, 0]	n/a	FR1	1	R1118N
1568.975	8.515	3505644	REC_WORD	21.499	n/a	SWAMP	-999	15	[0, 0, 0]	n/a	FR1	1	R1118N
1577.49	1.474	3514159	REC_END	n/a	n/a	n/a	-999	15	[0, 0, 0]	n/a	FR1	1	R1118N
1578.964	10.0	3515633	COUNTDOWN_START	n/a	n/a	n/a	-999	16	[0, 0, 0]	n/a	FR1	1	R1118N
1578.965	10.427	3515634	TRIAL	n/a	n/a	n/a	-999	16	[0, 0, 0]	n/a	FR1	1	R1118N
1589.392	0.007	3526060	COUNTDOWN_END	n/a	n/a	n/a	-999	16	[0, 0, 0]	n/a	FR1	1	R1118N
1589.399	1.6	3526067	ORIENT	n/a	n/a	n/a	-999	16	[0, 0, 0]	n/a	FR1	1	R1118N
1592.0	1.6	3528668	WORD	n/a	wordpools/wordpool_EN.txt	SUN	1	16	[0, 0, 0]	n/a	FR1	1	R1118N
1594.617	1.6	3531285	WORD	n/a	wordpools/wordpool_EN.txt	TOAD	2	16	[0, 0, 0]	n/a	FR1	1	R1118N
1597.017	1.6	3533685	WORD	n/a	wordpools/wordpool_EN.txt	SEA	3	16	[0, 0, 0]	n/a	FR1	1	R1118N
1599.601	1.6	3536269	WORD	n/a	wordpools/wordpool_EN.txt	SNOW	4	16	[0, 0, 0]	n/a	FR1	1	R1118N
1602.151	1.6	3538819	WORD	n/a	wordpools/wordpool_EN.txt	WOLF	5	16	[0, 0, 0]	n/a	FR1	1	R1118N
1604.735	1.6	3541403	WORD	n/a	wordpools/wordpool_EN.txt	SHIP	6	16	[0, 0, 0]	n/a	FR1	1	R1118N
1607.252	1.6	3543919	WORD	n/a	wordpools/wordpool_EN.txt	RIB	7	16	[0, 0, 0]	n/a	FR1	1	R1118N
1609.819	1.6	3546486	WORD	n/a	wordpools/wordpool_EN.txt	MOLE	8	16	[0, 0, 0]	n/a	FR1	1	R1118N
1612.387	1.6	3549054	WORD	n/a	wordpools/wordpool_EN.txt	MOTH	9	16	[0, 0, 0]	n/a	FR1	1	R1118N
1614.804	1.6	3551471	WORD	n/a	wordpools/wordpool_EN.txt	TEETH	10	16	[0, 0, 0]	n/a	FR1	1	R1118N
1617.254	1.6	3553921	WORD	n/a	wordpools/wordpool_EN.txt	FOX	11	16	[0, 0, 0]	n/a	FR1	1	R1118N
1619.821	1.6	3556488	WORD	n/a	wordpools/wordpool_EN.txt	BEAR	12	16	[0, 0, 0]	n/a	FR1	1	R1118N
1621.438	0.001	3558105	DISTRACT_START	n/a	n/a	n/a	-999	16	[0, 0, 0]	n/a	FR1	1	R1118N
1621.439	0.016	3558106	START	n/a	n/a	n/a	-999	16	[-999, -999, -999]	n/a	FR1	1	R1118N
1621.455	3.884	3558122	PROB	3.85	n/a	n/a	-999	16	[1, 8, 9]	18.0	FR1	1	R1118N
1625.339	2.801	3562006	PROB	2.775	n/a	n/a	-999	16	[6, 1, 7]	14.0	FR1	1	R1118N
1628.14	6.634	3564807	PROB	6.597	n/a	n/a	-999	16	[3, 8, 6]	17.0	FR1	1	R1118N
1634.774	4.034	3571440	PROB	4.011	n/a	n/a	-999	16	[5, 5, 9]	14.0	FR1	1	R1118N
1638.808	5.145	3575474	PROB	5.145	n/a	n/a	-999	16	[6, 8, 3]	17.0	FR1	1	R1118N
1643.953	0.005	3580619	STOP	n/a	n/a	n/a	-999	16	[-999, -999, -999]	n/a	FR1	1	R1118N
1643.958	1.223	3580624	DISTRACT_END	n/a	n/a	n/a	-999	16	[0, 0, 0]	n/a	FR1	1	R1118N
1645.181	8.75	3581847	REC_START	n/a	n/a	n/a	-999	16	[0, 0, 0]	n/a	FR1	1	R1118N
1653.931	2.934	3590597	REC_WORD	8.75	n/a	TOP	-999	16	[0, 0, 0]	n/a	FR1	1	R1118N
1656.865	3.665	3593530	REC_WORD	11.684	n/a	HILL	-999	16	[0, 0, 0]	n/a	FR1	1	R1118N
1660.53	8.413	3597195	REC_WORD	15.349	n/a	BOX	-999	16	[0, 0, 0]	n/a	FR1	1	R1118N
1668.943	1.089	3605608	REC_WORD	23.762	n/a	TOAD	-999	16	[0, 0, 0]	n/a	FR1	1	R1118N
1670.032	5.154	3606697	REC_WORD	24.851	n/a	SUN	-999	16	[0, 0, 0]	n/a	FR1	1	R1118N
1675.186	1.495	3611851	REC_END	n/a	n/a	n/a	-999	16	[0, 0, 0]	n/a	FR1	1	R1118N
1676.681	0.0	3613346	TRIAL	n/a	n/a	n/a	-999	17	[0, 0, 0]	n/a	FR1	1	R1118N
1676.681	10.0	3613346	COUNTDOWN_START	n/a	n/a	n/a	-999	17	[0, 0, 0]	n/a	FR1	1	R1118N
1687.109	0.008	3623773	COUNTDOWN_END	n/a	n/a	n/a	-999	17	[0, 0, 0]	n/a	FR1	1	R1118N
1687.117	1.6	3623781	ORIENT	n/a	n/a	n/a	-999	17	[0, 0, 0]	n/a	FR1	1	R1118N
1689.649	1.6	3626313	WORD	n/a	wordpools/wordpool_EN.txt	BADGE	1	17	[0, 0, 0]	n/a	FR1	1	R1118N
1692.166	1.6	3628830	WORD	n/a	wordpools/wordpool_EN.txt	JUDGE	2	17	[0, 0, 0]	n/a	FR1	1	R1118N
1694.633	1.6	3631297	WORD	n/a	wordpools/wordpool_EN.txt	BOOK	3	17	[0, 0, 0]	n/a	FR1	1	R1118N
1697.184	1.6	3633848	WORD	n/a	wordpools/wordpool_EN.txt	PIG	4	17	[0, 0, 0]	n/a	FR1	1	R1118N
1699.618	1.6	3636282	WORD	n/a	wordpools/wordpool_EN.txt	PLANE	5	17	[0, 0, 0]	n/a	FR1	1	R1118N
1702.069	1.6	3638733	WORD	n/a	wordpools/wordpool_EN.txt	SHEET	6	17	[0, 0, 0]	n/a	FR1	1	R1118N
1704.518	1.6	3641182	WORD	n/a	wordpools/wordpool_EN.txt	CAR	7	17	[0, 0, 0]	n/a	FR1	1	R1118N
1706.936	1.6	3643599	WORD	n/a	wordpools/wordpool_EN.txt	SMOKE	8	17	[0, 0, 0]	n/a	FR1	1	R1118N
1709.519	1.6	3646182	WORD	n/a	wordpools/wordpool_EN.txt	SHEEP	9	17	[0, 0, 0]	n/a	FR1	1	R1118N
1712.121	1.6	3648784	WORD	n/a	wordpools/wordpool_EN.txt	WAVE	10	17	[0, 0, 0]	n/a	FR1	1	R1118N
1714.52	1.6	3651183	WORD	n/a	wordpools/wordpool_EN.txt	ARK	11	17	[0, 0, 0]	n/a	FR1	1	R1118N
1717.071	1.6	3653734	WORD	n/a	wordpools/wordpool_EN.txt	JET	12	17	[0, 0, 0]	n/a	FR1	1	R1118N
1718.687	0.002	3655350	DISTRACT_START	n/a	n/a	n/a	-999	17	[0, 0, 0]	n/a	FR1	1	R1118N
1718.689	0.015	3655352	START	n/a	n/a	n/a	-999	17	[-999, -999, -999]	n/a	FR1	1	R1118N
1718.704	6.518	3655367	PROB	6.497	n/a	n/a	-999	17	[4, 5, 3]	12.0	FR1	1	R1118N
1725.222	3.117	3661885	PROB	3.091	n/a	n/a	-999	17	[5, 7, 3]	15.0	FR1	1	R1118N
1728.339	2.45	3665002	PROB	2.414	n/a	n/a	-999	17	[5, 7, 3]	15.0	FR1	1	R1118N
1730.789	2.117	3667452	PROB	2.084	n/a	n/a	-999	17	[6, 4, 1]	11.0	FR1	1	R1118N
1732.906	4.635	3669568	PROB	4.607	n/a	n/a	-999	17	[6, 8, 1]	15.0	FR1	1	R1118N
1737.541	2.46	3674203	PROB	2.46	n/a	n/a	-999	17	[9, 5, 5]	19.0	FR1	1	R1118N
1740.001	0.007	3676663	STOP	n/a	n/a	n/a	-999	17	[-999, -999, -999]	n/a	FR1	1	R1118N
1740.008	1.085	3676670	DISTRACT_END	n/a	n/a	n/a	-999	17	[0, 0, 0]	n/a	FR1	1	R1118N
1741.093	1.563	3677755	REC_START	n/a	n/a	n/a	-999	17	[0, 0, 0]	n/a	FR1	1	R1118N
1742.656	1.009	3679318	REC_WORD	1.563	n/a	BADGE	-999	17	[0, 0, 0]	n/a	FR1	1	R1118N
1743.665	1.749	3680327	REC_WORD	2.572	n/a	JUDGE	-999	17	[0, 0, 0]	n/a	FR1	1	R1118N
1745.414	1.867	3682076	REC_WORD	4.321	n/a	BOOK	-999	17	[0, 0, 0]	n/a	FR1	1	R1118N
1747.281	4.277	3683943	REC_WORD	6.188	n/a	PIG	-999	17	[0, 0, 0]	n/a	FR1	1	R1118N
1751.558	1.746	3688220	REC_WORD	10.465	n/a	CAR	-999	17	[0, 0, 0]	n/a	FR1	1	R1118N
1753.304	7.721	3689966	REC_WORD	12.211	n/a	JET	-999	17	[0, 0, 0]	n/a	FR1	1	R1118N
1761.025	10.083	3697686	REC_WORD	19.932	n/a	SLIME	-999	17	[0, 0, 0]	n/a	FR1	1	R1118N
1771.108	1.588	3707769	REC_END	n/a	n/a	n/a	-999	17	[0, 0, 0]	n/a	FR1	1	R1118N
1772.696	10.0	3709357	COUNTDOWN_START	n/a	n/a	n/a	-999	18	[0, 0, 0]	n/a	FR1	1	R1118N
1772.697	10.427	3709358	TRIAL	n/a	n/a	n/a	-999	18	[0, 0, 0]	n/a	FR1	1	R1118N
1783.124	0.008	3719784	COUNTDOWN_END	n/a	n/a	n/a	-999	18	[0, 0, 0]	n/a	FR1	1	R1118N
1783.132	1.6	3719792	ORIENT	n/a	n/a	n/a	-999	18	[0, 0, 0]	n/a	FR1	1	R1118N
1785.649	1.6	3722309	WORD	n/a	wordpools/wordpool_EN.txt	STEAM	1	18	[0, 0, 0]	n/a	FR1	1	R1118N
1788.1	1.6	3724760	WORD	n/a	wordpools/wordpool_EN.txt	SIGN	2	18	[0, 0, 0]	n/a	FR1	1	R1118N
1790.599	1.6	3727259	WORD	n/a	wordpools/wordpool_EN.txt	WHALE	3	18	[0, 0, 0]	n/a	FR1	1	R1118N
1793.2	1.6	3729860	WORD	n/a	wordpools/wordpool_EN.txt	SHIELD	4	18	[0, 0, 0]	n/a	FR1	1	R1118N
1795.7	1.6	3732360	WORD	n/a	wordpools/wordpool_EN.txt	ICE	5	18	[0, 0, 0]	n/a	FR1	1	R1118N
1798.102	1.6	3734762	WORD	n/a	wordpools/wordpool_EN.txt	CROW	6	18	[0, 0, 0]	n/a	FR1	1	R1118N
1800.601	1.6	3737261	WORD	n/a	wordpools/wordpool_EN.txt	AXE	7	18	[0, 0, 0]	n/a	FR1	1	R1118N
1803.119	1.6	3739779	WORD	n/a	wordpools/wordpool_EN.txt	JEEP	8	18	[0, 0, 0]	n/a	FR1	1	R1118N
1805.668	1.6	3742328	WORD	n/a	wordpools/wordpool_EN.txt	SPRING	9	18	[0, 0, 0]	n/a	FR1	1	R1118N
1808.219	1.6	3744878	WORD	n/a	wordpools/wordpool_EN.txt	SLEEVE	10	18	[0, 0, 0]	n/a	FR1	1	R1118N
1810.669	1.6	3747328	WORD	n/a	wordpools/wordpool_EN.txt	GEESE	11	18	[0, 0, 0]	n/a	FR1	1	R1118N
1813.071	1.6	3749730	WORD	n/a	wordpools/wordpool_EN.txt	GATE	12	18	[0, 0, 0]	n/a	FR1	1	R1118N
1814.687	0.001	3751346	DISTRACT_START	n/a	n/a	n/a	-999	18	[0, 0, 0]	n/a	FR1	1	R1118N
1814.688	0.015	3751347	START	n/a	n/a	n/a	-999	18	[-999, -999, -999]	n/a	FR1	1	R1118N
1814.703	3.934	3751362	PROB	3.898	n/a	n/a	-999	18	[7, 6, 7]	20.0	FR1	1	R1118N
1818.637	3.384	3755296	PROB	3.348	n/a	n/a	-999	18	[7, 9, 3]	19.0	FR1	1	R1118N
1822.021	1.934	3758680	PROB	1.9	n/a	n/a	-999	18	[1, 3, 2]	6.0	FR1	1	R1118N
1823.955	2.5	3760614	PROB	2.478	n/a	n/a	-999	18	[2, 6, 1]	9.0	FR1	1	R1118N
1826.455	2.101	3763114	PROB	2.074	n/a	n/a	-999	18	[4, 6, 7]	17.0	FR1	1	R1118N
1828.556	2.15	3765215	PROB	2.125	n/a	n/a	-999	18	[7, 5, 2]	14.0	FR1	1	R1118N
1830.706	3.05	3767365	PROB	3.023	n/a	n/a	-999	18	[7, 2, 9]	18.0	FR1	1	R1118N
1833.756	5.733	3770414	PROB	5.733	n/a	n/a	-999	18	[3, 4, 5]	12.0	FR1	1	R1118N
1839.489	0.018	3776147	STOP	n/a	n/a	n/a	-999	18	[-999, -999, -999]	n/a	FR1	1	R1118N
1839.507	1.135	3776165	DISTRACT_END	n/a	n/a	n/a	-999	18	[0, 0, 0]	n/a	FR1	1	R1118N
1840.642	1.06	3777300	REC_START	n/a	n/a	n/a	-999	18	[0, 0, 0]	n/a	FR1	1	R1118N
1841.702	1.144	3778360	REC_WORD	1.06	n/a	STEAM	-999	18	[0, 0, 0]	n/a	FR1	1	R1118N
1842.846	2.097	3779504	REC_WORD	2.204	n/a	SHUN	-999	18	[0, 0, 0]	n/a	FR1	1	R1118N
1844.943	2.11	3781601	REC_WORD	4.301	n/a	GREESE	-999	18	[0, 0, 0]	n/a	FR1	1	R1118N
1847.053	7.238	3783711	REC_WORD	6.411	n/a	GOOSE	-999	18	[0, 0, 0]	n/a	FR1	1	R1118N
1854.291	4.507	3790949	REC_WORD	13.649	n/a	BACK	-999	18	[0, 0, 0]	n/a	FR1	1	R1118N
1858.798	11.853	3795455	REC_WORD	18.156	n/a	GEM	-999	18	[0, 0, 0]	n/a	FR1	1	R1118N
1870.651	1.446	3807308	REC_END	n/a	n/a	n/a	-999	18	[0, 0, 0]	n/a	FR1	1	R1118N
1872.097	0.0	3808754	TRIAL	n/a	n/a	n/a	-999	19	[0, 0, 0]	n/a	FR1	1	R1118N
1872.097	10.0	3808754	COUNTDOWN_START	n/a	n/a	n/a	-999	19	[0, 0, 0]	n/a	FR1	1	R1118N
1882.525	0.006	3819181	COUNTDOWN_END	n/a	n/a	n/a	-999	19	[0, 0, 0]	n/a	FR1	1	R1118N
1882.531	1.6	3819187	ORIENT	n/a	n/a	n/a	-999	19	[0, 0, 0]	n/a	FR1	1	R1118N
1884.998	1.6	3821654	WORD	n/a	wordpools/wordpool_EN.txt	MUG	1	19	[0, 0, 0]	n/a	FR1	1	R1118N
1887.465	1.6	3824121	WORD	n/a	wordpools/wordpool_EN.txt	TRUCK	2	19	[0, 0, 0]	n/a	FR1	1	R1118N
1889.899	1.6	3826555	WORD	n/a	wordpools/wordpool_EN.txt	STOOL	3	19	[0, 0, 0]	n/a	FR1	1	R1118N
1892.516	1.6	3829172	WORD	n/a	wordpools/wordpool_EN.txt	PURSE	4	19	[0, 0, 0]	n/a	FR1	1	R1118N
1895.0	1.6	3831656	WORD	n/a	wordpools/wordpool_EN.txt	SHELL	5	19	[0, 0, 0]	n/a	FR1	1	R1118N
1897.6	1.6	3834256	WORD	n/a	wordpools/wordpool_EN.txt	PEARL	6	19	[0, 0, 0]	n/a	FR1	1	R1118N
1900.001	1.6	3836657	WORD	n/a	wordpools/wordpool_EN.txt	MAZE	7	19	[0, 0, 0]	n/a	FR1	1	R1118N
1902.601	1.6	3839257	WORD	n/a	wordpools/wordpool_EN.txt	FLOOR	8	19	[0, 0, 0]	n/a	FR1	1	R1118N
1905.185	1.6	3841841	WORD	n/a	wordpools/wordpool_EN.txt	VAN	9	19	[0, 0, 0]	n/a	FR1	1	R1118N
1907.735	1.6	3844390	WORD	n/a	wordpools/wordpool_EN.txt	HOOK	10	19	[0, 0, 0]	n/a	FR1	1	R1118N
1910.137	1.6	3846792	WORD	n/a	wordpools/wordpool_EN.txt	PEA	11	19	[0, 0, 0]	n/a	FR1	1	R1118N
1912.62	1.6	3849275	WORD	n/a	wordpools/wordpool_EN.txt	CLOWN	12	19	[0, 0, 0]	n/a	FR1	1	R1118N
1914.236	0.001	3850891	DISTRACT_START	n/a	n/a	n/a	-999	19	[0, 0, 0]	n/a	FR1	1	R1118N
1914.237	0.016	3850892	START	n/a	n/a	n/a	-999	19	[-999, -999, -999]	n/a	FR1	1	R1118N
1914.253	3.885	3850908	PROB	3.853	n/a	n/a	-999	19	[1, 6, 9]	16.0	FR1	1	R1118N
1918.138	2.566	3854793	PROB	2.535	n/a	n/a	-999	19	[4, 2, 4]	10.0	FR1	1	R1118N
1920.704	1.884	3857359	PROB	1.857	n/a	n/a	-999	19	[1, 9, 7]	17.0	FR1	1	R1118N
1922.588	2.25	3859243	PROB	2.229	n/a	n/a	-999	19	[6, 1, 7]	14.0	FR1	1	R1118N
1924.838	2.252	3861493	PROB	2.228	n/a	n/a	-999	19	[1, 5, 4]	10.0	FR1	1	R1118N
1927.09	3.933	3863745	PROB	3.911	n/a	n/a	-999	19	[7, 9, 2]	18.0	FR1	1	R1118N
1931.023	3.826	3867678	PROB	3.826	n/a	n/a	-999	19	[8, 8, 4]	20.0	FR1	1	R1118N
1934.849	0.008	3871503	STOP	n/a	n/a	n/a	-999	19	[-999, -999, -999]	n/a	FR1	1	R1118N
1934.857	1.1	3871511	DISTRACT_END	n/a	n/a	n/a	-999	19	[0, 0, 0]	n/a	FR1	1	R1118N
1935.957	4.374	3872611	REC_START	n/a	n/a	n/a	-999	19	[0, 0, 0]	n/a	FR1	1	R1118N
1940.331	1.531	3876985	REC_WORD	4.374	n/a	MUG	-999	19	[0, 0, 0]	n/a	FR1	1	R1118N
1941.862	1.679	3878516	REC_WORD	5.905	n/a	TRUCK	-999	19	[0, 0, 0]	n/a	FR1	1	R1118N
1943.541	1.936	3880195	REC_WORD	7.584	n/a	CUP	-999	19	[0, 0, 0]	n/a	FR1	1	R1118N
1945.477	6.094	3882131	REC_WORD	9.52	n/a	ICE	-999	19	[0, 0, 0]	n/a	FR1	1	R1118N
1951.571	14.4	3888225	REC_WORD	15.614	n/a	PEARL	-999	19	[0, 0, 0]	n/a	FR1	1	R1118N
1965.971	1.391	3902624	REC_END	n/a	n/a	n/a	-999	19	[0, 0, 0]	n/a	FR1	1	R1118N
1967.362	0.0	3904015	TRIAL	n/a	n/a	n/a	-999	20	[0, 0, 0]	n/a	FR1	1	R1118N
1967.362	10.0	3904015	COUNTDOWN_START	n/a	n/a	n/a	-999	20	[0, 0, 0]	n/a	FR1	1	R1118N
1977.79	0.007	3914443	COUNTDOWN_END	n/a	n/a	n/a	-999	20	[0, 0, 0]	n/a	FR1	1	R1118N
1977.797	1.6	3914450	ORIENT	n/a	n/a	n/a	-999	20	[0, 0, 0]	n/a	FR1	1	R1118N
1980.18	1.6	3916833	WORD	n/a	wordpools/wordpool_EN.txt	BLOOM	1	20	[0, 0, 0]	n/a	FR1	1	R1118N
1982.581	1.6	3919233	WORD	n/a	wordpools/wordpool_EN.txt	BROOM	2	20	[0, 0, 0]	n/a	FR1	1	R1118N
1985.066	1.6	3921718	WORD	n/a	wordpools/wordpool_EN.txt	BRANCH	3	20	[0, 0, 0]	n/a	FR1	1	R1118N
1987.482	1.6	3924134	WORD	n/a	wordpools/wordpool_EN.txt	ROAD	4	20	[0, 0, 0]	n/a	FR1	1	R1118N
1990.05	1.6	3926702	WORD	n/a	wordpools/wordpool_EN.txt	OAK	5	20	[0, 0, 0]	n/a	FR1	1	R1118N
1992.449	1.6	3929101	WORD	n/a	wordpools/wordpool_EN.txt	GRASS	6	20	[0, 0, 0]	n/a	FR1	1	R1118N
1995.0	1.6	3931652	WORD	n/a	wordpools/wordpool_EN.txt	VINE	7	20	[0, 0, 0]	n/a	FR1	1	R1118N
1997.4	1.6	3934052	WORD	n/a	wordpools/wordpool_EN.txt	STRAW	8	20	[0, 0, 0]	n/a	FR1	1	R1118N
1999.951	1.6	3936603	WORD	n/a	wordpools/wordpool_EN.txt	ROPE	9	20	[0, 0, 0]	n/a	FR1	1	R1118N
2002.484	1.6	3939136	WORD	n/a	wordpools/wordpool_EN.txt	PANTS	10	20	[0, 0, 0]	n/a	FR1	1	R1118N
2005.052	1.6	3941704	WORD	n/a	wordpools/wordpool_EN.txt	PEACH	11	20	[0, 0, 0]	n/a	FR1	1	R1118N
2007.618	1.6	3944269	WORD	n/a	wordpools/wordpool_EN.txt	WEED	12	20	[0, 0, 0]	n/a	FR1	1	R1118N
2009.235	0.001	3945886	DISTRACT_START	n/a	n/a	n/a	-999	20	[0, 0, 0]	n/a	FR1	1	R1118N
2009.236	0.016	3945887	START	n/a	n/a	n/a	-999	20	[-999, -999, -999]	n/a	FR1	1	R1118N
2009.252	2.767	3945903	PROB	2.741	n/a	n/a	-999	20	[6, 5, 1]	12.0	FR1	1	R1118N
2012.019	13.719	3948670	PROB	13.686	n/a	n/a	-999	20	[4, 7, 8]	17.0	FR1	1	R1118N
2025.738	5.927	3962389	PROB	5.927	n/a	n/a	-999	20	[5, 7, 2]	14.0	FR1	1	R1118N
2031.665	0.007	3968315	STOP	n/a	n/a	n/a	-999	20	[-999, -999, -999]	n/a	FR1	1	R1118N
2031.672	1.052	3968322	DISTRACT_END	n/a	n/a	n/a	-999	20	[0, 0, 0]	n/a	FR1	1	R1118N
2032.724	1.337	3969374	REC_START	n/a	n/a	n/a	-999	20	[0, 0, 0]	n/a	FR1	1	R1118N
2034.061	3.824	3970711	REC_WORD	1.337	n/a	BROOM	-999	20	[0, 0, 0]	n/a	FR1	1	R1118N
2037.885	2.578	3974535	REC_WORD	5.161	n/a	ROPE	-999	20	[0, 0, 0]	n/a	FR1	1	R1118N
2040.463	2.218	3977113	REC_WORD	7.739	n/a	TRUCK	-999	20	[0, 0, 0]	n/a	FR1	1	R1118N
2042.681	14.962	3979331	REC_WORD	9.957	n/a	DUST	-999	20	[0, 0, 0]	n/a	FR1	1	R1118N
2057.643	5.091	3994292	REC_WORD	24.919	n/a	BRANCH	-999	20	[0, 0, 0]	n/a	FR1	1	R1118N
2062.734	1.51	3999383	REC_END	n/a	n/a	n/a	-999	20	[0, 0, 0]	n/a	FR1	1	R1118N
2064.244	0.0	4000893	TRIAL	n/a	n/a	n/a	-999	21	[0, 0, 0]	n/a	FR1	1	R1118N
2064.244	10.0	4000893	COUNTDOWN_START	n/a	n/a	n/a	-999	21	[0, 0, 0]	n/a	FR1	1	R1118N
2074.672	0.008	4011321	COUNTDOWN_END	n/a	n/a	n/a	-999	21	[0, 0, 0]	n/a	FR1	1	R1118N
2074.68	1.6	4011329	ORIENT	n/a	n/a	n/a	-999	21	[0, 0, 0]	n/a	FR1	1	R1118N
2077.081	1.6	4013730	WORD	n/a	wordpools/wordpool_EN.txt	RUG	1	21	[0, 0, 0]	n/a	FR1	1	R1118N
2079.53	1.6	4016179	WORD	n/a	wordpools/wordpool_EN.txt	YARD	2	21	[0, 0, 0]	n/a	FR1	1	R1118N
2081.997	1.6	4018645	WORD	n/a	wordpools/wordpool_EN.txt	STOVE	3	21	[0, 0, 0]	n/a	FR1	1	R1118N
2084.498	1.6	4021146	WORD	n/a	wordpools/wordpool_EN.txt	LOCK	4	21	[0, 0, 0]	n/a	FR1	1	R1118N
2086.882	1.6	4023530	WORD	n/a	wordpools/wordpool_EN.txt	FACE	5	21	[0, 0, 0]	n/a	FR1	1	R1118N
2089.365	1.6	4026013	WORD	n/a	wordpools/wordpool_EN.txt	BOARD	6	21	[0, 0, 0]	n/a	FR1	1	R1118N
2091.849	1.6	4028497	WORD	n/a	wordpools/wordpool_EN.txt	CAGE	7	21	[0, 0, 0]	n/a	FR1	1	R1118N
2094.283	1.6	4030931	WORD	n/a	wordpools/wordpool_EN.txt	HORN	8	21	[0, 0, 0]	n/a	FR1	1	R1118N
2096.9	1.6	4033548	WORD	n/a	wordpools/wordpool_EN.txt	DRESS	9	21	[0, 0, 0]	n/a	FR1	1	R1118N
2099.3	1.6	4035948	WORD	n/a	wordpools/wordpool_EN.txt	DOCK	10	21	[0, 0, 0]	n/a	FR1	1	R1118N
2101.817	1.6	4038465	WORD	n/a	wordpools/wordpool_EN.txt	WOOD	11	21	[0, 0, 0]	n/a	FR1	1	R1118N
2104.418	1.6	4041066	WORD	n/a	wordpools/wordpool_EN.txt	TOY	12	21	[0, 0, 0]	n/a	FR1	1	R1118N
2106.036	0.001	4042684	DISTRACT_START	n/a	n/a	n/a	-999	21	[0, 0, 0]	n/a	FR1	1	R1118N
2106.037	0.015	4042685	START	n/a	n/a	n/a	-999	21	[-999, -999, -999]	n/a	FR1	1	R1118N
2106.052	3.4	4042700	PROB	3.365	n/a	n/a	-999	21	[2, 5, 2]	9.0	FR1	1	R1118N
2109.452	2.95	4046099	PROB	2.917	n/a	n/a	-999	21	[4, 8, 1]	13.0	FR1	1	R1118N
2112.402	5.485	4049049	PROB	5.463	n/a	n/a	-999	21	[9, 6, 2]	19.0	FR1	1	R1118N
2117.887	4.034	4054534	PROB	4.01	n/a	n/a	-999	21	[8, 4, 3]	15.0	FR1	1	R1118N
2121.921	4.808	4058568	PROB	4.808	n/a	n/a	-999	21	[7, 4, 7]	18.0	FR1	1	R1118N
2126.729	0.009	4063376	STOP	n/a	n/a	n/a	-999	21	[-999, -999, -999]	n/a	FR1	1	R1118N
2126.738	1.101	4063385	DISTRACT_END	n/a	n/a	n/a	-999	21	[0, 0, 0]	n/a	FR1	1	R1118N
2127.839	4.343	4064486	REC_START	n/a	n/a	n/a	-999	21	[0, 0, 0]	n/a	FR1	1	R1118N
2132.182	3.216	4068828	REC_WORD	4.343	n/a	YARD	-999	21	[0, 0, 0]	n/a	FR1	1	R1118N
2135.398	10.833	4072044	REC_WORD	7.559	n/a	GRASS	-999	21	[0, 0, 0]	n/a	FR1	1	R1118N
2146.231	11.617	4082877	REC_WORD	18.392	n/a	TRUCK	-999	21	[0, 0, 0]	n/a	FR1	1	R1118N
2157.848	1.596	4094493	REC_END	n/a	n/a	n/a	-999	21	[0, 0, 0]	n/a	FR1	1	R1118N
2159.444	10.0	4096089	COUNTDOWN_START	n/a	n/a	n/a	-999	22	[0, 0, 0]	n/a	FR1	1	R1118N
2159.444	10.428	4096089	TRIAL	n/a	n/a	n/a	-999	22	[0, 0, 0]	n/a	FR1	1	R1118N
2169.872	0.007	4106517	COUNTDOWN_END	n/a	n/a	n/a	-999	22	[0, 0, 0]	n/a	FR1	1	R1118N
2169.879	1.6	4106524	ORIENT	n/a	n/a	n/a	-999	22	[0, 0, 0]	n/a	FR1	1	R1118N
2172.279	1.6	4108924	WORD	n/a	wordpools/wordpool_EN.txt	DUCK	1	22	[0, 0, 0]	n/a	FR1	1	R1118N
2174.879	1.6	4111524	WORD	n/a	wordpools/wordpool_EN.txt	ZOO	2	22	[0, 0, 0]	n/a	FR1	1	R1118N
2177.363	1.6	4114008	WORD	n/a	wordpools/wordpool_EN.txt	SOUP	3	22	[0, 0, 0]	n/a	FR1	1	R1118N
2179.797	1.6	4116442	WORD	n/a	wordpools/wordpool_EN.txt	CLAY	4	22	[0, 0, 0]	n/a	FR1	1	R1118N
2182.247	1.6	4118891	WORD	n/a	wordpools/wordpool_EN.txt	MOUSE	5	22	[0, 0, 0]	n/a	FR1	1	R1118N
2184.714	1.6	4121358	WORD	n/a	wordpools/wordpool_EN.txt	SKUNK	6	22	[0, 0, 0]	n/a	FR1	1	R1118N
2187.315	1.6	4123959	WORD	n/a	wordpools/wordpool_EN.txt	ANT	7	22	[0, 0, 0]	n/a	FR1	1	R1118N
2189.732	1.6	4126376	WORD	n/a	wordpools/wordpool_EN.txt	MOOSE	8	22	[0, 0, 0]	n/a	FR1	1	R1118N
2192.117	1.6	4128761	WORD	n/a	wordpools/wordpool_EN.txt	ROCK	9	22	[0, 0, 0]	n/a	FR1	1	R1118N
2194.666	1.6	4131310	WORD	n/a	wordpools/wordpool_EN.txt	SPONGE	10	22	[0, 0, 0]	n/a	FR1	1	R1118N
2197.051	1.6	4133695	WORD	n/a	wordpools/wordpool_EN.txt	TENT	11	22	[0, 0, 0]	n/a	FR1	1	R1118N
2199.65	1.6	4136294	WORD	n/a	wordpools/wordpool_EN.txt	SNAKE	12	22	[0, 0, 0]	n/a	FR1	1	R1118N
2201.267	0.001	4137911	DISTRACT_START	n/a	n/a	n/a	-999	22	[0, 0, 0]	n/a	FR1	1	R1118N
2201.268	0.016	4137912	START	n/a	n/a	n/a	-999	22	[-999, -999, -999]	n/a	FR1	1	R1118N
2201.284	2.2	4137928	PROB	2.173	n/a	n/a	-999	22	[5, 6, 1]	12.0	FR1	1	R1118N
2203.484	5.001	4140128	PROB	4.966	n/a	n/a	-999	22	[4, 6, 8]	18.0	FR1	1	R1118N
2208.485	3.568	4145128	PROB	3.532	n/a	n/a	-999	22	[3, 9, 7]	19.0	FR1	1	R1118N
2212.053	2.316	4148696	PROB	2.284	n/a	n/a	-999	22	[7, 3, 6]	16.0	FR1	1	R1118N
2214.369	4.368	4151012	PROB	4.336	n/a	n/a	-999	22	[1, 6, 8]	15.0	FR1	1	R1118N
2218.737	2.784	4155380	PROB	2.784	n/a	n/a	-999	22	[2, 3, 5]	10.0	FR1	1	R1118N
2221.521	0.016	4158164	STOP	n/a	n/a	n/a	-999	22	[-999, -999, -999]	n/a	FR1	1	R1118N
2221.537	1.118	4158180	DISTRACT_END	n/a	n/a	n/a	-999	22	[0, 0, 0]	n/a	FR1	1	R1118N
2222.655	1.762	4159298	REC_START	n/a	n/a	n/a	-999	22	[0, 0, 0]	n/a	FR1	1	R1118N
2224.417	1.125	4161060	REC_WORD	1.762	n/a	DUCK	-999	22	[0, 0, 0]	n/a	FR1	1	R1118N
2225.542	10.85	4162185	REC_WORD	2.887	n/a	MOOSE	-999	22	[0, 0, 0]	n/a	FR1	1	R1118N
2236.392	5.928	4173034	REC_WORD	13.737	n/a	CAMMEL	-999	22	[0, 0, 0]	n/a	FR1	1	R1118N
2242.32	10.345	4178962	REC_WORD	19.665	n/a	SAP	-999	22	[0, 0, 0]	n/a	FR1	1	R1118N
2252.665	25.965	4189307	REC_END	n/a	n/a	n/a	-999	22	[0, 0, 0]	n/a	FR1	1	R1118N
2278.63	0.0	4215271	TRIAL	n/a	n/a	n/a	-999	23	[0, 0, 0]	n/a	FR1	1	R1118N
2278.63	10.0	4215271	COUNTDOWN_START	n/a	n/a	n/a	-999	23	[0, 0, 0]	n/a	FR1	1	R1118N
2289.058	0.008	4225698	COUNTDOWN_END	n/a	n/a	n/a	-999	23	[0, 0, 0]	n/a	FR1	1	R1118N
2289.066	1.6	4225706	ORIENT	n/a	n/a	n/a	-999	23	[0, 0, 0]	n/a	FR1	1	R1118N
2291.665	1.6	4228305	WORD	n/a	wordpools/wordpool_EN.txt	STONE	1	23	[0, 0, 0]	n/a	FR1	1	R1118N
2294.232	1.6	4230872	WORD	n/a	wordpools/wordpool_EN.txt	FOAM	2	23	[0, 0, 0]	n/a	FR1	1	R1118N
2296.766	1.6	4233406	WORD	n/a	wordpools/wordpool_EN.txt	CUBE	3	23	[0, 0, 0]	n/a	FR1	1	R1118N
2299.167	1.6	4235807	WORD	n/a	wordpools/wordpool_EN.txt	BEACH	4	23	[0, 0, 0]	n/a	FR1	1	R1118N
2301.584	1.6	4238224	WORD	n/a	wordpools/wordpool_EN.txt	ROOF	5	23	[0, 0, 0]	n/a	FR1	1	R1118N
2304.167	1.6	4240807	WORD	n/a	wordpools/wordpool_EN.txt	CAVE	6	23	[0, 0, 0]	n/a	FR1	1	R1118N
2306.784	1.6	4243423	WORD	n/a	wordpools/wordpool_EN.txt	WEB	7	23	[0, 0, 0]	n/a	FR1	1	R1118N
2309.218	1.6	4245857	WORD	n/a	wordpools/wordpool_EN.txt	HOLE	8	23	[0, 0, 0]	n/a	FR1	1	R1118N
2311.652	1.6	4248291	WORD	n/a	wordpools/wordpool_EN.txt	BUSH	9	23	[0, 0, 0]	n/a	FR1	1	R1118N
2314.053	1.6	4250692	WORD	n/a	wordpools/wordpool_EN.txt	SNAIL	10	23	[0, 0, 0]	n/a	FR1	1	R1118N
2316.569	1.6	4253208	WORD	n/a	wordpools/wordpool_EN.txt	LAKE	11	23	[0, 0, 0]	n/a	FR1	1	R1118N
2319.17	1.6	4255809	WORD	n/a	wordpools/wordpool_EN.txt	SPEAR	12	23	[0, 0, 0]	n/a	FR1	1	R1118N
2320.787	0.001	4257426	DISTRACT_START	n/a	n/a	n/a	-999	23	[0, 0, 0]	n/a	FR1	1	R1118N
2320.788	0.015	4257427	START	n/a	n/a	n/a	-999	23	[-999, -999, -999]	n/a	FR1	1	R1118N
2320.803	3.434	4257442	PROB	3.406	n/a	n/a	-999	23	[1, 6, 2]	9.0	FR1	1	R1118N
2324.237	4.451	4260876	PROB	4.42	n/a	n/a	-999	23	[3, 2, 6]	11.0	FR1	1	R1118N
2328.688	2.402	4265327	PROB	2.37	n/a	n/a	-999	23	[2, 1, 6]	11.0	FR1	1	R1118N
2331.09	7.216	4267729	PROB	7.191	n/a	n/a	-999	23	[8, 5, 9]	22.0	FR1	1	R1118N
2338.306	2.267	4274944	PROB	2.247	n/a	n/a	-999	23	[2, 5, 5]	12.0	FR1	1	R1118N
2340.573	3.485	4277211	PROB	3.485	n/a	n/a	-999	23	[7, 4, 3]	14.0	FR1	1	R1118N
2344.058	0.017	4280696	STOP	n/a	n/a	n/a	-999	23	[-999, -999, -999]	n/a	FR1	1	R1118N
2344.075	1.101	4280713	DISTRACT_END	n/a	n/a	n/a	-999	23	[0, 0, 0]	n/a	FR1	1	R1118N
2345.176	0.827	4281814	REC_START	n/a	n/a	n/a	-999	23	[0, 0, 0]	n/a	FR1	1	R1118N
2346.003	1.215	4282641	REC_WORD	0.827	n/a	STONE	-999	23	[0, 0, 0]	n/a	FR1	1	R1118N
2347.218	3.401	4283856	REC_WORD	2.042	n/a	PHONE	-999	23	[0, 0, 0]	n/a	FR1	1	R1118N
2350.619	8.308	4287257	REC_WORD	5.443	n/a	CAMMEL	-999	23	[0, 0, 0]	n/a	FR1	1	R1118N
2358.927	10.448	4295564	REC_WORD	13.751	n/a	MOOSE	-999	23	[0, 0, 0]	n/a	FR1	1	R1118N
2369.375	5.809	4306012	REC_WORD	24.199	n/a	FOG	-999	23	[0, 0, 0]	n/a	FR1	1	R1118N
2375.184	1.529	4311821	REC_END	n/a	n/a	n/a	-999	23	[0, 0, 0]	n/a	FR1	1	R1118N
2376.713	0.0	4313350	TRIAL	n/a	n/a	n/a	-999	24	[0, 0, 0]	n/a	FR1	1	R1118N
2376.713	10.0	4313350	COUNTDOWN_START	n/a	n/a	n/a	-999	24	[0, 0, 0]	n/a	FR1	1	R1118N
2387.141	0.007	4323777	COUNTDOWN_END	n/a	n/a	n/a	-999	24	[0, 0, 0]	n/a	FR1	1	R1118N
2387.148	1.6	4323784	ORIENT	n/a	n/a	n/a	-999	24	[0, 0, 0]	n/a	FR1	1	R1118N
2389.615	1.6	4326251	WORD	n/a	wordpools/wordpool_EN.txt	SCHOOL	1	24	[0, 0, 0]	n/a	FR1	1	R1118N
2391.999	1.6	4328635	WORD	n/a	wordpools/wordpool_EN.txt	PIN	2	24	[0, 0, 0]	n/a	FR1	1	R1118N
2394.399	1.6	4331035	WORD	n/a	wordpools/wordpool_EN.txt	CLOCK	3	24	[0, 0, 0]	n/a	FR1	1	R1118N
2396.866	1.6	4333502	WORD	n/a	wordpools/wordpool_EN.txt	FLAG	4	24	[0, 0, 0]	n/a	FR1	1	R1118N
2399.266	1.6	4335902	WORD	n/a	wordpools/wordpool_EN.txt	THUMB	5	24	[0, 0, 0]	n/a	FR1	1	R1118N
2401.683	1.6	4338319	WORD	n/a	wordpools/wordpool_EN.txt	BOY	6	24	[0, 0, 0]	n/a	FR1	1	R1118N
2404.184	1.6	4340820	WORD	n/a	wordpools/wordpool_EN.txt	WORLD	7	24	[0, 0, 0]	n/a	FR1	1	R1118N
2406.634	1.6	4343269	WORD	n/a	wordpools/wordpool_EN.txt	DESK	8	24	[0, 0, 0]	n/a	FR1	1	R1118N
2409.086	1.6	4345721	WORD	n/a	wordpools/wordpool_EN.txt	BRIDGE	9	24	[0, 0, 0]	n/a	FR1	1	R1118N
2411.602	1.6	4348237	WORD	n/a	wordpools/wordpool_EN.txt	THREAD	10	24	[0, 0, 0]	n/a	FR1	1	R1118N
2414.103	1.6	4350738	WORD	n/a	wordpools/wordpool_EN.txt	INK	11	24	[0, 0, 0]	n/a	FR1	1	R1118N
2416.519	1.6	4353154	WORD	n/a	wordpools/wordpool_EN.txt	POOL	12	24	[0, 0, 0]	n/a	FR1	1	R1118N
2418.12	0.001	4354755	DISTRACT_START	n/a	n/a	n/a	-999	24	[0, 0, 0]	n/a	FR1	1	R1118N
2418.121	0.016	4354756	START	n/a	n/a	n/a	-999	24	[-999, -999, -999]	n/a	FR1	1	R1118N
2418.137	3.783	4354772	PROB	3.752	n/a	n/a	-999	24	[9, 1, 9]	19.0	FR1	1	R1118N
2421.92	2.667	4358555	PROB	2.633	n/a	n/a	-999	24	[6, 2, 8]	16.0	FR1	1	R1118N
2424.587	6.519	4361222	PROB	6.495	n/a	n/a	-999	24	[3, 4, 9]	16.0	FR1	1	R1118N
2431.106	5.083	4367741	PROB	5.047	n/a	n/a	-999	24	[4, 9, 3]	16.0	FR1	1	R1118N
2436.189	2.3	4372823	PROB	2.3	n/a	n/a	-999	24	[4, 2, 1]	7.0	FR1	1	R1118N
2438.489	0.017	4375123	STOP	n/a	n/a	n/a	-999	24	[-999, -999, -999]	n/a	FR1	1	R1118N
2438.506	1.168	4375140	DISTRACT_END	n/a	n/a	n/a	-999	24	[0, 0, 0]	n/a	FR1	1	R1118N
2439.674	1.017	4376308	REC_START	n/a	n/a	n/a	-999	24	[0, 0, 0]	n/a	FR1	1	R1118N
2440.691	1.243	4377325	REC_WORD	1.017	n/a	SCHOOL	-999	24	[0, 0, 0]	n/a	FR1	1	R1118N
2441.934	2.876	4378568	REC_WORD	2.26	n/a	PIN	-999	24	[0, 0, 0]	n/a	FR1	1	R1118N
2444.81	4.149	4381444	REC_WORD	5.136	n/a	FLAG	-999	24	[0, 0, 0]	n/a	FR1	1	R1118N
2448.959	1.733	4385593	REC_WORD	9.285	n/a	KID	-999	24	[0, 0, 0]	n/a	FR1	1	R1118N
2450.692	9.477	4387326	REC_WORD	11.018	n/a	INK	-999	24	[0, 0, 0]	n/a	FR1	1	R1118N
2460.169	9.515	4396802	REC_WORD	20.495	n/a	TRAVEL	-999	24	[0, 0, 0]	n/a	FR1	1	R1118N
2469.684	2.078	4406317	REC_END	n/a	n/a	n/a	-999	24	[0, 0, 0]	n/a	FR1	1	R1118N
2471.762	0.0	4408395	TRIAL	n/a	n/a	n/a	-999	25	[0, 0, 0]	n/a	FR1	1	R1118N
2471.762	10.0	4408395	COUNTDOWN_START	n/a	n/a	n/a	-999	25	[0, 0, 0]	n/a	FR1	1	R1118N
2482.19	0.007	4418822	COUNTDOWN_END	n/a	n/a	n/a	-999	25	[0, 0, 0]	n/a	FR1	1	R1118N
2482.197	1.6	4418829	ORIENT	n/a	n/a	n/a	-999	25	[0, 0, 0]	n/a	FR1	1	R1118N
2484.747	1.6	4421379	WORD	n/a	wordpools/wordpool_EN.txt	SEAL	1	25	[0, 0, 0]	n/a	FR1	1	R1118N
2487.214	1.6	4423846	WORD	n/a	wordpools/wordpool_EN.txt	GOLD	2	25	[0, 0, 0]	n/a	FR1	1	R1118N
2489.648	1.6	4426280	WORD	n/a	wordpools/wordpool_EN.txt	GUARD	3	25	[0, 0, 0]	n/a	FR1	1	R1118N
2492.198	1.6	4428830	WORD	n/a	wordpools/wordpool_EN.txt	NAIL	4	25	[0, 0, 0]	n/a	FR1	1	R1118N
2494.749	1.6	4431381	WORD	n/a	wordpools/wordpool_EN.txt	SQUARE	5	25	[0, 0, 0]	n/a	FR1	1	R1118N
2497.249	1.6	4433881	WORD	n/a	wordpools/wordpool_EN.txt	CAPE	6	25	[0, 0, 0]	n/a	FR1	1	R1118N
2499.766	1.6	4436398	WORD	n/a	wordpools/wordpool_EN.txt	TOOL	7	25	[0, 0, 0]	n/a	FR1	1	R1118N
2502.25	1.6	4438882	WORD	n/a	wordpools/wordpool_EN.txt	CROWN	8	25	[0, 0, 0]	n/a	FR1	1	R1118N
2504.75	1.6	4441382	WORD	n/a	wordpools/wordpool_EN.txt	SWORD	9	25	[0, 0, 0]	n/a	FR1	1	R1118N
2507.218	1.6	4443849	WORD	n/a	wordpools/wordpool_EN.txt	HAND	10	25	[0, 0, 0]	n/a	FR1	1	R1118N
2509.785	1.6	4446416	WORD	n/a	wordpools/wordpool_EN.txt	BLUSH	11	25	[0, 0, 0]	n/a	FR1	1	R1118N
2512.352	1.6	4448983	WORD	n/a	wordpools/wordpool_EN.txt	PIT	12	25	[0, 0, 0]	n/a	FR1	1	R1118N
2513.969	0.001	4450600	DISTRACT_START	n/a	n/a	n/a	-999	25	[0, 0, 0]	n/a	FR1	1	R1118N
2513.97	0.015	4450601	START	n/a	n/a	n/a	-999	25	[-999, -999, -999]	n/a	FR1	1	R1118N
2513.985	3.718	4450616	PROB	3.696	n/a	n/a	-999	25	[1, 9, 7]	17.0	FR1	1	R1118N
2517.703	2.933	4454334	PROB	2.906	n/a	n/a	-999	25	[3, 9, 1]	13.0	FR1	1	R1118N
2520.636	2.234	4457267	PROB	2.213	n/a	n/a	-999	25	[7, 9, 1]	17.0	FR1	1	R1118N
2522.87	5.068	4459501	PROB	5.043	n/a	n/a	-999	25	[9, 9, 5]	24.0	FR1	1	R1118N
2527.938	3.417	4464569	PROB	3.391	n/a	n/a	-999	25	[6, 4, 4]	14.0	FR1	1	R1118N
2531.355	2.534	4467986	PROB	2.51	n/a	n/a	-999	25	[1, 1, 3]	5.0	FR1	1	R1118N
2533.889	3.488	4470519	PROB	3.488	n/a	n/a	-999	25	[1, 3, 5]	9.0	FR1	1	R1118N
2537.377	0.012	4474007	STOP	n/a	n/a	n/a	-999	25	[-999, -999, -999]	n/a	FR1	1	R1118N
2537.389	1.218	4474019	DISTRACT_END	n/a	n/a	n/a	-999	25	[0, 0, 0]	n/a	FR1	1	R1118N
2538.607	1.643	4475237	REC_START	n/a	n/a	n/a	-999	25	[0, 0, 0]	n/a	FR1	1	R1118N
2540.25	1.296	4476880	REC_WORD	1.643	n/a	CAPE	-999	25	[0, 0, 0]	n/a	FR1	1	R1118N
2541.546	2.3	4478176	REC_WORD	2.939	n/a	GOLD	-999	25	[0, 0, 0]	n/a	FR1	1	R1118N
2543.846	3.059	4480476	REC_WORD	5.239	n/a	TACK	-999	25	[0, 0, 0]	n/a	FR1	1	R1118N
2546.905	3.332	4483535	REC_WORD	8.298	n/a	NOW	-999	25	[0, 0, 0]	n/a	FR1	1	R1118N
2550.237	4.945	4486867	REC_WORD_VV	11.63	n/a	<>	-999	25	[0, 0, 0]	n/a	FR1	1	R1118N
2555.182	6.52	4491812	REC_WORD	16.575	n/a	TOOL	-999	25	[0, 0, 0]	n/a	FR1	1	R1118N
2561.702	6.504	4498331	REC_WORD_VV	23.095	n/a	<>	-999	25	[0, 0, 0]	n/a	FR1	1	R1118N
2568.206	0.412	4504835	REC_WORD	29.599	n/a	GOLD	-999	25	[0, 0, 0]	n/a	FR1	1	R1118N
2568.618	8.345	4505247	REC_END	n/a	n/a	n/a	-999	25	[0, 0, 0]	n/a	FR1	1	R1118N
2576.963	0.0	4513592	SESS_END	n/a	n/a	n/a	-999	25	[0, 0, 0]	n/a	FR1	1	R1118N
