onset	duration	sample	trial_type	response_time	stim_file	item_name	serialpos	list	test	answer	experiment	session	subject
0.0	31.505	26228	SESS_START	n/a	n/a	n/a	-999	-999	[0, 0, 0]	n/a	FR1	3	R1111M
31.505	10.0	41979	COUNTDOWN_START	n/a	n/a	n/a	-999	-999	[0, 0, 0]	n/a	FR1	3	R1111M
41.933	3.957	47193	COUNTDOWN_END	n/a	n/a	n/a	-999	-999	[0, 0, 0]	n/a	FR1	3	R1111M
45.89	1.6	49171	PRACTICE_WORD	n/a	n/a	FLOOD	1	-1	[0, 0, 0]	n/a	FR1	3	R1111M
48.458	1.6	50455	PRACTICE_WORD	n/a	n/a	TONGUE	2	-1	[0, 0, 0]	n/a	FR1	3	R1111M
50.991	1.6	51722	PRACTICE_WORD	n/a	n/a	RING	3	-1	[0, 0, 0]	n/a	FR1	3	R1111M
53.509	1.6	52981	PRACTICE_WORD	n/a	n/a	WAGON	4	-1	[0, 0, 0]	n/a	FR1	3	R1111M
55.975	1.6	54213	PRACTICE_WORD	n/a	n/a	ATTIC	5	-1	[0, 0, 0]	n/a	FR1	3	R1111M
58.577	1.6	55514	PRACTICE_WORD	n/a	n/a	CHEST	6	-1	[0, 0, 0]	n/a	FR1	3	R1111M
61.127	1.6	56789	PRACTICE_WORD	n/a	n/a	IRON	7	-1	[0, 0, 0]	n/a	FR1	3	R1111M
63.66	1.6	58056	PRACTICE_WORD	n/a	n/a	WATCH	8	-1	[0, 0, 0]	n/a	FR1	3	R1111M
66.195	1.6	59323	PRACTICE_WORD	n/a	n/a	COTTON	9	-1	[0, 0, 0]	n/a	FR1	3	R1111M
68.628	1.6	60540	PRACTICE_WORD	n/a	n/a	RHINO	10	-1	[0, 0, 0]	n/a	FR1	3	R1111M
71.146	1.6	61799	PRACTICE_WORD	n/a	n/a	BEAM	11	-1	[0, 0, 0]	n/a	FR1	3	R1111M
73.762	1.6	63106	PRACTICE_WORD	n/a	n/a	CAMEL	12	-1	[0, 0, 0]	n/a	FR1	3	R1111M
75.38	0.001	63915	PRACTICE_DISTRACT_START	n/a	n/a	n/a	-999	-1	[0, 0, 0]	n/a	FR1	3	R1111M
75.381	0.016	63916	START	n/a	n/a	n/a	-999	-1	[-999, -999, -999]	n/a	FR1	3	R1111M
75.397	5.968	63924	PROB	5.942	n/a	n/a	-999	-1	[5, 2, 5]	12.0	FR1	3	R1111M
81.365	3.05	66908	PROB	3.03	n/a	n/a	-999	-1	[3, 9, 1]	11.0	FR1	3	R1111M
84.415	4.2	68433	PROB	4.171	n/a	n/a	-999	-1	[9, 4, 4]	19.0	FR1	3	R1111M
88.615	2.935	70533	PROB	2.9	n/a	n/a	-999	-1	[7, 4, 2]	13.0	FR1	3	R1111M
91.55	9.084	72000	PROB	9.084	n/a	n/a	-999	-1	[2, 1, 4]	7.0	FR1	3	R1111M
100.634	0.017	76542	STOP	n/a	n/a	n/a	-999	-1	[-999, -999, -999]	n/a	FR1	3	R1111M
100.651	0.586	76550	PRACTICE_DISTRACT_END	n/a	n/a	n/a	-999	-1	[0, 0, 0]	n/a	FR1	3	R1111M
101.237	30.514	76843	PRACTICE_REC_START	n/a	n/a	n/a	-999	-1	[0, 0, 0]	n/a	FR1	3	R1111M
131.751	3.607	92099	PRACTICE_REC_END	n/a	n/a	n/a	-999	-1	[0, 0, 0]	n/a	FR1	3	R1111M
135.358	0.0	93903	TRIAL	n/a	n/a	n/a	-999	1	[0, 0, 0]	n/a	FR1	3	R1111M
135.358	10.0	93903	COUNTDOWN_START	n/a	n/a	n/a	-999	1	[0, 0, 0]	n/a	FR1	3	R1111M
145.786	0.007	99116	COUNTDOWN_END	n/a	n/a	n/a	-999	1	[0, 0, 0]	n/a	FR1	3	R1111M
145.793	1.6	99120	ORIENT	n/a	n/a	n/a	-999	1	[0, 0, 0]	n/a	FR1	3	R1111M
148.261	1.6	100354	WORD	n/a	wordpools/wordpool_EN.txt	HAND	1	1	[0, 0, 0]	n/a	FR1	3	R1111M
150.744	1.6	101595	WORD	n/a	wordpools/wordpool_EN.txt	ROOF	2	1	[0, 0, 0]	n/a	FR1	3	R1111M
153.345	1.6	102896	WORD	n/a	wordpools/wordpool_EN.txt	GLASS	3	1	[0, 0, 0]	n/a	FR1	3	R1111M
155.945	1.6	104196	WORD	n/a	wordpools/wordpool_EN.txt	PIPE	4	1	[0, 0, 0]	n/a	FR1	3	R1111M
158.546	1.6	105496	WORD	n/a	wordpools/wordpool_EN.txt	BROOM	5	1	[0, 0, 0]	n/a	FR1	3	R1111M
161.08	1.6	106763	WORD	n/a	wordpools/wordpool_EN.txt	ROPE	6	1	[0, 0, 0]	n/a	FR1	3	R1111M
163.53	1.6	107988	WORD	n/a	wordpools/wordpool_EN.txt	ELF	7	1	[0, 0, 0]	n/a	FR1	3	R1111M
165.98	1.6	109213	WORD	n/a	wordpools/wordpool_EN.txt	MAT	8	1	[0, 0, 0]	n/a	FR1	3	R1111M
168.531	1.6	110488	WORD	n/a	wordpools/wordpool_EN.txt	TRAY	9	1	[0, 0, 0]	n/a	FR1	3	R1111M
171.082	1.6	111764	WORD	n/a	wordpools/wordpool_EN.txt	ROOM	10	1	[0, 0, 0]	n/a	FR1	3	R1111M
173.681	1.6	113063	WORD	n/a	wordpools/wordpool_EN.txt	STORM	11	1	[0, 0, 0]	n/a	FR1	3	R1111M
176.233	1.6	114339	WORD	n/a	wordpools/wordpool_EN.txt	WALL	12	1	[0, 0, 0]	n/a	FR1	3	R1111M
177.849	0.001	115147	DISTRACT_START	n/a	n/a	n/a	-999	1	[0, 0, 0]	n/a	FR1	3	R1111M
177.85	0.016	115148	START	n/a	n/a	n/a	-999	1	[-999, -999, -999]	n/a	FR1	3	R1111M
177.866	5.568	115156	PROB	5.537	n/a	n/a	-999	1	[8, 5, 5]	8.0	FR1	3	R1111M
183.434	4.383	117939	PROB	4.352	n/a	n/a	-999	1	[6, 7, 4]	17.0	FR1	3	R1111M
187.817	4.018	120131	PROB	3.985	n/a	n/a	-999	1	[8, 1, 6]	15.0	FR1	3	R1111M
191.835	7.496	122140	PROB	7.496	n/a	n/a	-999	1	[9, 8, 6]	23.0	FR1	3	R1111M
199.331	0.006	125887	STOP	n/a	n/a	n/a	-999	1	[-999, -999, -999]	n/a	FR1	3	R1111M
199.337	1.085	125890	DISTRACT_END	n/a	n/a	n/a	-999	1	[0, 0, 0]	n/a	FR1	3	R1111M
200.422	1.765	126433	REC_START	n/a	n/a	n/a	-999	1	[0, 0, 0]	n/a	FR1	3	R1111M
202.187	0.57	127315	REC_WORD	1.765	n/a	ROOF	-999	1	[0, 0, 0]	n/a	FR1	3	R1111M
202.757	0.781	127600	REC_WORD	2.335	n/a	HAND	-999	1	[0, 0, 0]	n/a	FR1	3	R1111M
203.538	0.813	127991	REC_WORD	3.116	n/a	PIPE	-999	1	[0, 0, 0]	n/a	FR1	3	R1111M
204.351	1.861	128397	REC_WORD	3.929	n/a	GLASS	-999	1	[0, 0, 0]	n/a	FR1	3	R1111M
206.212	1.098	129328	REC_WORD	5.79	n/a	ELF	-999	1	[0, 0, 0]	n/a	FR1	3	R1111M
207.31	1.379	129877	REC_WORD	6.888	n/a	MAT	-999	1	[0, 0, 0]	n/a	FR1	3	R1111M
208.689	2.64	130566	REC_WORD	8.267	n/a	TRAY	-999	1	[0, 0, 0]	n/a	FR1	3	R1111M
211.329	1.656	131886	REC_WORD	10.907	n/a	ROOM	-999	1	[0, 0, 0]	n/a	FR1	3	R1111M
212.985	1.892	132714	REC_WORD	12.563	n/a	ROPE	-999	1	[0, 0, 0]	n/a	FR1	3	R1111M
214.877	1.678	133660	REC_WORD	14.455	n/a	BROOM	-999	1	[0, 0, 0]	n/a	FR1	3	R1111M
216.555	13.878	134499	REC_WORD	16.133	n/a	STORM	-999	1	[0, 0, 0]	n/a	FR1	3	R1111M
230.433	1.144	141438	REC_END	n/a	n/a	n/a	-999	1	[0, 0, 0]	n/a	FR1	3	R1111M
231.577	10.0	142009	COUNTDOWN_START	n/a	n/a	n/a	-999	2	[0, 0, 0]	n/a	FR1	3	R1111M
231.577	10.428	142009	TRIAL	n/a	n/a	n/a	-999	2	[0, 0, 0]	n/a	FR1	3	R1111M
242.005	0.006	147223	COUNTDOWN_END	n/a	n/a	n/a	-999	2	[0, 0, 0]	n/a	FR1	3	R1111M
242.011	1.6	147226	ORIENT	n/a	n/a	n/a	-999	2	[0, 0, 0]	n/a	FR1	3	R1111M
244.496	1.6	148469	WORD	n/a	wordpools/wordpool_EN.txt	BEAN	1	2	[0, 0, 0]	n/a	FR1	3	R1111M
246.979	1.6	149710	WORD	n/a	wordpools/wordpool_EN.txt	CRANE	2	2	[0, 0, 0]	n/a	FR1	3	R1111M
249.364	1.6	150902	WORD	n/a	wordpools/wordpool_EN.txt	GOAT	3	2	[0, 0, 0]	n/a	FR1	3	R1111M
251.796	1.6	152118	WORD	n/a	wordpools/wordpool_EN.txt	TOY	4	2	[0, 0, 0]	n/a	FR1	3	R1111M
254.281	1.6	153361	WORD	n/a	wordpools/wordpool_EN.txt	TOAD	5	2	[0, 0, 0]	n/a	FR1	3	R1111M
256.831	1.6	154636	WORD	n/a	wordpools/wordpool_EN.txt	TOAST	6	2	[0, 0, 0]	n/a	FR1	3	R1111M
259.332	1.6	155886	WORD	n/a	wordpools/wordpool_EN.txt	JAR	7	2	[0, 0, 0]	n/a	FR1	3	R1111M
261.898	1.6	157169	WORD	n/a	wordpools/wordpool_EN.txt	BRIDGE	8	2	[0, 0, 0]	n/a	FR1	3	R1111M
264.35	1.6	158395	WORD	n/a	wordpools/wordpool_EN.txt	BIRD	9	2	[0, 0, 0]	n/a	FR1	3	R1111M
266.832	1.6	159636	WORD	n/a	wordpools/wordpool_EN.txt	DUCK	10	2	[0, 0, 0]	n/a	FR1	3	R1111M
269.267	1.6	160853	WORD	n/a	wordpools/wordpool_EN.txt	COW	11	2	[0, 0, 0]	n/a	FR1	3	R1111M
271.734	1.6	162087	WORD	n/a	wordpools/wordpool_EN.txt	WORM	12	2	[0, 0, 0]	n/a	FR1	3	R1111M
273.352	0.0	162896	DISTRACT_START	n/a	n/a	n/a	-999	2	[0, 0, 0]	n/a	FR1	3	R1111M
273.352	0.016	162896	START	n/a	n/a	n/a	-999	2	[-999, -999, -999]	n/a	FR1	3	R1111M
273.368	5.567	162904	PROB	5.538	n/a	n/a	-999	2	[6, 2, 3]	11.0	FR1	3	R1111M
278.935	4.252	165687	PROB	4.22	n/a	n/a	-999	2	[3, 2, 6]	11.0	FR1	3	R1111M
283.187	2.749	167813	PROB	2.719	n/a	n/a	-999	2	[1, 1, 5]	7.0	FR1	3	R1111M
285.936	8.65	169187	PROB	8.65	n/a	n/a	-999	2	[3, 4, 4]	11.0	FR1	3	R1111M
294.586	0.019	173512	STOP	n/a	n/a	n/a	-999	2	[-999, -999, -999]	n/a	FR1	3	R1111M
294.605	1.1	173522	DISTRACT_END	n/a	n/a	n/a	-999	2	[0, 0, 0]	n/a	FR1	3	R1111M
295.705	1.804	174072	REC_START	n/a	n/a	n/a	-999	2	[0, 0, 0]	n/a	FR1	3	R1111M
297.509	3.599	174974	REC_WORD	1.804	n/a	BRIDGE	-999	2	[0, 0, 0]	n/a	FR1	3	R1111M
301.108	1.155	176773	REC_WORD	5.403	n/a	CRANE	-999	2	[0, 0, 0]	n/a	FR1	3	R1111M
302.263	1.351	177350	REC_WORD	6.558	n/a	BEAN	-999	2	[0, 0, 0]	n/a	FR1	3	R1111M
303.614	3.337	178026	REC_WORD	7.909	n/a	GLASS	-999	2	[0, 0, 0]	n/a	FR1	3	R1111M
306.951	2.212	179694	REC_WORD	11.246	n/a	JAR	-999	2	[0, 0, 0]	n/a	FR1	3	R1111M
309.163	0.754	180800	REC_WORD	13.458	n/a	TOAD	-999	2	[0, 0, 0]	n/a	FR1	3	R1111M
309.917	7.509	181177	REC_WORD	14.212	n/a	TOAST	-999	2	[0, 0, 0]	n/a	FR1	3	R1111M
317.426	0.862	184932	REC_WORD	21.721	n/a	GOAT	-999	2	[0, 0, 0]	n/a	FR1	3	R1111M
318.288	2.091	185363	REC_WORD	22.583	n/a	TOY	-999	2	[0, 0, 0]	n/a	FR1	3	R1111M
320.379	5.34	186408	REC_WORD	24.674	n/a	COW	-999	2	[0, 0, 0]	n/a	FR1	3	R1111M
325.719	2.209	189078	REC_END	n/a	n/a	n/a	-999	2	[0, 0, 0]	n/a	FR1	3	R1111M
327.928	0.0	190182	TRIAL	n/a	n/a	n/a	-999	3	[0, 0, 0]	n/a	FR1	3	R1111M
327.928	10.0	190182	COUNTDOWN_START	n/a	n/a	n/a	-999	3	[0, 0, 0]	n/a	FR1	3	R1111M
338.356	0.008	195396	COUNTDOWN_END	n/a	n/a	n/a	-999	3	[0, 0, 0]	n/a	FR1	3	R1111M
338.364	1.6	195400	ORIENT	n/a	n/a	n/a	-999	3	[0, 0, 0]	n/a	FR1	3	R1111M
340.947	1.6	196691	WORD	n/a	wordpools/wordpool_EN.txt	BOWL	1	3	[0, 0, 0]	n/a	FR1	3	R1111M
343.482	1.6	197959	WORD	n/a	wordpools/wordpool_EN.txt	STEAK	2	3	[0, 0, 0]	n/a	FR1	3	R1111M
345.997	1.6	199216	WORD	n/a	wordpools/wordpool_EN.txt	CLOWN	3	3	[0, 0, 0]	n/a	FR1	3	R1111M
348.499	1.6	200467	WORD	n/a	wordpools/wordpool_EN.txt	EGG	4	3	[0, 0, 0]	n/a	FR1	3	R1111M
351.048	1.6	201742	WORD	n/a	wordpools/wordpool_EN.txt	BEAR	5	3	[0, 0, 0]	n/a	FR1	3	R1111M
353.517	1.6	202976	WORD	n/a	wordpools/wordpool_EN.txt	SLEEVE	6	3	[0, 0, 0]	n/a	FR1	3	R1111M
356.016	1.6	204225	WORD	n/a	wordpools/wordpool_EN.txt	CAKE	7	3	[0, 0, 0]	n/a	FR1	3	R1111M
358.584	1.6	205509	WORD	n/a	wordpools/wordpool_EN.txt	LEG	8	3	[0, 0, 0]	n/a	FR1	3	R1111M
360.967	1.6	206701	WORD	n/a	wordpools/wordpool_EN.txt	DOLL	9	3	[0, 0, 0]	n/a	FR1	3	R1111M
363.352	1.6	207893	WORD	n/a	wordpools/wordpool_EN.txt	ZOO	10	3	[0, 0, 0]	n/a	FR1	3	R1111M
365.785	1.6	209110	WORD	n/a	wordpools/wordpool_EN.txt	WHALE	11	3	[0, 0, 0]	n/a	FR1	3	R1111M
368.303	1.6	210369	WORD	n/a	wordpools/wordpool_EN.txt	PIT	12	3	[0, 0, 0]	n/a	FR1	3	R1111M
369.919	0.001	211177	DISTRACT_START	n/a	n/a	n/a	-999	3	[0, 0, 0]	n/a	FR1	3	R1111M
369.92	0.016	211177	START	n/a	n/a	n/a	-999	3	[-999, -999, -999]	n/a	FR1	3	R1111M
369.936	3.767	211185	PROB	3.738	n/a	n/a	-999	3	[3, 3, 5]	11.0	FR1	3	R1111M
373.703	5.836	213068	PROB	5.804	n/a	n/a	-999	3	[9, 1, 7]	19.0	FR1	3	R1111M
379.539	5.066	215986	PROB	5.032	n/a	n/a	-999	3	[3, 6, 1]	10.0	FR1	3	R1111M
384.605	8.357	218519	PROB	8.357	n/a	n/a	-999	3	[5, 9, 7]	22.0	FR1	3	R1111M
392.962	0.011	222697	STOP	n/a	n/a	n/a	-999	3	[-999, -999, -999]	n/a	FR1	3	R1111M
392.973	1.052	222703	DISTRACT_END	n/a	n/a	n/a	-999	3	[0, 0, 0]	n/a	FR1	3	R1111M
394.025	5.877	223229	REC_START	n/a	n/a	n/a	-999	3	[0, 0, 0]	n/a	FR1	3	R1111M
399.902	0.751	226167	REC_WORD	5.877	n/a	BEAR	-999	3	[0, 0, 0]	n/a	FR1	3	R1111M
400.653	2.262	226543	REC_WORD	6.628	n/a	SLEEVE	-999	3	[0, 0, 0]	n/a	FR1	3	R1111M
402.915	0.655	227674	REC_WORD	8.89	n/a	WHALE	-999	3	[0, 0, 0]	n/a	FR1	3	R1111M
403.57	1.09	228001	REC_WORD	9.545	n/a	PIT	-999	3	[0, 0, 0]	n/a	FR1	3	R1111M
404.66	19.375	228546	REC_WORD	10.635	n/a	ZOO	-999	3	[0, 0, 0]	n/a	FR1	3	R1111M
424.035	38.935	238233	REC_END	n/a	n/a	n/a	-999	3	[0, 0, 0]	n/a	FR1	3	R1111M
462.97	10.0	257699	COUNTDOWN_START	n/a	n/a	n/a	-999	4	[0, 0, 0]	n/a	FR1	3	R1111M
462.971	10.427	257700	TRIAL	n/a	n/a	n/a	-999	4	[0, 0, 0]	n/a	FR1	3	R1111M
473.398	0.009	262913	COUNTDOWN_END	n/a	n/a	n/a	-999	4	[0, 0, 0]	n/a	FR1	3	R1111M
473.407	1.6	262918	ORIENT	n/a	n/a	n/a	-999	4	[0, 0, 0]	n/a	FR1	3	R1111M
475.873	1.6	264151	WORD	n/a	wordpools/wordpool_EN.txt	DRESS	1	4	[0, 0, 0]	n/a	FR1	3	R1111M
478.408	1.6	265418	WORD	n/a	wordpools/wordpool_EN.txt	TOOTH	2	4	[0, 0, 0]	n/a	FR1	3	R1111M
480.924	1.6	266676	WORD	n/a	wordpools/wordpool_EN.txt	HOLE	3	4	[0, 0, 0]	n/a	FR1	3	R1111M
483.375	1.6	267901	WORD	n/a	wordpools/wordpool_EN.txt	PASTE	4	4	[0, 0, 0]	n/a	FR1	3	R1111M
485.758	1.6	269093	WORD	n/a	wordpools/wordpool_EN.txt	DESK	5	4	[0, 0, 0]	n/a	FR1	3	R1111M
488.31	1.6	270369	WORD	n/a	wordpools/wordpool_EN.txt	PEAR	6	4	[0, 0, 0]	n/a	FR1	3	R1111M
490.692	1.6	271560	WORD	n/a	wordpools/wordpool_EN.txt	SMILE	7	4	[0, 0, 0]	n/a	FR1	3	R1111M
493.094	1.6	272761	WORD	n/a	wordpools/wordpool_EN.txt	BEAK	8	4	[0, 0, 0]	n/a	FR1	3	R1111M
495.693	1.6	274060	WORD	n/a	wordpools/wordpool_EN.txt	SHOE	9	4	[0, 0, 0]	n/a	FR1	3	R1111M
498.261	1.6	275344	WORD	n/a	wordpools/wordpool_EN.txt	PEN	10	4	[0, 0, 0]	n/a	FR1	3	R1111M
500.744	1.6	276585	WORD	n/a	wordpools/wordpool_EN.txt	PALM	11	4	[0, 0, 0]	n/a	FR1	3	R1111M
503.146	1.6	277786	WORD	n/a	wordpools/wordpool_EN.txt	FORK	12	4	[0, 0, 0]	n/a	FR1	3	R1111M
504.762	0.001	278594	DISTRACT_START	n/a	n/a	n/a	-999	4	[0, 0, 0]	n/a	FR1	3	R1111M
504.763	0.015	278595	START	n/a	n/a	n/a	-999	4	[-999, -999, -999]	n/a	FR1	3	R1111M
504.778	3.184	278602	PROB	3.16	n/a	n/a	-999	4	[5, 5, 5]	15.0	FR1	3	R1111M
507.962	8.153	280194	PROB	8.121	n/a	n/a	-999	4	[6, 9, 7]	22.0	FR1	3	R1111M
516.115	8.285	284270	PROB	8.264	n/a	n/a	-999	4	[3, 9, 7]	19.0	FR1	3	R1111M
524.4	3.338	288413	PROB	3.338	n/a	n/a	-999	4	[7, 1, 2]	10.0	FR1	3	R1111M
527.738	0.011	290082	STOP	n/a	n/a	n/a	-999	4	[-999, -999, -999]	n/a	FR1	3	R1111M
527.749	1.218	290087	DISTRACT_END	n/a	n/a	n/a	-999	4	[0, 0, 0]	n/a	FR1	3	R1111M
528.967	3.622	290696	REC_START	n/a	n/a	n/a	-999	4	[0, 0, 0]	n/a	FR1	3	R1111M
532.589	0.402	292507	REC_WORD	3.622	n/a	TOOTH	-999	4	[0, 0, 0]	n/a	FR1	3	R1111M
532.991	1.069	292708	REC_WORD	4.024	n/a	PASTE	-999	4	[0, 0, 0]	n/a	FR1	3	R1111M
534.06	2.725	293242	REC_WORD	5.093	n/a	HOLE	-999	4	[0, 0, 0]	n/a	FR1	3	R1111M
536.785	1.45	294605	REC_WORD	7.818	n/a	DESK	-999	4	[0, 0, 0]	n/a	FR1	3	R1111M
538.235	1.25	295330	REC_WORD	9.268	n/a	PEAR	-999	4	[0, 0, 0]	n/a	FR1	3	R1111M
539.485	2.562	295955	REC_WORD	10.518	n/a	BEAK	-999	4	[0, 0, 0]	n/a	FR1	3	R1111M
542.047	2.295	297236	REC_WORD	13.08	n/a	SHOE	-999	4	[0, 0, 0]	n/a	FR1	3	R1111M
544.342	14.634	298383	REC_WORD	15.375	n/a	DRESS	-999	4	[0, 0, 0]	n/a	FR1	3	R1111M
558.976	1.314	305700	REC_END	n/a	n/a	n/a	-999	4	[0, 0, 0]	n/a	FR1	3	R1111M
560.29	0.0	306357	TRIAL	n/a	n/a	n/a	-999	5	[0, 0, 0]	n/a	FR1	3	R1111M
560.29	10.0	306357	COUNTDOWN_START	n/a	n/a	n/a	-999	5	[0, 0, 0]	n/a	FR1	3	R1111M
570.718	0.006	311570	COUNTDOWN_END	n/a	n/a	n/a	-999	5	[0, 0, 0]	n/a	FR1	3	R1111M
570.724	1.6	311573	ORIENT	n/a	n/a	n/a	-999	5	[0, 0, 0]	n/a	FR1	3	R1111M
573.276	1.6	312849	WORD	n/a	wordpools/wordpool_EN.txt	BAND	1	5	[0, 0, 0]	n/a	FR1	3	R1111M
575.809	1.6	314116	WORD	n/a	wordpools/wordpool_EN.txt	TRAIN	2	5	[0, 0, 0]	n/a	FR1	3	R1111M
578.277	1.6	315350	WORD	n/a	wordpools/wordpool_EN.txt	VAN	3	5	[0, 0, 0]	n/a	FR1	3	R1111M
580.81	1.6	316616	WORD	n/a	wordpools/wordpool_EN.txt	FLUTE	4	5	[0, 0, 0]	n/a	FR1	3	R1111M
583.428	1.6	317925	WORD	n/a	wordpools/wordpool_EN.txt	HAT	5	5	[0, 0, 0]	n/a	FR1	3	R1111M
585.844	1.6	319133	WORD	n/a	wordpools/wordpool_EN.txt	DRUM	6	5	[0, 0, 0]	n/a	FR1	3	R1111M
588.429	1.6	320425	WORD	n/a	wordpools/wordpool_EN.txt	CART	7	5	[0, 0, 0]	n/a	FR1	3	R1111M
590.895	1.6	321658	WORD	n/a	wordpools/wordpool_EN.txt	STICK	8	5	[0, 0, 0]	n/a	FR1	3	R1111M
593.33	1.6	322876	WORD	n/a	wordpools/wordpool_EN.txt	SOCK	9	5	[0, 0, 0]	n/a	FR1	3	R1111M
595.929	1.6	324175	WORD	n/a	wordpools/wordpool_EN.txt	DIME	10	5	[0, 0, 0]	n/a	FR1	3	R1111M
598.447	1.6	325434	WORD	n/a	wordpools/wordpool_EN.txt	FACE	11	5	[0, 0, 0]	n/a	FR1	3	R1111M
600.997	1.6	326709	WORD	n/a	wordpools/wordpool_EN.txt	SKI	12	5	[0, 0, 0]	n/a	FR1	3	R1111M
602.614	0.001	327517	DISTRACT_START	n/a	n/a	n/a	-999	5	[0, 0, 0]	n/a	FR1	3	R1111M
602.615	0.016	327518	START	n/a	n/a	n/a	-999	5	[-999, -999, -999]	n/a	FR1	3	R1111M
602.631	6.702	327526	PROB	6.668	n/a	n/a	-999	5	[5, 7, 8]	20.0	FR1	3	R1111M
609.333	4.067	330877	PROB	4.038	n/a	n/a	-999	5	[4, 3, 8]	15.0	FR1	3	R1111M
613.4	4.334	332910	PROB	4.306	n/a	n/a	-999	5	[8, 4, 4]	16.0	FR1	3	R1111M
617.734	5.148	335077	PROB	5.148	n/a	n/a	-999	5	[4, 5, 2]	11.0	FR1	3	R1111M
622.882	0.019	337651	STOP	n/a	n/a	n/a	-999	5	[-999, -999, -999]	n/a	FR1	3	R1111M
622.901	1.151	337660	DISTRACT_END	n/a	n/a	n/a	-999	5	[0, 0, 0]	n/a	FR1	3	R1111M
624.052	30.0	338236	REC_START	n/a	n/a	n/a	-999	5	[0, 0, 0]	n/a	FR1	3	R1111M
654.052	0.011	353235	REC_WORD_VV	30.0	n/a	<>	-999	5	[0, 0, 0]	n/a	FR1	3	R1111M
654.063	40.303	353240	REC_END	n/a	n/a	n/a	-999	5	[0, 0, 0]	n/a	FR1	3	R1111M
694.366	10.0	373391	COUNTDOWN_START	n/a	n/a	n/a	-999	6	[0, 0, 0]	n/a	FR1	3	R1111M
694.366	10.428	373391	TRIAL	n/a	n/a	n/a	-999	6	[0, 0, 0]	n/a	FR1	3	R1111M
704.794	0.006	378605	COUNTDOWN_END	n/a	n/a	n/a	-999	6	[0, 0, 0]	n/a	FR1	3	R1111M
704.8	1.6	378608	ORIENT	n/a	n/a	n/a	-999	6	[0, 0, 0]	n/a	FR1	3	R1111M
707.218	1.6	379816	WORD	n/a	wordpools/wordpool_EN.txt	SEED	1	6	[0, 0, 0]	n/a	FR1	3	R1111M
709.818	1.6	381116	WORD	n/a	wordpools/wordpool_EN.txt	PLANT	2	6	[0, 0, 0]	n/a	FR1	3	R1111M
712.353	1.6	382384	WORD	n/a	wordpools/wordpool_EN.txt	STONE	3	6	[0, 0, 0]	n/a	FR1	3	R1111M
714.886	1.6	383650	WORD	n/a	wordpools/wordpool_EN.txt	SLIME	4	6	[0, 0, 0]	n/a	FR1	3	R1111M
717.42	1.6	384917	WORD	n/a	wordpools/wordpool_EN.txt	CLOCK	5	6	[0, 0, 0]	n/a	FR1	3	R1111M
720.003	1.6	386209	WORD	n/a	wordpools/wordpool_EN.txt	STEM	6	6	[0, 0, 0]	n/a	FR1	3	R1111M
722.405	1.6	387410	WORD	n/a	wordpools/wordpool_EN.txt	HEART	7	6	[0, 0, 0]	n/a	FR1	3	R1111M
724.921	1.6	388667	WORD	n/a	wordpools/wordpool_EN.txt	CLAY	8	6	[0, 0, 0]	n/a	FR1	3	R1111M
727.356	1.6	389885	WORD	n/a	wordpools/wordpool_EN.txt	MOUSE	9	6	[0, 0, 0]	n/a	FR1	3	R1111M
729.855	1.6	391134	WORD	n/a	wordpools/wordpool_EN.txt	BOOK	10	6	[0, 0, 0]	n/a	FR1	3	R1111M
732.423	1.6	392418	WORD	n/a	wordpools/wordpool_EN.txt	PEARL	11	6	[0, 0, 0]	n/a	FR1	3	R1111M
734.839	1.6	393626	WORD	n/a	wordpools/wordpool_EN.txt	JUDGE	12	6	[0, 0, 0]	n/a	FR1	3	R1111M
736.44	0.001	394427	DISTRACT_START	n/a	n/a	n/a	-999	6	[0, 0, 0]	n/a	FR1	3	R1111M
736.441	0.016	394427	START	n/a	n/a	n/a	-999	6	[-999, -999, -999]	n/a	FR1	3	R1111M
736.457	6.434	394435	PROB	6.401	n/a	n/a	-999	6	[6, 6, 5]	17.0	FR1	3	R1111M
742.891	4.901	397652	PROB	4.879	n/a	n/a	-999	6	[2, 9, 4]	15.0	FR1	3	R1111M
747.792	5.251	400102	PROB	5.226	n/a	n/a	-999	6	[8, 3, 6]	17.0	FR1	3	R1111M
753.043	3.368	402728	PROB	3.336	n/a	n/a	-999	6	[1, 5, 9]	15.0	FR1	3	R1111M
756.411	2.567	404412	PROB	2.567	n/a	n/a	-999	6	[2, 4, 5]	11.0	FR1	3	R1111M
758.978	0.016	405695	STOP	n/a	n/a	n/a	-999	6	[-999, -999, -999]	n/a	FR1	3	R1111M
758.994	1.135	405703	DISTRACT_END	n/a	n/a	n/a	-999	6	[0, 0, 0]	n/a	FR1	3	R1111M
760.129	3.094	406270	REC_START	n/a	n/a	n/a	-999	6	[0, 0, 0]	n/a	FR1	3	R1111M
763.223	0.854	407817	REC_WORD	3.094	n/a	STONE	-999	6	[0, 0, 0]	n/a	FR1	3	R1111M
764.077	1.388	408244	REC_WORD	3.948	n/a	CLAY	-999	6	[0, 0, 0]	n/a	FR1	3	R1111M
765.465	1.67	408938	REC_WORD	5.336	n/a	PLANT	-999	6	[0, 0, 0]	n/a	FR1	3	R1111M
767.135	2.876	409773	REC_WORD	7.006	n/a	SEED	-999	6	[0, 0, 0]	n/a	FR1	3	R1111M
770.011	0.948	411211	REC_WORD	9.882	n/a	CLOCK	-999	6	[0, 0, 0]	n/a	FR1	3	R1111M
770.959	2.768	411685	REC_WORD	10.83	n/a	STEM	-999	6	[0, 0, 0]	n/a	FR1	3	R1111M
773.727	2.916	413069	REC_WORD	13.598	n/a	SLIME	-999	6	[0, 0, 0]	n/a	FR1	3	R1111M
776.643	2.021	414527	REC_WORD	16.514	n/a	MOUSE	-999	6	[0, 0, 0]	n/a	FR1	3	R1111M
778.664	1.526	415537	REC_WORD	18.535	n/a	PEARL	-999	6	[0, 0, 0]	n/a	FR1	3	R1111M
780.19	1.048	416300	REC_WORD	20.061	n/a	BOOK	-999	6	[0, 0, 0]	n/a	FR1	3	R1111M
781.238	8.902	416824	REC_WORD	21.109	n/a	JUDGE	-999	6	[0, 0, 0]	n/a	FR1	3	R1111M
790.14	2.178	421275	REC_END	n/a	n/a	n/a	-999	6	[0, 0, 0]	n/a	FR1	3	R1111M
792.318	0.0	422364	TRIAL	n/a	n/a	n/a	-999	7	[0, 0, 0]	n/a	FR1	3	R1111M
792.318	10.0	422364	COUNTDOWN_START	n/a	n/a	n/a	-999	7	[0, 0, 0]	n/a	FR1	3	R1111M
802.746	0.006	427578	COUNTDOWN_END	n/a	n/a	n/a	-999	7	[0, 0, 0]	n/a	FR1	3	R1111M
802.752	1.6	427581	ORIENT	n/a	n/a	n/a	-999	7	[0, 0, 0]	n/a	FR1	3	R1111M
805.204	1.6	428807	WORD	n/a	wordpools/wordpool_EN.txt	TAIL	1	7	[0, 0, 0]	n/a	FR1	3	R1111M
807.653	1.6	430031	WORD	n/a	wordpools/wordpool_EN.txt	FOOD	2	7	[0, 0, 0]	n/a	FR1	3	R1111M
810.238	1.6	431324	WORD	n/a	wordpools/wordpool_EN.txt	DEER	3	7	[0, 0, 0]	n/a	FR1	3	R1111M
812.738	1.6	432573	WORD	n/a	wordpools/wordpool_EN.txt	ARK	4	7	[0, 0, 0]	n/a	FR1	3	R1111M
815.289	1.6	433849	WORD	n/a	wordpools/wordpool_EN.txt	TREE	5	7	[0, 0, 0]	n/a	FR1	3	R1111M
817.889	1.6	435149	WORD	n/a	wordpools/wordpool_EN.txt	CALF	6	7	[0, 0, 0]	n/a	FR1	3	R1111M
820.39	1.6	436399	WORD	n/a	wordpools/wordpool_EN.txt	WOOD	7	7	[0, 0, 0]	n/a	FR1	3	R1111M
822.773	1.6	437591	WORD	n/a	wordpools/wordpool_EN.txt	TIE	8	7	[0, 0, 0]	n/a	FR1	3	R1111M
825.358	1.6	438883	WORD	n/a	wordpools/wordpool_EN.txt	RAKE	9	7	[0, 0, 0]	n/a	FR1	3	R1111M
827.807	1.6	440108	WORD	n/a	wordpools/wordpool_EN.txt	PEACH	10	7	[0, 0, 0]	n/a	FR1	3	R1111M
830.292	1.6	441350	WORD	n/a	wordpools/wordpool_EN.txt	FENCE	11	7	[0, 0, 0]	n/a	FR1	3	R1111M
832.708	1.6	442558	WORD	n/a	wordpools/wordpool_EN.txt	WEB	12	7	[0, 0, 0]	n/a	FR1	3	R1111M
834.309	0.001	443358	DISTRACT_START	n/a	n/a	n/a	-999	7	[0, 0, 0]	n/a	FR1	3	R1111M
834.31	0.016	443359	START	n/a	n/a	n/a	-999	7	[-999, -999, -999]	n/a	FR1	3	R1111M
834.326	11.769	443367	PROB	11.732	n/a	n/a	-999	7	[2, 4, 2]	8.0	FR1	3	R1111M
846.095	8.667	449251	PROB	8.667	n/a	n/a	-999	7	[8, 9, 2]	19.0	FR1	3	R1111M
854.762	0.017	453584	STOP	n/a	n/a	n/a	-999	7	[-999, -999, -999]	n/a	FR1	3	R1111M
854.779	1.101	453593	DISTRACT_END	n/a	n/a	n/a	-999	7	[0, 0, 0]	n/a	FR1	3	R1111M
855.88	2.954	454143	REC_START	n/a	n/a	n/a	-999	7	[0, 0, 0]	n/a	FR1	3	R1111M
858.834	0.776	455620	REC_WORD	2.954	n/a	DEER	-999	7	[0, 0, 0]	n/a	FR1	3	R1111M
859.61	1.122	456008	REC_WORD	3.73	n/a	CALF	-999	7	[0, 0, 0]	n/a	FR1	3	R1111M
860.732	2.6	456569	REC_WORD	4.852	n/a	TIE	-999	7	[0, 0, 0]	n/a	FR1	3	R1111M
863.332	1.211	457869	REC_WORD	7.452	n/a	FOOD	-999	7	[0, 0, 0]	n/a	FR1	3	R1111M
864.543	9.698	458474	REC_WORD	8.663	n/a	PEACH	-999	7	[0, 0, 0]	n/a	FR1	3	R1111M
874.241	2.947	463323	REC_WORD	18.361	n/a	ARK	-999	7	[0, 0, 0]	n/a	FR1	3	R1111M
877.188	0.8	464797	REC_WORD	21.308	n/a	TREE	-999	7	[0, 0, 0]	n/a	FR1	3	R1111M
877.988	5.359	465197	REC_WORD	22.108	n/a	WOOD	-999	7	[0, 0, 0]	n/a	FR1	3	R1111M
883.347	2.541	467876	REC_WORD	27.467	n/a	CALF	-999	7	[0, 0, 0]	n/a	FR1	3	R1111M
885.888	7.483	469146	REC_END	n/a	n/a	n/a	-999	7	[0, 0, 0]	n/a	FR1	3	R1111M
893.371	0.0	472888	TRIAL	n/a	n/a	n/a	-999	8	[0, 0, 0]	n/a	FR1	3	R1111M
893.371	10.0	472888	COUNTDOWN_START	n/a	n/a	n/a	-999	8	[0, 0, 0]	n/a	FR1	3	R1111M
903.799	0.006	478101	COUNTDOWN_END	n/a	n/a	n/a	-999	8	[0, 0, 0]	n/a	FR1	3	R1111M
903.805	1.6	478104	ORIENT	n/a	n/a	n/a	-999	8	[0, 0, 0]	n/a	FR1	3	R1111M
906.29	1.6	479347	WORD	n/a	wordpools/wordpool_EN.txt	MOTH	1	8	[0, 0, 0]	n/a	FR1	3	R1111M
908.773	1.6	480588	WORD	n/a	wordpools/wordpool_EN.txt	SHIELD	2	8	[0, 0, 0]	n/a	FR1	3	R1111M
911.308	1.6	481856	WORD	n/a	wordpools/wordpool_EN.txt	FUDGE	3	8	[0, 0, 0]	n/a	FR1	3	R1111M
913.824	1.6	483114	WORD	n/a	wordpools/wordpool_EN.txt	POND	4	8	[0, 0, 0]	n/a	FR1	3	R1111M
916.442	1.6	484423	WORD	n/a	wordpools/wordpool_EN.txt	SAIL	5	8	[0, 0, 0]	n/a	FR1	3	R1111M
918.975	1.6	485689	WORD	n/a	wordpools/wordpool_EN.txt	BEE	6	8	[0, 0, 0]	n/a	FR1	3	R1111M
921.576	1.6	486989	WORD	n/a	wordpools/wordpool_EN.txt	ROOT	7	8	[0, 0, 0]	n/a	FR1	3	R1111M
924.143	1.6	488273	WORD	n/a	wordpools/wordpool_EN.txt	BOAT	8	8	[0, 0, 0]	n/a	FR1	3	R1111M
926.743	1.6	489573	WORD	n/a	wordpools/wordpool_EN.txt	ANT	9	8	[0, 0, 0]	n/a	FR1	3	R1111M
929.195	1.6	490799	WORD	n/a	wordpools/wordpool_EN.txt	WAVE	10	8	[0, 0, 0]	n/a	FR1	3	R1111M
931.794	1.6	492098	WORD	n/a	wordpools/wordpool_EN.txt	SPONGE	11	8	[0, 0, 0]	n/a	FR1	3	R1111M
934.212	1.6	493307	WORD	n/a	wordpools/wordpool_EN.txt	BRANCH	12	8	[0, 0, 0]	n/a	FR1	3	R1111M
935.828	0.001	494115	DISTRACT_START	n/a	n/a	n/a	-999	8	[0, 0, 0]	n/a	FR1	3	R1111M
935.829	0.016	494115	START	n/a	n/a	n/a	-999	8	[-999, -999, -999]	n/a	FR1	3	R1111M
935.845	5.001	494123	PROB	4.965	n/a	n/a	-999	8	[2, 5, 4]	11.0	FR1	3	R1111M
940.846	7.619	496624	PROB	7.597	n/a	n/a	-999	8	[4, 2, 9]	15.0	FR1	3	R1111M
948.465	3.583	500433	PROB	3.561	n/a	n/a	-999	8	[7, 3, 3]	13.0	FR1	3	R1111M
952.048	3.584	502225	PROB	3.554	n/a	n/a	-999	8	[1, 4, 4]	9.0	FR1	3	R1111M
955.632	3.627	504016	PROB	3.627	n/a	n/a	-999	8	[1, 3, 6]	10.0	FR1	3	R1111M
959.259	0.008	505830	STOP	n/a	n/a	n/a	-999	8	[-999, -999, -999]	n/a	FR1	3	R1111M
959.267	1.167	505834	DISTRACT_END	n/a	n/a	n/a	-999	8	[0, 0, 0]	n/a	FR1	3	R1111M
960.434	3.214	506417	REC_START	n/a	n/a	n/a	-999	8	[0, 0, 0]	n/a	FR1	3	R1111M
963.648	0.826	508024	REC_WORD	3.214	n/a	FUDGE	-999	8	[0, 0, 0]	n/a	FR1	3	R1111M
964.474	1.316	508437	REC_WORD	4.04	n/a	POND	-999	8	[0, 0, 0]	n/a	FR1	3	R1111M
965.79	1.806	509095	REC_WORD	5.356	n/a	MOTH	-999	8	[0, 0, 0]	n/a	FR1	3	R1111M
967.596	2.24	509998	REC_WORD	7.162	n/a	SHIELD	-999	8	[0, 0, 0]	n/a	FR1	3	R1111M
969.836	1.317	511118	REC_WORD	9.402	n/a	BEE	-999	8	[0, 0, 0]	n/a	FR1	3	R1111M
971.153	2.089	511776	REC_WORD	10.719	n/a	TAIL	-999	8	[0, 0, 0]	n/a	FR1	3	R1111M
973.242	3.631	512821	REC_WORD	12.808	n/a	ROOT	-999	8	[0, 0, 0]	n/a	FR1	3	R1111M
976.873	2.451	514636	REC_WORD	16.439	n/a	SPONGE	-999	8	[0, 0, 0]	n/a	FR1	3	R1111M
979.324	1.197	515862	REC_WORD	18.89	n/a	BOAT	-999	8	[0, 0, 0]	n/a	FR1	3	R1111M
980.521	9.928	516460	REC_WORD	20.087	n/a	WAVE	-999	8	[0, 0, 0]	n/a	FR1	3	R1111M
990.449	7.725	521424	REC_END	n/a	n/a	n/a	-999	8	[0, 0, 0]	n/a	FR1	3	R1111M
998.174	10.0	525286	COUNTDOWN_START	n/a	n/a	n/a	-999	9	[0, 0, 0]	n/a	FR1	3	R1111M
998.175	10.427	525287	TRIAL	n/a	n/a	n/a	-999	9	[0, 0, 0]	n/a	FR1	3	R1111M
1008.602	0.007	530500	COUNTDOWN_END	n/a	n/a	n/a	-999	9	[0, 0, 0]	n/a	FR1	3	R1111M
1008.609	1.6	530503	ORIENT	n/a	n/a	n/a	-999	9	[0, 0, 0]	n/a	FR1	3	R1111M
1011.059	1.6	531728	WORD	n/a	wordpools/wordpool_EN.txt	RUG	1	9	[0, 0, 0]	n/a	FR1	3	R1111M
1013.511	1.6	532954	WORD	n/a	wordpools/wordpool_EN.txt	BATH	2	9	[0, 0, 0]	n/a	FR1	3	R1111M
1015.927	1.6	534162	WORD	n/a	wordpools/wordpool_EN.txt	THUMB	3	9	[0, 0, 0]	n/a	FR1	3	R1111M
1018.478	1.6	535438	WORD	n/a	wordpools/wordpool_EN.txt	LAWN	4	9	[0, 0, 0]	n/a	FR1	3	R1111M
1020.995	1.6	536696	WORD	n/a	wordpools/wordpool_EN.txt	MUD	5	9	[0, 0, 0]	n/a	FR1	3	R1111M
1023.563	1.6	537980	WORD	n/a	wordpools/wordpool_EN.txt	DOOR	6	9	[0, 0, 0]	n/a	FR1	3	R1111M
1026.045	1.6	539221	WORD	n/a	wordpools/wordpool_EN.txt	ROAD	7	9	[0, 0, 0]	n/a	FR1	3	R1111M
1028.629	1.6	540513	WORD	n/a	wordpools/wordpool_EN.txt	FOOT	8	9	[0, 0, 0]	n/a	FR1	3	R1111M
1031.231	1.6	541814	WORD	n/a	wordpools/wordpool_EN.txt	HORN	9	9	[0, 0, 0]	n/a	FR1	3	R1111M
1033.847	1.6	543122	WORD	n/a	wordpools/wordpool_EN.txt	SOAP	10	9	[0, 0, 0]	n/a	FR1	3	R1111M
1036.299	1.6	544348	WORD	n/a	wordpools/wordpool_EN.txt	CUBE	11	9	[0, 0, 0]	n/a	FR1	3	R1111M
1038.915	1.6	545656	WORD	n/a	wordpools/wordpool_EN.txt	SEAT	12	9	[0, 0, 0]	n/a	FR1	3	R1111M
1040.533	0.001	546464	DISTRACT_START	n/a	n/a	n/a	-999	9	[0, 0, 0]	n/a	FR1	3	R1111M
1040.534	0.015	546465	START	n/a	n/a	n/a	-999	9	[-999, -999, -999]	n/a	FR1	3	R1111M
1040.549	6.434	546472	PROB	6.405	n/a	n/a	-999	9	[5, 4, 8]	19.0	FR1	3	R1111M
1046.983	3.185	549689	PROB	3.156	n/a	n/a	-999	9	[5, 2, 3]	10.0	FR1	3	R1111M
1050.168	3.516	551282	PROB	3.482	n/a	n/a	-999	9	[9, 1, 2]	11.0	FR1	3	R1111M
1053.684	3.785	553040	PROB	3.759	n/a	n/a	-999	9	[2, 1, 3]	6.0	FR1	3	R1111M
1057.469	5.014	554932	PROB	5.014	n/a	n/a	-999	9	[8, 5, 4]	17.0	FR1	3	R1111M
1062.483	0.004	557439	STOP	n/a	n/a	n/a	-999	9	[-999, -999, -999]	n/a	FR1	3	R1111M
1062.487	1.1	557441	DISTRACT_END	n/a	n/a	n/a	-999	9	[0, 0, 0]	n/a	FR1	3	R1111M
1063.587	2.946	557991	REC_START	n/a	n/a	n/a	-999	9	[0, 0, 0]	n/a	FR1	3	R1111M
1066.533	2.835	559464	REC_WORD	2.946	n/a	SQUARE	-999	9	[0, 0, 0]	n/a	FR1	3	R1111M
1069.368	1.743	560881	REC_WORD	5.781	n/a	ROAD	-999	9	[0, 0, 0]	n/a	FR1	3	R1111M
1071.111	2.791	561753	REC_WORD	7.524	n/a	SEAT	-999	9	[0, 0, 0]	n/a	FR1	3	R1111M
1073.902	19.695	563148	REC_WORD	10.315	n/a	DOOR	-999	9	[0, 0, 0]	n/a	FR1	3	R1111M
1093.597	16.949	572995	REC_END	n/a	n/a	n/a	-999	9	[0, 0, 0]	n/a	FR1	3	R1111M
1110.546	10.0	581469	COUNTDOWN_START	n/a	n/a	n/a	-999	10	[0, 0, 0]	n/a	FR1	3	R1111M
1110.546	10.428	581469	TRIAL	n/a	n/a	n/a	-999	10	[0, 0, 0]	n/a	FR1	3	R1111M
1120.974	0.006	586683	COUNTDOWN_END	n/a	n/a	n/a	-999	10	[0, 0, 0]	n/a	FR1	3	R1111M
1120.98	1.6	586686	ORIENT	n/a	n/a	n/a	-999	10	[0, 0, 0]	n/a	FR1	3	R1111M
1123.432	1.6	587912	WORD	n/a	wordpools/wordpool_EN.txt	KEY	1	10	[0, 0, 0]	n/a	FR1	3	R1111M
1126.031	1.6	589211	WORD	n/a	wordpools/wordpool_EN.txt	SCHOOL	2	10	[0, 0, 0]	n/a	FR1	3	R1111M
1128.516	1.6	590453	WORD	n/a	wordpools/wordpool_EN.txt	PIE	3	10	[0, 0, 0]	n/a	FR1	3	R1111M
1130.916	1.6	591653	WORD	n/a	wordpools/wordpool_EN.txt	VASE	4	10	[0, 0, 0]	n/a	FR1	3	R1111M
1133.351	1.6	592871	WORD	n/a	wordpools/wordpool_EN.txt	STRAW	5	10	[0, 0, 0]	n/a	FR1	3	R1111M
1135.817	1.6	594104	WORD	n/a	wordpools/wordpool_EN.txt	CHIEF	6	10	[0, 0, 0]	n/a	FR1	3	R1111M
1138.418	1.6	595404	WORD	n/a	wordpools/wordpool_EN.txt	BOY	7	10	[0, 0, 0]	n/a	FR1	3	R1111M
1140.884	1.6	596637	WORD	n/a	wordpools/wordpool_EN.txt	BAT	8	10	[0, 0, 0]	n/a	FR1	3	R1111M
1143.286	1.6	597838	WORD	n/a	wordpools/wordpool_EN.txt	PHONE	9	10	[0, 0, 0]	n/a	FR1	3	R1111M
1145.769	1.6	599079	WORD	n/a	wordpools/wordpool_EN.txt	NOSE	10	10	[0, 0, 0]	n/a	FR1	3	R1111M
1148.337	1.6	600363	WORD	n/a	wordpools/wordpool_EN.txt	HOOF	11	10	[0, 0, 0]	n/a	FR1	3	R1111M
1150.853	1.6	601621	WORD	n/a	wordpools/wordpool_EN.txt	COIN	12	10	[0, 0, 0]	n/a	FR1	3	R1111M
1152.471	0.001	602430	DISTRACT_START	n/a	n/a	n/a	-999	10	[0, 0, 0]	n/a	FR1	3	R1111M
1152.472	0.015	602431	START	n/a	n/a	n/a	-999	10	[-999, -999, -999]	n/a	FR1	3	R1111M
1152.487	7.585	602438	PROB	7.555	n/a	n/a	-999	10	[7, 7, 8]	23.0	FR1	3	R1111M
1160.072	3.6	606231	PROB	3.578	n/a	n/a	-999	10	[7, 2, 1]	10.0	FR1	3	R1111M
1163.672	5.619	608030	PROB	5.595	n/a	n/a	-999	10	[2, 8, 3]	13.0	FR1	3	R1111M
1169.291	4.896	610840	PROB	4.896	n/a	n/a	-999	10	[2, 7, 9]	18.0	FR1	3	R1111M
1174.187	0.005	613288	STOP	n/a	n/a	n/a	-999	10	[-999, -999, -999]	n/a	FR1	3	R1111M
1174.192	1.034	613290	DISTRACT_END	n/a	n/a	n/a	-999	10	[0, 0, 0]	n/a	FR1	3	R1111M
1175.226	1.532	613807	REC_START	n/a	n/a	n/a	-999	10	[0, 0, 0]	n/a	FR1	3	R1111M
1176.758	0.836	614573	REC_WORD	1.532	n/a	SCHOOL	-999	10	[0, 0, 0]	n/a	FR1	3	R1111M
1177.594	0.693	614991	REC_WORD	2.368	n/a	KEY	-999	10	[0, 0, 0]	n/a	FR1	3	R1111M
1178.287	0.564	615338	REC_WORD	3.061	n/a	PIE	-999	10	[0, 0, 0]	n/a	FR1	3	R1111M
1178.851	10.701	615620	REC_WORD	3.625	n/a	VASE	-999	10	[0, 0, 0]	n/a	FR1	3	R1111M
1189.552	15.684	620970	REC_WORD	14.326	n/a	HOOF	-999	10	[0, 0, 0]	n/a	FR1	3	R1111M
1205.236	30.633	628811	REC_END	n/a	n/a	n/a	-999	10	[0, 0, 0]	n/a	FR1	3	R1111M
1235.869	0.0	644127	TRIAL	n/a	n/a	n/a	-999	11	[0, 0, 0]	n/a	FR1	3	R1111M
1235.869	10.0	644127	COUNTDOWN_START	n/a	n/a	n/a	-999	11	[0, 0, 0]	n/a	FR1	3	R1111M
1246.297	0.009	649341	COUNTDOWN_END	n/a	n/a	n/a	-999	11	[0, 0, 0]	n/a	FR1	3	R1111M
1246.306	1.6	649345	ORIENT	n/a	n/a	n/a	-999	11	[0, 0, 0]	n/a	FR1	3	R1111M
1248.905	1.6	650645	WORD	n/a	wordpools/wordpool_EN.txt	FAN	1	11	[0, 0, 0]	n/a	FR1	3	R1111M
1251.273	1.6	651829	WORD	n/a	wordpools/wordpool_EN.txt	SIGN	2	11	[0, 0, 0]	n/a	FR1	3	R1111M
1253.789	1.6	653086	WORD	n/a	wordpools/wordpool_EN.txt	FLAG	3	11	[0, 0, 0]	n/a	FR1	3	R1111M
1256.174	1.6	654279	WORD	n/a	wordpools/wordpool_EN.txt	CROWN	4	11	[0, 0, 0]	n/a	FR1	3	R1111M
1258.774	1.6	655579	WORD	n/a	wordpools/wordpool_EN.txt	POLE	5	11	[0, 0, 0]	n/a	FR1	3	R1111M
1261.342	1.6	656863	WORD	n/a	wordpools/wordpool_EN.txt	NAIL	6	11	[0, 0, 0]	n/a	FR1	3	R1111M
1263.791	1.6	658087	WORD	n/a	wordpools/wordpool_EN.txt	VEST	7	11	[0, 0, 0]	n/a	FR1	3	R1111M
1266.343	1.6	659363	WORD	n/a	wordpools/wordpool_EN.txt	PURSE	8	11	[0, 0, 0]	n/a	FR1	3	R1111M
1268.842	1.6	660613	WORD	n/a	wordpools/wordpool_EN.txt	PIN	9	11	[0, 0, 0]	n/a	FR1	3	R1111M
1271.31	1.6	661846	WORD	n/a	wordpools/wordpool_EN.txt	ROSE	10	11	[0, 0, 0]	n/a	FR1	3	R1111M
1273.71	1.6	663046	WORD	n/a	wordpools/wordpool_EN.txt	TANK	11	11	[0, 0, 0]	n/a	FR1	3	R1111M
1276.311	1.6	664347	WORD	n/a	wordpools/wordpool_EN.txt	PEA	12	11	[0, 0, 0]	n/a	FR1	3	R1111M
1277.927	0.001	665155	DISTRACT_START	n/a	n/a	n/a	-999	11	[0, 0, 0]	n/a	FR1	3	R1111M
1277.928	0.016	665155	START	n/a	n/a	n/a	-999	11	[-999, -999, -999]	n/a	FR1	3	R1111M
1277.944	7.068	665163	PROB	7.042	n/a	n/a	-999	11	[2, 9, 9]	20.0	FR1	3	R1111M
1285.012	6.286	668697	PROB	6.246	n/a	n/a	-999	11	[2, 8, 1]	11.0	FR1	3	R1111M
1291.298	3.984	671840	PROB	3.961	n/a	n/a	-999	11	[4, 6, 3]	13.0	FR1	3	R1111M
1295.282	4.041	673832	PROB	4.041	n/a	n/a	-999	11	[3, 4, 3]	10.0	FR1	3	R1111M
1299.323	0.009	675852	STOP	n/a	n/a	n/a	-999	11	[-999, -999, -999]	n/a	FR1	3	R1111M
1299.332	1.118	675857	DISTRACT_END	n/a	n/a	n/a	-999	11	[0, 0, 0]	n/a	FR1	3	R1111M
1300.45	30.0	676416	REC_START	n/a	n/a	n/a	-999	11	[0, 0, 0]	n/a	FR1	3	R1111M
1330.45	0.01	691415	REC_WORD_VV	30.0	n/a	<>	-999	11	[0, 0, 0]	n/a	FR1	3	R1111M
1330.46	2.228	691420	REC_END	n/a	n/a	n/a	-999	11	[0, 0, 0]	n/a	FR1	3	R1111M
1332.688	0.0	692534	TRIAL	n/a	n/a	n/a	-999	12	[0, 0, 0]	n/a	FR1	3	R1111M
1332.688	10.0	692534	COUNTDOWN_START	n/a	n/a	n/a	-999	12	[0, 0, 0]	n/a	FR1	3	R1111M
1343.116	0.008	697747	COUNTDOWN_END	n/a	n/a	n/a	-999	12	[0, 0, 0]	n/a	FR1	3	R1111M
1343.124	1.6	697751	ORIENT	n/a	n/a	n/a	-999	12	[0, 0, 0]	n/a	FR1	3	R1111M
1345.525	1.6	698952	WORD	n/a	wordpools/wordpool_EN.txt	NET	1	12	[0, 0, 0]	n/a	FR1	3	R1111M
1347.924	1.6	700151	WORD	n/a	wordpools/wordpool_EN.txt	MOLE	2	12	[0, 0, 0]	n/a	FR1	3	R1111M
1350.326	1.6	701352	WORD	n/a	wordpools/wordpool_EN.txt	THREAD	3	12	[0, 0, 0]	n/a	FR1	3	R1111M
1352.892	1.6	702635	WORD	n/a	wordpools/wordpool_EN.txt	STAR	4	12	[0, 0, 0]	n/a	FR1	3	R1111M
1355.477	1.6	703928	WORD	n/a	wordpools/wordpool_EN.txt	SHELL	5	12	[0, 0, 0]	n/a	FR1	3	R1111M
1357.859	1.6	705118	WORD	n/a	wordpools/wordpool_EN.txt	SNOW	6	12	[0, 0, 0]	n/a	FR1	3	R1111M
1360.394	1.6	706386	WORD	n/a	wordpools/wordpool_EN.txt	SHEET	7	12	[0, 0, 0]	n/a	FR1	3	R1111M
1362.927	1.6	707652	WORD	n/a	wordpools/wordpool_EN.txt	BALL	8	12	[0, 0, 0]	n/a	FR1	3	R1111M
1365.445	1.6	708911	WORD	n/a	wordpools/wordpool_EN.txt	CLOTH	9	12	[0, 0, 0]	n/a	FR1	3	R1111M
1368.063	1.6	710220	WORD	n/a	wordpools/wordpool_EN.txt	CLOUD	10	12	[0, 0, 0]	n/a	FR1	3	R1111M
1370.612	1.6	711495	WORD	n/a	wordpools/wordpool_EN.txt	WHEEL	11	12	[0, 0, 0]	n/a	FR1	3	R1111M
1373.029	1.6	712703	WORD	n/a	wordpools/wordpool_EN.txt	SHARK	12	12	[0, 0, 0]	n/a	FR1	3	R1111M
1374.646	0.001	713511	DISTRACT_START	n/a	n/a	n/a	-999	12	[0, 0, 0]	n/a	FR1	3	R1111M
1374.647	0.016	713512	START	n/a	n/a	n/a	-999	12	[-999, -999, -999]	n/a	FR1	3	R1111M
1374.663	5.984	713520	PROB	5.963	n/a	n/a	-999	12	[4, 7, 4]	15.0	FR1	3	R1111M
1380.647	5.085	716512	PROB	5.059	n/a	n/a	-999	12	[9, 1, 4]	14.0	FR1	3	R1111M
1385.732	7.151	719054	PROB	7.118	n/a	n/a	-999	12	[6, 6, 9]	23.0	FR1	3	R1111M
1392.883	4.839	722629	PROB	4.839	n/a	n/a	-999	12	[7, 5, 3]	15.0	FR1	3	R1111M
1397.722	0.012	725049	STOP	n/a	n/a	n/a	-999	12	[-999, -999, -999]	n/a	FR1	3	R1111M
1397.734	1.184	725055	DISTRACT_END	n/a	n/a	n/a	-999	12	[0, 0, 0]	n/a	FR1	3	R1111M
1398.918	7.741	725647	REC_START	n/a	n/a	n/a	-999	12	[0, 0, 0]	n/a	FR1	3	R1111M
1406.659	1.171	729517	REC_WORD	7.741	n/a	THREAD	-999	12	[0, 0, 0]	n/a	FR1	3	R1111M
1407.83	1.573	730103	REC_WORD	8.912	n/a	STAR	-999	12	[0, 0, 0]	n/a	FR1	3	R1111M
1409.403	2.688	730889	REC_WORD	10.485	n/a	SNOW	-999	12	[0, 0, 0]	n/a	FR1	3	R1111M
1412.091	16.837	732233	REC_WORD	13.173	n/a	SHEET	-999	12	[0, 0, 0]	n/a	FR1	3	R1111M
1428.928	9.414	740651	REC_END	n/a	n/a	n/a	-999	12	[0, 0, 0]	n/a	FR1	3	R1111M
1438.342	10.0	745358	COUNTDOWN_START	n/a	n/a	n/a	-999	13	[0, 0, 0]	n/a	FR1	3	R1111M
1438.343	10.427	745358	TRIAL	n/a	n/a	n/a	-999	13	[0, 0, 0]	n/a	FR1	3	R1111M
1448.77	0.007	750571	COUNTDOWN_END	n/a	n/a	n/a	-999	13	[0, 0, 0]	n/a	FR1	3	R1111M
1448.777	1.6	750575	ORIENT	n/a	n/a	n/a	-999	13	[0, 0, 0]	n/a	FR1	3	R1111M
1451.345	1.6	751859	WORD	n/a	wordpools/wordpool_EN.txt	FLAME	1	13	[0, 0, 0]	n/a	FR1	3	R1111M
1453.778	1.6	753075	WORD	n/a	wordpools/wordpool_EN.txt	SHEEP	2	13	[0, 0, 0]	n/a	FR1	3	R1111M
1456.263	1.6	754318	WORD	n/a	wordpools/wordpool_EN.txt	WAND	3	13	[0, 0, 0]	n/a	FR1	3	R1111M
1458.679	1.6	755526	WORD	n/a	wordpools/wordpool_EN.txt	SWAMP	4	13	[0, 0, 0]	n/a	FR1	3	R1111M
1461.114	1.6	756743	WORD	n/a	wordpools/wordpool_EN.txt	CORN	5	13	[0, 0, 0]	n/a	FR1	3	R1111M
1463.697	1.6	758034	WORD	n/a	wordpools/wordpool_EN.txt	BRUSH	6	13	[0, 0, 0]	n/a	FR1	3	R1111M
1466.248	1.6	759310	WORD	n/a	wordpools/wordpool_EN.txt	SKY	7	13	[0, 0, 0]	n/a	FR1	3	R1111M
1468.781	1.6	760576	WORD	n/a	wordpools/wordpool_EN.txt	TENT	8	13	[0, 0, 0]	n/a	FR1	3	R1111M
1471.232	1.6	761802	WORD	n/a	wordpools/wordpool_EN.txt	OAK	9	13	[0, 0, 0]	n/a	FR1	3	R1111M
1473.832	1.6	763102	WORD	n/a	wordpools/wordpool_EN.txt	JEEP	10	13	[0, 0, 0]	n/a	FR1	3	R1111M
1476.4	1.6	764386	WORD	n/a	wordpools/wordpool_EN.txt	CROW	11	13	[0, 0, 0]	n/a	FR1	3	R1111M
1478.999	1.6	765685	WORD	n/a	wordpools/wordpool_EN.txt	LAKE	12	13	[0, 0, 0]	n/a	FR1	3	R1111M
1480.617	0.0	766494	DISTRACT_START	n/a	n/a	n/a	-999	13	[0, 0, 0]	n/a	FR1	3	R1111M
1480.617	0.016	766494	START	n/a	n/a	n/a	-999	13	[-999, -999, -999]	n/a	FR1	3	R1111M
1480.633	10.102	766502	PROB	10.081	n/a	n/a	-999	13	[9, 2, 8]	27.0	FR1	3	R1111M
1490.735	7.051	771553	PROB	7.027	n/a	n/a	-999	13	[6, 7, 9]	23.0	FR1	3	R1111M
1497.786	7.457	775078	PROB	7.457	n/a	n/a	-999	13	[7, 8, 4]	19.0	FR1	3	R1111M
1505.243	0.013	778806	STOP	n/a	n/a	n/a	-999	13	[-999, -999, -999]	n/a	FR1	3	R1111M
1505.256	1.184	778813	DISTRACT_END	n/a	n/a	n/a	-999	13	[0, 0, 0]	n/a	FR1	3	R1111M
1506.44	8.254	779405	REC_START	n/a	n/a	n/a	-999	13	[0, 0, 0]	n/a	FR1	3	R1111M
1514.694	0.516	783532	REC_WORD	8.254	n/a	FLAME	-999	13	[0, 0, 0]	n/a	FR1	3	R1111M
1515.21	0.582	783790	REC_WORD	8.77	n/a	SHEEP	-999	13	[0, 0, 0]	n/a	FR1	3	R1111M
1515.792	2.186	784080	REC_WORD	9.352	n/a	WAND	-999	13	[0, 0, 0]	n/a	FR1	3	R1111M
1517.978	1.273	785173	REC_WORD	11.538	n/a	SWAMP	-999	13	[0, 0, 0]	n/a	FR1	3	R1111M
1519.251	2.125	785810	REC_WORD	12.811	n/a	TENT	-999	13	[0, 0, 0]	n/a	FR1	3	R1111M
1521.376	3.473	786872	REC_WORD	14.936	n/a	JEEP	-999	13	[0, 0, 0]	n/a	FR1	3	R1111M
1524.849	1.334	788609	REC_WORD	18.409	n/a	SKY	-999	13	[0, 0, 0]	n/a	FR1	3	R1111M
1526.183	10.266	789276	REC_WORD	19.743	n/a	OAK	-999	13	[0, 0, 0]	n/a	FR1	3	R1111M
1536.449	7.081	794408	REC_END	n/a	n/a	n/a	-999	13	[0, 0, 0]	n/a	FR1	3	R1111M
1543.53	0.0	797949	TRIAL	n/a	n/a	n/a	-999	14	[0, 0, 0]	n/a	FR1	3	R1111M
1543.53	10.0	797949	COUNTDOWN_START	n/a	n/a	n/a	-999	14	[0, 0, 0]	n/a	FR1	3	R1111M
1553.958	0.006	803162	COUNTDOWN_END	n/a	n/a	n/a	-999	14	[0, 0, 0]	n/a	FR1	3	R1111M
1553.964	1.6	803165	ORIENT	n/a	n/a	n/a	-999	14	[0, 0, 0]	n/a	FR1	3	R1111M
1556.415	1.6	804391	WORD	n/a	wordpools/wordpool_EN.txt	GLOVE	1	14	[0, 0, 0]	n/a	FR1	3	R1111M
1558.832	1.6	805599	WORD	n/a	wordpools/wordpool_EN.txt	CHAIR	2	14	[0, 0, 0]	n/a	FR1	3	R1111M
1561.3	1.6	806833	WORD	n/a	wordpools/wordpool_EN.txt	ARM	3	14	[0, 0, 0]	n/a	FR1	3	R1111M
1563.816	1.6	808091	WORD	n/a	wordpools/wordpool_EN.txt	BOARD	4	14	[0, 0, 0]	n/a	FR1	3	R1111M
1566.384	1.6	809375	WORD	n/a	wordpools/wordpool_EN.txt	FISH	5	14	[0, 0, 0]	n/a	FR1	3	R1111M
1569.0	1.6	810683	WORD	n/a	wordpools/wordpool_EN.txt	SHIRT	6	14	[0, 0, 0]	n/a	FR1	3	R1111M
1571.601	1.6	811983	WORD	n/a	wordpools/wordpool_EN.txt	TEETH	7	14	[0, 0, 0]	n/a	FR1	3	R1111M
1574.069	1.6	813217	WORD	n/a	wordpools/wordpool_EN.txt	BARN	8	14	[0, 0, 0]	n/a	FR1	3	R1111M
1576.553	1.6	814459	WORD	n/a	wordpools/wordpool_EN.txt	SHRIMP	9	14	[0, 0, 0]	n/a	FR1	3	R1111M
1578.969	1.6	815667	WORD	n/a	wordpools/wordpool_EN.txt	CHALK	10	14	[0, 0, 0]	n/a	FR1	3	R1111M
1581.57	1.6	816968	WORD	n/a	wordpools/wordpool_EN.txt	CLIFF	11	14	[0, 0, 0]	n/a	FR1	3	R1111M
1583.97	1.6	818168	WORD	n/a	wordpools/wordpool_EN.txt	WORLD	12	14	[0, 0, 0]	n/a	FR1	3	R1111M
1585.587	0.001	818976	DISTRACT_START	n/a	n/a	n/a	-999	14	[0, 0, 0]	n/a	FR1	3	R1111M
1585.588	0.015	818977	START	n/a	n/a	n/a	-999	14	[-999, -999, -999]	n/a	FR1	3	R1111M
1585.603	3.952	818984	PROB	3.92	n/a	n/a	-999	14	[5, 3, 1]	9.0	FR1	3	R1111M
1589.555	3.45	820960	PROB	3.415	n/a	n/a	-999	14	[8, 8, 2]	18.0	FR1	3	R1111M
1593.005	4.368	822685	PROB	4.342	n/a	n/a	-999	14	[8, 2, 6]	16.0	FR1	3	R1111M
1597.373	5.185	824869	PROB	5.158	n/a	n/a	-999	14	[4, 8, 5]	17.0	FR1	3	R1111M
1602.558	8.741	827461	PROB	8.741	n/a	n/a	-999	14	[8, 9, 6]	25.0	FR1	3	R1111M
1611.299	0.01	831831	STOP	n/a	n/a	n/a	-999	14	[-999, -999, -999]	n/a	FR1	3	R1111M
1611.309	1.118	831836	DISTRACT_END	n/a	n/a	n/a	-999	14	[0, 0, 0]	n/a	FR1	3	R1111M
1612.427	3.914	832395	REC_START	n/a	n/a	n/a	-999	14	[0, 0, 0]	n/a	FR1	3	R1111M
1616.341	1.835	834352	REC_WORD	3.914	n/a	ARM	-999	14	[0, 0, 0]	n/a	FR1	3	R1111M
1618.176	1.24	835270	REC_WORD	5.749	n/a	GLOVE	-999	14	[0, 0, 0]	n/a	FR1	3	R1111M
1619.416	2.6	835890	REC_WORD	6.989	n/a	CHAIR	-999	14	[0, 0, 0]	n/a	FR1	3	R1111M
1622.016	2.016	837189	REC_WORD	9.589	n/a	BOARD	-999	14	[0, 0, 0]	n/a	FR1	3	R1111M
1624.032	2.955	838197	REC_WORD	11.605	n/a	FISH	-999	14	[0, 0, 0]	n/a	FR1	3	R1111M
1626.987	0.806	839675	REC_WORD	14.56	n/a	SHIRT	-999	14	[0, 0, 0]	n/a	FR1	3	R1111M
1627.793	0.832	840078	REC_WORD	15.366	n/a	TEETH	-999	14	[0, 0, 0]	n/a	FR1	3	R1111M
1628.625	0.49	840494	REC_WORD	16.198	n/a	BARN	-999	14	[0, 0, 0]	n/a	FR1	3	R1111M
1629.115	2.27	840739	REC_WORD	16.688	n/a	SHRIMP	-999	14	[0, 0, 0]	n/a	FR1	3	R1111M
1631.385	0.672	841874	REC_WORD	18.958	n/a	TRUCK	-999	14	[0, 0, 0]	n/a	FR1	3	R1111M
1632.057	0.662	842210	REC_WORD	19.63	n/a	CLIFF	-999	14	[0, 0, 0]	n/a	FR1	3	R1111M
1632.719	9.72	842541	REC_WORD	20.292	n/a	WORLD	-999	14	[0, 0, 0]	n/a	FR1	3	R1111M
1642.439	1.943	847400	REC_END	n/a	n/a	n/a	-999	14	[0, 0, 0]	n/a	FR1	3	R1111M
1644.382	10.0	848372	COUNTDOWN_START	n/a	n/a	n/a	-999	15	[0, 0, 0]	n/a	FR1	3	R1111M
1644.383	10.427	848372	TRIAL	n/a	n/a	n/a	-999	15	[0, 0, 0]	n/a	FR1	3	R1111M
1654.81	0.007	853586	COUNTDOWN_END	n/a	n/a	n/a	-999	15	[0, 0, 0]	n/a	FR1	3	R1111M
1654.817	1.6	853589	ORIENT	n/a	n/a	n/a	-999	15	[0, 0, 0]	n/a	FR1	3	R1111M
1657.285	1.6	854823	WORD	n/a	wordpools/wordpool_EN.txt	MULE	1	15	[0, 0, 0]	n/a	FR1	3	R1111M
1659.718	1.6	856039	WORD	n/a	wordpools/wordpool_EN.txt	SPEAR	2	15	[0, 0, 0]	n/a	FR1	3	R1111M
1662.336	1.6	857348	WORD	n/a	wordpools/wordpool_EN.txt	LAMB	3	15	[0, 0, 0]	n/a	FR1	3	R1111M
1664.819	1.6	858590	WORD	n/a	wordpools/wordpool_EN.txt	MOOSE	4	15	[0, 0, 0]	n/a	FR1	3	R1111M
1667.304	1.6	859832	WORD	n/a	wordpools/wordpool_EN.txt	FLEA	5	15	[0, 0, 0]	n/a	FR1	3	R1111M
1669.903	1.6	861132	WORD	n/a	wordpools/wordpool_EN.txt	GRASS	6	15	[0, 0, 0]	n/a	FR1	3	R1111M
1672.388	1.6	862374	WORD	n/a	wordpools/wordpool_EN.txt	HORSE	7	15	[0, 0, 0]	n/a	FR1	3	R1111M
1674.987	1.6	863673	WORD	n/a	wordpools/wordpool_EN.txt	SOUP	8	15	[0, 0, 0]	n/a	FR1	3	R1111M
1677.539	1.6	864949	WORD	n/a	wordpools/wordpool_EN.txt	STEAM	9	15	[0, 0, 0]	n/a	FR1	3	R1111M
1680.055	1.6	866207	WORD	n/a	wordpools/wordpool_EN.txt	VINE	10	15	[0, 0, 0]	n/a	FR1	3	R1111M
1682.573	1.6	867466	WORD	n/a	wordpools/wordpool_EN.txt	PRINCE	11	15	[0, 0, 0]	n/a	FR1	3	R1111M
1684.972	1.6	868666	WORD	n/a	wordpools/wordpool_EN.txt	SPARK	12	15	[0, 0, 0]	n/a	FR1	3	R1111M
1686.574	0.001	869467	DISTRACT_START	n/a	n/a	n/a	-999	15	[0, 0, 0]	n/a	FR1	3	R1111M
1686.575	0.015	869467	START	n/a	n/a	n/a	-999	15	[-999, -999, -999]	n/a	FR1	3	R1111M
1686.59	3.901	869475	PROB	3.869	n/a	n/a	-999	15	[1, 6, 4]	11.0	FR1	3	R1111M
1690.491	5.968	871425	PROB	5.936	n/a	n/a	-999	15	[3, 8, 5]	16.0	FR1	3	R1111M
1696.459	6.085	874409	PROB	6.056	n/a	n/a	-999	15	[5, 6, 2]	13.0	FR1	3	R1111M
1702.544	3.066	877451	PROB	3.035	n/a	n/a	-999	15	[1, 6, 4]	11.0	FR1	3	R1111M
1705.61	5.336	878984	PROB	5.336	n/a	n/a	-999	15	[7, 7, 8]	22.0	FR1	3	R1111M
1710.946	0.015	881652	STOP	n/a	n/a	n/a	-999	15	[-999, -999, -999]	n/a	FR1	3	R1111M
1710.961	1.102	881659	DISTRACT_END	n/a	n/a	n/a	-999	15	[0, 0, 0]	n/a	FR1	3	R1111M
1712.063	6.945	882210	REC_START	n/a	n/a	n/a	-999	15	[0, 0, 0]	n/a	FR1	3	R1111M
1719.008	3.201	885683	REC_WORD	6.945	n/a	SPEAR	-999	15	[0, 0, 0]	n/a	FR1	3	R1111M
1722.209	1.314	887283	REC_WORD	10.146	n/a	MULE	-999	15	[0, 0, 0]	n/a	FR1	3	R1111M
1723.523	2.749	887940	REC_WORD	11.46	n/a	HORSE	-999	15	[0, 0, 0]	n/a	FR1	3	R1111M
1726.272	3.532	889315	REC_WORD	14.209	n/a	LAMB	-999	15	[0, 0, 0]	n/a	FR1	3	R1111M
1729.804	2.166	891080	REC_WORD	17.741	n/a	GRASS	-999	15	[0, 0, 0]	n/a	FR1	3	R1111M
1731.97	2.247	892163	REC_WORD	19.907	n/a	FLEA	-999	15	[0, 0, 0]	n/a	FR1	3	R1111M
1734.217	0.889	893287	REC_WORD	22.154	n/a	HORSE	-999	15	[0, 0, 0]	n/a	FR1	3	R1111M
1735.106	0.616	893731	REC_WORD	23.043	n/a	PRINCE	-999	15	[0, 0, 0]	n/a	FR1	3	R1111M
1735.722	6.358	894039	REC_WORD	23.659	n/a	SPARK	-999	15	[0, 0, 0]	n/a	FR1	3	R1111M
1742.08	3.155	897218	REC_END	n/a	n/a	n/a	-999	15	[0, 0, 0]	n/a	FR1	3	R1111M
1745.235	10.0	898795	COUNTDOWN_START	n/a	n/a	n/a	-999	16	[0, 0, 0]	n/a	FR1	3	R1111M
1745.236	10.427	898796	TRIAL	n/a	n/a	n/a	-999	16	[0, 0, 0]	n/a	FR1	3	R1111M
1755.663	0.007	904009	COUNTDOWN_END	n/a	n/a	n/a	-999	16	[0, 0, 0]	n/a	FR1	3	R1111M
1755.67	1.6	904013	ORIENT	n/a	n/a	n/a	-999	16	[0, 0, 0]	n/a	FR1	3	R1111M
1758.104	1.6	905230	WORD	n/a	wordpools/wordpool_EN.txt	SUIT	1	16	[0, 0, 0]	n/a	FR1	3	R1111M
1760.522	1.6	906439	WORD	n/a	wordpools/wordpool_EN.txt	WOLF	2	16	[0, 0, 0]	n/a	FR1	3	R1111M
1763.004	1.6	907679	WORD	n/a	wordpools/wordpool_EN.txt	MAZE	3	16	[0, 0, 0]	n/a	FR1	3	R1111M
1765.389	1.6	908872	WORD	n/a	wordpools/wordpool_EN.txt	BOX	4	16	[0, 0, 0]	n/a	FR1	3	R1111M
1767.855	1.6	910105	WORD	n/a	wordpools/wordpool_EN.txt	CAPE	5	16	[0, 0, 0]	n/a	FR1	3	R1111M
1770.273	1.6	911314	WORD	n/a	wordpools/wordpool_EN.txt	BEACH	6	16	[0, 0, 0]	n/a	FR1	3	R1111M
1772.856	1.6	912605	WORD	n/a	wordpools/wordpool_EN.txt	SHIP	7	16	[0, 0, 0]	n/a	FR1	3	R1111M
1775.358	1.6	913856	WORD	n/a	wordpools/wordpool_EN.txt	SEA	8	16	[0, 0, 0]	n/a	FR1	3	R1111M
1777.891	1.6	915123	WORD	n/a	wordpools/wordpool_EN.txt	SEAL	9	16	[0, 0, 0]	n/a	FR1	3	R1111M
1780.342	1.6	916348	WORD	n/a	wordpools/wordpool_EN.txt	SNAIL	10	16	[0, 0, 0]	n/a	FR1	3	R1111M
1782.908	1.6	917631	WORD	n/a	wordpools/wordpool_EN.txt	SALT	11	16	[0, 0, 0]	n/a	FR1	3	R1111M
1785.443	1.6	918898	WORD	n/a	wordpools/wordpool_EN.txt	SLUSH	12	16	[0, 0, 0]	n/a	FR1	3	R1111M
1787.059	0.001	919706	DISTRACT_START	n/a	n/a	n/a	-999	16	[0, 0, 0]	n/a	FR1	3	R1111M
1787.06	0.017	919707	START	n/a	n/a	n/a	-999	16	[-999, -999, -999]	n/a	FR1	3	R1111M
1787.077	6.284	919715	PROB	6.262	n/a	n/a	-999	16	[2, 6, 1]	9.0	FR1	3	R1111M
1793.361	3.633	922857	PROB	3.609	n/a	n/a	-999	16	[4, 9, 9]	22.0	FR1	3	R1111M
1796.994	3.369	924673	PROB	3.345	n/a	n/a	-999	16	[5, 6, 2]	13.0	FR1	3	R1111M
1800.363	6.952	926358	PROB	6.952	n/a	n/a	-999	16	[2, 8, 9]	19.0	FR1	3	R1111M
1807.315	0.016	929834	STOP	n/a	n/a	n/a	-999	16	[-999, -999, -999]	n/a	FR1	3	R1111M
1807.331	1.15	929842	DISTRACT_END	n/a	n/a	n/a	-999	16	[0, 0, 0]	n/a	FR1	3	R1111M
1808.481	2.376	930417	REC_START	n/a	n/a	n/a	-999	16	[0, 0, 0]	n/a	FR1	3	R1111M
1810.857	1.835	931605	REC_WORD	2.376	n/a	SALT	-999	16	[0, 0, 0]	n/a	FR1	3	R1111M
1812.692	0.662	932522	REC_WORD	4.211	n/a	WOLF	-999	16	[0, 0, 0]	n/a	FR1	3	R1111M
1813.354	2.348	932853	REC_WORD	4.873	n/a	SUIT	-999	16	[0, 0, 0]	n/a	FR1	3	R1111M
1815.702	3.771	934027	REC_WORD	7.221	n/a	BOX	-999	16	[0, 0, 0]	n/a	FR1	3	R1111M
1819.473	2.687	935912	REC_WORD	10.992	n/a	MAZE	-999	16	[0, 0, 0]	n/a	FR1	3	R1111M
1822.16	5.665	937256	REC_WORD	13.679	n/a	BEACH	-999	16	[0, 0, 0]	n/a	FR1	3	R1111M
1827.825	2.654	940088	REC_WORD	19.344	n/a	SEA	-999	16	[0, 0, 0]	n/a	FR1	3	R1111M
1830.479	5.556	941415	REC_WORD	21.998	n/a	SLUSH	-999	16	[0, 0, 0]	n/a	FR1	3	R1111M
1836.035	1.561	944193	REC_WORD	27.554	n/a	BOAT	-999	16	[0, 0, 0]	n/a	FR1	3	R1111M
1837.596	0.914	944973	REC_WORD	29.115	n/a	SEAL	-999	16	[0, 0, 0]	n/a	FR1	3	R1111M
1838.51	8.562	945430	REC_END	n/a	n/a	n/a	-999	16	[0, 0, 0]	n/a	FR1	3	R1111M
1847.072	0.0	949711	TRIAL	n/a	n/a	n/a	-999	17	[0, 0, 0]	n/a	FR1	3	R1111M
1847.072	10.0	949711	COUNTDOWN_START	n/a	n/a	n/a	-999	17	[0, 0, 0]	n/a	FR1	3	R1111M
1857.5	0.007	954925	COUNTDOWN_END	n/a	n/a	n/a	-999	17	[0, 0, 0]	n/a	FR1	3	R1111M
1857.507	1.6	954928	ORIENT	n/a	n/a	n/a	-999	17	[0, 0, 0]	n/a	FR1	3	R1111M
1859.923	1.6	956136	WORD	n/a	wordpools/wordpool_EN.txt	SPRING	1	17	[0, 0, 0]	n/a	FR1	3	R1111M
1862.525	1.6	957437	WORD	n/a	wordpools/wordpool_EN.txt	SNAKE	2	17	[0, 0, 0]	n/a	FR1	3	R1111M
1865.142	1.6	958746	WORD	n/a	wordpools/wordpool_EN.txt	KITE	3	17	[0, 0, 0]	n/a	FR1	3	R1111M
1867.675	1.6	960012	WORD	n/a	wordpools/wordpool_EN.txt	FRUIT	4	17	[0, 0, 0]	n/a	FR1	3	R1111M
1870.159	1.6	961254	WORD	n/a	wordpools/wordpool_EN.txt	FOX	5	17	[0, 0, 0]	n/a	FR1	3	R1111M
1872.642	1.6	962495	WORD	n/a	wordpools/wordpool_EN.txt	CAVE	6	17	[0, 0, 0]	n/a	FR1	3	R1111M
1875.177	1.6	963763	WORD	n/a	wordpools/wordpool_EN.txt	OWL	7	17	[0, 0, 0]	n/a	FR1	3	R1111M
1877.676	1.6	965012	WORD	n/a	wordpools/wordpool_EN.txt	YARD	8	17	[0, 0, 0]	n/a	FR1	3	R1111M
1880.178	1.6	966263	WORD	n/a	wordpools/wordpool_EN.txt	DITCH	9	17	[0, 0, 0]	n/a	FR1	3	R1111M
1882.744	1.6	967546	WORD	n/a	wordpools/wordpool_EN.txt	TEA	10	17	[0, 0, 0]	n/a	FR1	3	R1111M
1885.296	1.6	968822	WORD	n/a	wordpools/wordpool_EN.txt	BREAD	11	17	[0, 0, 0]	n/a	FR1	3	R1111M
1887.762	1.6	970055	WORD	n/a	wordpools/wordpool_EN.txt	JUICE	12	17	[0, 0, 0]	n/a	FR1	3	R1111M
1889.38	0.0	970864	DISTRACT_START	n/a	n/a	n/a	-999	17	[0, 0, 0]	n/a	FR1	3	R1111M
1889.38	0.016	970864	START	n/a	n/a	n/a	-999	17	[-999, -999, -999]	n/a	FR1	3	R1111M
1889.396	6.168	970872	PROB	6.135	n/a	n/a	-999	17	[3, 1, 3]	7.0	FR1	3	R1111M
1895.564	3.233	973956	PROB	3.206	n/a	n/a	-999	17	[3, 9, 9]	21.0	FR1	3	R1111M
1898.797	6.835	975572	PROB	6.805	n/a	n/a	-999	17	[4, 9, 8]	21.0	FR1	3	R1111M
1905.632	2.034	978989	PROB	2.01	n/a	n/a	-999	17	[4, 5, 5]	14.0	FR1	3	R1111M
1907.666	4.032	980006	PROB	4.032	n/a	n/a	-999	17	[4, 6, 5]	15.0	FR1	3	R1111M
1911.698	0.018	982022	STOP	n/a	n/a	n/a	-999	17	[-999, -999, -999]	n/a	FR1	3	R1111M
1911.716	1.085	982031	DISTRACT_END	n/a	n/a	n/a	-999	17	[0, 0, 0]	n/a	FR1	3	R1111M
1912.801	23.404	982574	REC_START	n/a	n/a	n/a	-999	17	[0, 0, 0]	n/a	FR1	3	R1111M
1936.205	6.608	994275	REC_WORD_VV	23.404	n/a	<>	-999	17	[0, 0, 0]	n/a	FR1	3	R1111M
1942.813	20.78	997579	REC_END	n/a	n/a	n/a	-999	17	[0, 0, 0]	n/a	FR1	3	R1111M
1963.593	10.0	1007968	COUNTDOWN_START	n/a	n/a	n/a	-999	18	[0, 0, 0]	n/a	FR1	3	R1111M
1963.593	10.428	1007968	TRIAL	n/a	n/a	n/a	-999	18	[0, 0, 0]	n/a	FR1	3	R1111M
1974.021	0.007	1013182	COUNTDOWN_END	n/a	n/a	n/a	-999	18	[0, 0, 0]	n/a	FR1	3	R1111M
1974.028	1.6	1013185	ORIENT	n/a	n/a	n/a	-999	18	[0, 0, 0]	n/a	FR1	3	R1111M
1976.612	1.6	1014477	WORD	n/a	wordpools/wordpool_EN.txt	HEN	1	18	[0, 0, 0]	n/a	FR1	3	R1111M
1978.996	1.6	1015669	WORD	n/a	wordpools/wordpool_EN.txt	RICE	2	18	[0, 0, 0]	n/a	FR1	3	R1111M
1981.498	1.6	1016920	WORD	n/a	wordpools/wordpool_EN.txt	BLUSH	3	18	[0, 0, 0]	n/a	FR1	3	R1111M
1983.897	1.6	1018120	WORD	n/a	wordpools/wordpool_EN.txt	SUN	4	18	[0, 0, 0]	n/a	FR1	3	R1111M
1986.449	1.6	1019396	WORD	n/a	wordpools/wordpool_EN.txt	STREET	5	18	[0, 0, 0]	n/a	FR1	3	R1111M
1989.066	1.6	1020704	WORD	n/a	wordpools/wordpool_EN.txt	HOOK	6	18	[0, 0, 0]	n/a	FR1	3	R1111M
1991.582	1.6	1021962	WORD	n/a	wordpools/wordpool_EN.txt	HOSE	7	18	[0, 0, 0]	n/a	FR1	3	R1111M
1994.2	1.6	1023271	WORD	n/a	wordpools/wordpool_EN.txt	STORE	8	18	[0, 0, 0]	n/a	FR1	3	R1111M
1996.749	1.6	1024545	WORD	n/a	wordpools/wordpool_EN.txt	CAT	9	18	[0, 0, 0]	n/a	FR1	3	R1111M
1999.301	1.6	1025821	WORD	n/a	wordpools/wordpool_EN.txt	LAMP	10	18	[0, 0, 0]	n/a	FR1	3	R1111M
2001.867	1.6	1027104	WORD	n/a	wordpools/wordpool_EN.txt	STOVE	11	18	[0, 0, 0]	n/a	FR1	3	R1111M
2004.368	1.6	1028355	WORD	n/a	wordpools/wordpool_EN.txt	MILK	12	18	[0, 0, 0]	n/a	FR1	3	R1111M
2005.985	0.001	1029163	DISTRACT_START	n/a	n/a	n/a	-999	18	[0, 0, 0]	n/a	FR1	3	R1111M
2005.986	0.015	1029164	START	n/a	n/a	n/a	-999	18	[-999, -999, -999]	n/a	FR1	3	R1111M
2006.001	5.069	1029171	PROB	5.041	n/a	n/a	-999	18	[5, 5, 4]	14.0	FR1	3	R1111M
2011.07	8.235	1031705	PROB	8.205	n/a	n/a	-999	18	[9, 6, 4]	19.0	FR1	3	R1111M
2019.305	4.616	1035823	PROB	4.585	n/a	n/a	-999	18	[8, 8, 1]	19.0	FR1	3	R1111M
2023.921	4.418	1038131	PROB	4.418	n/a	n/a	-999	18	[8, 2, 4]	14.0	FR1	3	R1111M
2028.339	0.018	1040339	STOP	n/a	n/a	n/a	-999	18	[-999, -999, -999]	n/a	FR1	3	R1111M
2028.357	1.067	1040348	DISTRACT_END	n/a	n/a	n/a	-999	18	[0, 0, 0]	n/a	FR1	3	R1111M
2029.424	10.67	1040882	REC_START	n/a	n/a	n/a	-999	18	[0, 0, 0]	n/a	FR1	3	R1111M
2040.094	19.343	1046217	REC_WORD_VV	10.67	n/a	<>	-999	18	[0, 0, 0]	n/a	FR1	3	R1111M
2059.437	8.243	1055888	REC_END	n/a	n/a	n/a	-999	18	[0, 0, 0]	n/a	FR1	3	R1111M
2067.68	0.0	1060009	TRIAL	n/a	n/a	n/a	-999	19	[0, 0, 0]	n/a	FR1	3	R1111M
2067.68	10.0	1060009	COUNTDOWN_START	n/a	n/a	n/a	-999	19	[0, 0, 0]	n/a	FR1	3	R1111M
2078.108	0.008	1065223	COUNTDOWN_END	n/a	n/a	n/a	-999	19	[0, 0, 0]	n/a	FR1	3	R1111M
2078.116	1.6	1065227	ORIENT	n/a	n/a	n/a	-999	19	[0, 0, 0]	n/a	FR1	3	R1111M
2080.5	1.6	1066418	WORD	n/a	wordpools/wordpool_EN.txt	LAND	1	19	[0, 0, 0]	n/a	FR1	3	R1111M
2082.883	1.6	1067610	WORD	n/a	wordpools/wordpool_EN.txt	SQUARE	2	19	[0, 0, 0]	n/a	FR1	3	R1111M
2085.418	1.6	1068877	WORD	n/a	wordpools/wordpool_EN.txt	SPOON	3	19	[0, 0, 0]	n/a	FR1	3	R1111M
2087.934	1.6	1070135	WORD	n/a	wordpools/wordpool_EN.txt	GRAPE	4	19	[0, 0, 0]	n/a	FR1	3	R1111M
2090.435	1.6	1071386	WORD	n/a	wordpools/wordpool_EN.txt	FARM	5	19	[0, 0, 0]	n/a	FR1	3	R1111M
2092.901	1.6	1072619	WORD	n/a	wordpools/wordpool_EN.txt	STOOL	6	19	[0, 0, 0]	n/a	FR1	3	R1111M
2095.369	1.6	1073853	WORD	n/a	wordpools/wordpool_EN.txt	BLOOM	7	19	[0, 0, 0]	n/a	FR1	3	R1111M
2097.786	1.6	1075061	WORD	n/a	wordpools/wordpool_EN.txt	APE	8	19	[0, 0, 0]	n/a	FR1	3	R1111M
2100.27	1.6	1076303	WORD	n/a	wordpools/wordpool_EN.txt	FLOOR	9	19	[0, 0, 0]	n/a	FR1	3	R1111M
2102.72	1.6	1077528	WORD	n/a	wordpools/wordpool_EN.txt	RAIN	10	19	[0, 0, 0]	n/a	FR1	3	R1111M
2105.305	1.6	1078820	WORD	n/a	wordpools/wordpool_EN.txt	CUP	11	19	[0, 0, 0]	n/a	FR1	3	R1111M
2107.854	1.6	1080095	WORD	n/a	wordpools/wordpool_EN.txt	ROCK	12	19	[0, 0, 0]	n/a	FR1	3	R1111M
2109.455	0.001	1080895	DISTRACT_START	n/a	n/a	n/a	-999	19	[0, 0, 0]	n/a	FR1	3	R1111M
2109.456	0.016	1080896	START	n/a	n/a	n/a	-999	19	[-999, -999, -999]	n/a	FR1	3	R1111M
2109.472	6.534	1080904	PROB	6.506	n/a	n/a	-999	19	[1, 5, 3]	9.0	FR1	3	R1111M
2116.006	6.085	1084170	PROB	6.052	n/a	n/a	-999	19	[4, 5, 8]	17.0	FR1	3	R1111M
2122.091	5.285	1087213	PROB	5.248	n/a	n/a	-999	19	[8, 8, 3]	19.0	FR1	3	R1111M
2127.376	2.899	1089855	PROB	2.899	n/a	n/a	-999	19	[1, 2, 7]	10.0	FR1	3	R1111M
2130.275	0.018	1091305	STOP	n/a	n/a	n/a	-999	19	[-999, -999, -999]	n/a	FR1	3	R1111M
2130.293	1.034	1091314	DISTRACT_END	n/a	n/a	n/a	-999	19	[0, 0, 0]	n/a	FR1	3	R1111M
2131.327	2.147	1091830	REC_START	n/a	n/a	n/a	-999	19	[0, 0, 0]	n/a	FR1	3	R1111M
2133.474	0.653	1092904	REC_WORD	2.147	n/a	SQUARE	-999	19	[0, 0, 0]	n/a	FR1	3	R1111M
2134.127	1.038	1093230	REC_WORD	2.8	n/a	LAND	-999	19	[0, 0, 0]	n/a	FR1	3	R1111M
2135.165	0.943	1093749	REC_WORD	3.838	n/a	SPOON	-999	19	[0, 0, 0]	n/a	FR1	3	R1111M
2136.108	4.64	1094221	REC_WORD	4.781	n/a	GRAPE	-999	19	[0, 0, 0]	n/a	FR1	3	R1111M
2140.748	3.662	1096541	REC_WORD	9.421	n/a	APE	-999	19	[0, 0, 0]	n/a	FR1	3	R1111M
2144.41	0.727	1098372	REC_WORD	13.083	n/a	FARM	-999	19	[0, 0, 0]	n/a	FR1	3	R1111M
2145.137	16.208	1098735	REC_WORD	13.81	n/a	STOOL	-999	19	[0, 0, 0]	n/a	FR1	3	R1111M
2161.345	8.588	1106839	REC_END	n/a	n/a	n/a	-999	19	[0, 0, 0]	n/a	FR1	3	R1111M
2169.933	0.0	1111132	TRIAL	n/a	n/a	n/a	-999	20	[0, 0, 0]	n/a	FR1	3	R1111M
2169.933	10.0	1111132	COUNTDOWN_START	n/a	n/a	n/a	-999	20	[0, 0, 0]	n/a	FR1	3	R1111M
2180.361	0.008	1116346	COUNTDOWN_END	n/a	n/a	n/a	-999	20	[0, 0, 0]	n/a	FR1	3	R1111M
2180.369	1.6	1116350	ORIENT	n/a	n/a	n/a	-999	20	[0, 0, 0]	n/a	FR1	3	R1111M
2182.835	1.6	1117583	WORD	n/a	wordpools/wordpool_EN.txt	MOON	1	20	[0, 0, 0]	n/a	FR1	3	R1111M
2185.387	1.6	1118859	WORD	n/a	wordpools/wordpool_EN.txt	CASH	2	20	[0, 0, 0]	n/a	FR1	3	R1111M
2187.986	1.6	1120158	WORD	n/a	wordpools/wordpool_EN.txt	MAIL	3	20	[0, 0, 0]	n/a	FR1	3	R1111M
2190.454	1.6	1121392	WORD	n/a	wordpools/wordpool_EN.txt	BOMB	4	20	[0, 0, 0]	n/a	FR1	3	R1111M
2192.921	1.6	1122626	WORD	n/a	wordpools/wordpool_EN.txt	ICE	5	20	[0, 0, 0]	n/a	FR1	3	R1111M
2195.322	1.6	1123826	WORD	n/a	wordpools/wordpool_EN.txt	LEAF	6	20	[0, 0, 0]	n/a	FR1	3	R1111M
2197.938	1.6	1125134	WORD	n/a	wordpools/wordpool_EN.txt	MAP	7	20	[0, 0, 0]	n/a	FR1	3	R1111M
2200.307	1.6	1126319	WORD	n/a	wordpools/wordpool_EN.txt	FILM	8	20	[0, 0, 0]	n/a	FR1	3	R1111M
2202.889	1.6	1127609	WORD	n/a	wordpools/wordpool_EN.txt	FORT	9	20	[0, 0, 0]	n/a	FR1	3	R1111M
2205.291	1.6	1128810	WORD	n/a	wordpools/wordpool_EN.txt	TRUCK	10	20	[0, 0, 0]	n/a	FR1	3	R1111M
2207.674	1.6	1130002	WORD	n/a	wordpools/wordpool_EN.txt	CORD	11	20	[0, 0, 0]	n/a	FR1	3	R1111M
2210.075	1.6	1131202	WORD	n/a	wordpools/wordpool_EN.txt	OAR	12	20	[0, 0, 0]	n/a	FR1	3	R1111M
2211.691	0.001	1132010	DISTRACT_START	n/a	n/a	n/a	-999	20	[0, 0, 0]	n/a	FR1	3	R1111M
2211.692	0.015	1132011	START	n/a	n/a	n/a	-999	20	[-999, -999, -999]	n/a	FR1	3	R1111M
2211.707	5.436	1132018	PROB	5.416	n/a	n/a	-999	20	[4, 7, 4]	15.0	FR1	3	R1111M
2217.143	3.034	1134736	PROB	3.012	n/a	n/a	-999	20	[4, 5, 1]	10.0	FR1	3	R1111M
2220.177	5.683	1136253	PROB	5.649	n/a	n/a	-999	20	[9, 6, 2]	17.0	FR1	3	R1111M
2225.86	3.652	1139094	PROB	3.631	n/a	n/a	-999	20	[3, 7, 5]	15.0	FR1	3	R1111M
2229.512	5.266	1140920	PROB	5.266	n/a	n/a	-999	20	[2, 3, 2]	7.0	FR1	3	R1111M
2234.778	0.017	1143553	STOP	n/a	n/a	n/a	-999	20	[-999, -999, -999]	n/a	FR1	3	R1111M
2234.795	1.085	1143562	DISTRACT_END	n/a	n/a	n/a	-999	20	[0, 0, 0]	n/a	FR1	3	R1111M
2235.88	2.109	1144104	REC_START	n/a	n/a	n/a	-999	20	[0, 0, 0]	n/a	FR1	3	R1111M
2237.989	2.26	1145158	REC_WORD	2.109	n/a	MOON	-999	20	[0, 0, 0]	n/a	FR1	3	R1111M
2240.249	5.07	1146288	REC_WORD	4.369	n/a	TRUCK	-999	20	[0, 0, 0]	n/a	FR1	3	R1111M
2245.319	0.959	1148823	REC_WORD	9.439	n/a	CASH	-999	20	[0, 0, 0]	n/a	FR1	3	R1111M
2246.278	0.87	1149303	REC_WORD	10.398	n/a	MAIL	-999	20	[0, 0, 0]	n/a	FR1	3	R1111M
2247.148	1.474	1149738	REC_WORD	11.268	n/a	BOMB	-999	20	[0, 0, 0]	n/a	FR1	3	R1111M
2248.622	0.592	1150475	REC_WORD	12.742	n/a	ICE	-999	20	[0, 0, 0]	n/a	FR1	3	R1111M
2249.214	2.421	1150771	REC_WORD	13.334	n/a	LEAF	-999	20	[0, 0, 0]	n/a	FR1	3	R1111M
2251.635	2.776	1151981	REC_WORD	15.755	n/a	FILM	-999	20	[0, 0, 0]	n/a	FR1	3	R1111M
2254.411	11.482	1153369	REC_WORD	18.531	n/a	FORT	-999	20	[0, 0, 0]	n/a	FR1	3	R1111M
2265.893	13.094	1159110	REC_END	n/a	n/a	n/a	-999	20	[0, 0, 0]	n/a	FR1	3	R1111M
2278.987	10.0	1165656	COUNTDOWN_START	n/a	n/a	n/a	-999	21	[0, 0, 0]	n/a	FR1	3	R1111M
2278.988	0.0	1165657	TRIAL	n/a	n/a	n/a	-999	21	[0, 0, 0]	n/a	FR1	3	R1111M
