onset	duration	sample	trial_type	response_time	stim_file	item_name	serialpos	list	test	answer	experiment	session	subject
0.0	202.673	1970	INSTRUCT_START	n/a	n/a	n/a	-999	-999	[0, 0, 0]	n/a	FR1	0	R1364C
202.673	2.802	204633	INSTRUCT_END	n/a	n/a	n/a	-999	-999	[0, 0, 0]	n/a	FR1	0	R1364C
205.475	10.691	207435	MIC TEST_START	n/a	n/a	n/a	-999	-999	[0, 0, 0]	n/a	FR1	0	R1364C
216.166	0.01	218125	MIC TEST_END	n/a	n/a	n/a	-999	-999	[0, 0, 0]	n/a	FR1	0	R1364C
216.176	0.001	218135	TRIAL_START	n/a	n/a	n/a	-999	-1	[0, 0, 0]	n/a	FR1	0	R1364C
216.177	0.0	218136	TRIAL	n/a	n/a	n/a	-999	-1	[0, 0, 0]	n/a	FR1	0	R1364C
216.177	2.449	218136	WAITING_START	n/a	n/a	n/a	-999	-1	[0, 0, 0]	n/a	FR1	0	R1364C
218.626	0.001	220585	WAITING_END	n/a	n/a	n/a	-999	-1	[0, 0, 0]	n/a	FR1	0	R1364C
218.627	10.0	220586	COUNTDOWN_START	n/a	n/a	n/a	-999	-1	[0, 0, 0]	n/a	FR1	0	R1364C
229.056	0.0	231014	COUNTDOWN_END	n/a	n/a	n/a	-999	-1	[0, 0, 0]	n/a	FR1	0	R1364C
229.056	1.107	231014	ORIENT_START	n/a	n/a	n/a	-999	-1	[0, 0, 0]	n/a	FR1	0	R1364C
230.163	0.0	232121	ORIENT_END	n/a	n/a	n/a	-999	-1	[0, 0, 0]	n/a	FR1	0	R1364C
230.163	0.83	232121	ENCODING_START	n/a	n/a	n/a	-999	-1	[0, 0, 0]	n/a	FR1	0	R1364C
230.993	1.6	232951	WORD	n/a	n/a	WAGON	1	-1	[0, 0, 0]	n/a	FR1	0	R1364C
232.629	0.766	234587	WORD_OFF	n/a	n/a	WAGON	1	-1	[0, 0, 0]	n/a	FR1	0	R1364C
233.395	1.6	235353	WORD	n/a	n/a	TONGUE	2	-1	[0, 0, 0]	n/a	FR1	0	R1364C
235.03	1.124	236988	WORD_OFF	n/a	n/a	TONGUE	2	-1	[0, 0, 0]	n/a	FR1	0	R1364C
236.154	1.6	238112	WORD	n/a	n/a	CHEST	3	-1	[0, 0, 0]	n/a	FR1	0	R1364C
237.78	1.067	239738	WORD_OFF	n/a	n/a	CHEST	3	-1	[0, 0, 0]	n/a	FR1	0	R1364C
238.847	1.6	240805	WORD	n/a	n/a	RHINO	4	-1	[0, 0, 0]	n/a	FR1	0	R1364C
240.481	0.864	242439	WORD_OFF	n/a	n/a	RHINO	4	-1	[0, 0, 0]	n/a	FR1	0	R1364C
241.345	1.6	243303	WORD	n/a	n/a	WATCH	5	-1	[0, 0, 0]	n/a	FR1	0	R1364C
242.981	0.863	244939	WORD_OFF	n/a	n/a	WATCH	5	-1	[0, 0, 0]	n/a	FR1	0	R1364C
243.844	1.6	245802	WORD	n/a	n/a	COTTON	6	-1	[0, 0, 0]	n/a	FR1	0	R1364C
245.482	0.757	247440	WORD_OFF	n/a	n/a	COTTON	6	-1	[0, 0, 0]	n/a	FR1	0	R1364C
246.239	1.6	248197	WORD	n/a	n/a	FLOOD	7	-1	[0, 0, 0]	n/a	FR1	0	R1364C
247.865	0.852	249823	WORD_OFF	n/a	n/a	FLOOD	7	-1	[0, 0, 0]	n/a	FR1	0	R1364C
248.717	1.6	250674	WORD	n/a	n/a	IMAGE	8	-1	[0, 0, 0]	n/a	FR1	0	R1364C
250.35	0.982	252307	WORD_OFF	n/a	n/a	IMAGE	8	-1	[0, 0, 0]	n/a	FR1	0	R1364C
251.332	1.6	253289	WORD	n/a	n/a	BABY	9	-1	[0, 0, 0]	n/a	FR1	0	R1364C
252.966	1.023	254923	WORD_OFF	n/a	n/a	BABY	9	-1	[0, 0, 0]	n/a	FR1	0	R1364C
253.989	1.6	255946	WORD	n/a	n/a	CAMEL	10	-1	[0, 0, 0]	n/a	FR1	0	R1364C
255.616	1.068	257573	WORD_OFF	n/a	n/a	CAMEL	10	-1	[0, 0, 0]	n/a	FR1	0	R1364C
256.684	1.6	258641	WORD	n/a	n/a	BEAM	11	-1	[0, 0, 0]	n/a	FR1	0	R1364C
258.318	0.951	260275	WORD_OFF	n/a	n/a	BEAM	11	-1	[0, 0, 0]	n/a	FR1	0	R1364C
259.269	1.6	261226	WORD	n/a	n/a	RING	12	-1	[0, 0, 0]	n/a	FR1	0	R1364C
260.901	0.0	262858	WORD_OFF	n/a	n/a	RING	12	-1	[0, 0, 0]	n/a	FR1	0	R1364C
260.901	0.001	262858	ENCODING_END	n/a	n/a	n/a	-999	-1	[0, 0, 0]	n/a	FR1	0	R1364C
260.902	0.0	262859	DISTRACT_START	n/a	n/a	n/a	-999	-1	[0, 0, 0]	n/a	FR1	0	R1364C
260.902	0.015	262859	START	n/a	n/a	n/a	-999	-1	[-999, -999, -999]	n/a	FR1	0	R1364C
260.917	9.336	262874	PROB	9.31	n/a	n/a	-999	-1	[7, 2, 6]	15.0	FR1	0	R1364C
270.253	4.934	272209	PROB	4.911	n/a	n/a	-999	-1	[1, 1, 8]	10.0	FR1	0	R1364C
275.187	5.285	277143	PROB	5.257	n/a	n/a	-999	-1	[3, 9, 5]	17.0	FR1	0	R1364C
280.472	4.091	282428	PROB	4.091	n/a	n/a	-999	-1	[6, 4, 4]	14.0	FR1	0	R1364C
284.563	0.009	286519	STOP	n/a	n/a	n/a	-999	-1	[-999, -999, -999]	n/a	FR1	0	R1364C
284.572	0.608	286528	DISTRACT_END	n/a	n/a	n/a	-999	-1	[0, 0, 0]	n/a	FR1	0	R1364C
285.18	1.6	287136	RETRIEVAL_ORIENT_START	n/a	n/a	n/a	-999	-1	[0, 0, 0]	n/a	FR1	0	R1364C
286.872	0.001	288827	RETRIEVAL_ORIENT_END	n/a	n/a	n/a	-999	-1	[0, 0, 0]	n/a	FR1	0	R1364C
286.873	1.176	288828	REC_START	n/a	n/a	n/a	-999	-1	[0, 0, 0]	n/a	FR1	0	R1364C
288.049	0.813	290004	REC_WORD	1.176	n/a	WAGON	-999	-1	[0, 0, 0]	n/a	FR1	0	R1364C
288.862	0.872	290817	REC_WORD	1.989	n/a	TONGUE	-999	-1	[0, 0, 0]	n/a	FR1	0	R1364C
289.734	1.228	291689	REC_WORD	2.861	n/a	CHEST	-999	-1	[0, 0, 0]	n/a	FR1	0	R1364C
290.962	1.786	292917	REC_WORD	4.089	n/a	RHINO	-999	-1	[0, 0, 0]	n/a	FR1	0	R1364C
292.748	2.969	294703	REC_WORD	5.875	n/a	CAMEL	-999	-1	[0, 0, 0]	n/a	FR1	0	R1364C
295.717	14.644	297672	REC_WORD	8.844	n/a	RING	-999	-1	[0, 0, 0]	n/a	FR1	0	R1364C
310.361	6.523	312315	REC_WORD	23.488	n/a	WAGON	-999	-1	[0, 0, 0]	n/a	FR1	0	R1364C
316.884	0.0	318838	REC_END	n/a	n/a	n/a	-999	-1	[0, 0, 0]	n/a	FR1	0	R1364C
316.884	47.454	318838	PRACTICE_POST_INSTRUCT_START	n/a	n/a	n/a	-999	-1	[0, 0, 0]	n/a	FR1	0	R1364C
364.338	0.001	366289	PRACTICE_POST_INSTRUCT_END	n/a	n/a	n/a	-999	-1	[0, 0, 0]	n/a	FR1	0	R1364C
364.339	0.016	366290	TRIAL_END	n/a	n/a	n/a	-999	-1	[0, 0, 0]	n/a	FR1	0	R1364C
364.355	0.0	366306	TRIAL_START	n/a	n/a	n/a	-999	1	[0, 0, 0]	n/a	FR1	0	R1364C
364.355	0.0	366306	TRIAL	n/a	n/a	n/a	-999	1	[0, 0, 0]	n/a	FR1	0	R1364C
364.355	2.399	366306	WAITING_START	n/a	n/a	n/a	-999	1	[0, 0, 0]	n/a	FR1	0	R1364C
366.754	10.0	368705	COUNTDOWN_START	n/a	n/a	n/a	-999	1	[0, 0, 0]	n/a	FR1	0	R1364C
366.754	10.43	368705	WAITING_END	n/a	n/a	n/a	-999	1	[0, 0, 0]	n/a	FR1	0	R1364C
377.184	0.001	379135	COUNTDOWN_END	n/a	n/a	n/a	-999	1	[0, 0, 0]	n/a	FR1	0	R1364C
377.185	1.122	379136	ORIENT_START	n/a	n/a	n/a	-999	1	[0, 0, 0]	n/a	FR1	0	R1364C
378.307	0.001	380258	ORIENT_END	n/a	n/a	n/a	-999	1	[0, 0, 0]	n/a	FR1	0	R1364C
378.308	0.75	380259	ENCODING_START	n/a	n/a	n/a	-999	1	[0, 0, 0]	n/a	FR1	0	R1364C
379.058	1.6	381009	WORD	n/a	wordpools/wordpool_EN.txt	SNOW	1	1	[0, 0, 0]	n/a	FR1	0	R1364C
380.69	1.141	382641	WORD_OFF	n/a	n/a	SNOW	1	1	[0, 0, 0]	n/a	FR1	0	R1364C
381.831	1.6	383782	WORD	n/a	wordpools/wordpool_EN.txt	MAT	2	1	[0, 0, 0]	n/a	FR1	0	R1364C
383.458	0.883	385408	WORD_OFF	n/a	n/a	MAT	2	1	[0, 0, 0]	n/a	FR1	0	R1364C
384.341	1.6	386291	WORD	n/a	wordpools/wordpool_EN.txt	HOOF	3	1	[0, 0, 0]	n/a	FR1	0	R1364C
385.974	0.903	387924	WORD_OFF	n/a	n/a	HOOF	3	1	[0, 0, 0]	n/a	FR1	0	R1364C
386.877	1.6	388827	WORD	n/a	wordpools/wordpool_EN.txt	HEN	4	1	[0, 0, 0]	n/a	FR1	0	R1364C
388.509	1.016	390459	WORD_OFF	n/a	n/a	HEN	4	1	[0, 0, 0]	n/a	FR1	0	R1364C
389.525	1.6	391475	WORD	n/a	wordpools/wordpool_EN.txt	YARD	5	1	[0, 0, 0]	n/a	FR1	0	R1364C
391.159	0.987	393109	WORD_OFF	n/a	n/a	YARD	5	1	[0, 0, 0]	n/a	FR1	0	R1364C
392.146	1.6	394096	WORD	n/a	wordpools/wordpool_EN.txt	GLOVE	6	1	[0, 0, 0]	n/a	FR1	0	R1364C
393.776	1.02	395726	WORD_OFF	n/a	n/a	GLOVE	6	1	[0, 0, 0]	n/a	FR1	0	R1364C
394.796	1.6	396746	WORD	n/a	wordpools/wordpool_EN.txt	ICE	7	1	[0, 0, 0]	n/a	FR1	0	R1364C
396.427	1.099	398377	WORD_OFF	n/a	n/a	ICE	7	1	[0, 0, 0]	n/a	FR1	0	R1364C
397.526	1.6	399476	WORD	n/a	wordpools/wordpool_EN.txt	WORLD	8	1	[0, 0, 0]	n/a	FR1	0	R1364C
399.161	0.796	401111	WORD_OFF	n/a	n/a	WORLD	8	1	[0, 0, 0]	n/a	FR1	0	R1364C
399.957	1.6	401907	WORD	n/a	wordpools/wordpool_EN.txt	CAVE	9	1	[0, 0, 0]	n/a	FR1	0	R1364C
401.594	0.999	403544	WORD_OFF	n/a	n/a	CAVE	9	1	[0, 0, 0]	n/a	FR1	0	R1364C
402.593	1.6	404543	WORD	n/a	wordpools/wordpool_EN.txt	LAMB	10	1	[0, 0, 0]	n/a	FR1	0	R1364C
404.228	0.872	406177	WORD_OFF	n/a	n/a	LAMB	10	1	[0, 0, 0]	n/a	FR1	0	R1364C
405.1	1.6	407049	WORD	n/a	wordpools/wordpool_EN.txt	TIE	11	1	[0, 0, 0]	n/a	FR1	0	R1364C
406.728	1.062	408677	WORD_OFF	n/a	n/a	TIE	11	1	[0, 0, 0]	n/a	FR1	0	R1364C
407.79	1.6	409739	WORD	n/a	wordpools/wordpool_EN.txt	SHEET	12	1	[0, 0, 0]	n/a	FR1	0	R1364C
409.413	0.0	411362	ENCODING_END	n/a	n/a	n/a	-999	1	[0, 0, 0]	n/a	FR1	0	R1364C
409.413	0.001	411362	WORD_OFF	n/a	n/a	SHEET	12	1	[0, 0, 0]	n/a	FR1	0	R1364C
409.414	0.0	411363	DISTRACT_START	n/a	n/a	n/a	-999	1	[0, 0, 0]	n/a	FR1	0	R1364C
409.414	0.015	411363	START	n/a	n/a	n/a	-999	1	[-999, -999, -999]	n/a	FR1	0	R1364C
409.429	5.1	411378	PROB	5.075	n/a	n/a	-999	1	[6, 1, 5]	12.0	FR1	0	R1364C
414.529	3.602	416478	PROB	3.567	n/a	n/a	-999	1	[2, 1, 8]	11.0	FR1	0	R1364C
418.131	5.7	420080	PROB	5.661	n/a	n/a	-999	1	[1, 6, 3]	10.0	FR1	0	R1364C
423.831	5.235	425779	PROB	5.209	n/a	n/a	-999	1	[4, 8, 3]	15.0	FR1	0	R1364C
429.066	4.983	431014	PROB	4.983	n/a	n/a	-999	1	[7, 4, 3]	14.0	FR1	0	R1364C
434.049	0.018	435997	STOP	n/a	n/a	n/a	-999	1	[-999, -999, -999]	n/a	FR1	0	R1364C
434.067	0.586	436015	DISTRACT_END	n/a	n/a	n/a	-999	1	[0, 0, 0]	n/a	FR1	0	R1364C
434.653	1.6	436601	RETRIEVAL_ORIENT_START	n/a	n/a	n/a	-999	1	[0, 0, 0]	n/a	FR1	0	R1364C
436.218	0.0	438166	RETRIEVAL_ORIENT_END	n/a	n/a	n/a	-999	1	[0, 0, 0]	n/a	FR1	0	R1364C
436.218	0.612	438166	REC_START	n/a	n/a	n/a	-999	1	[0, 0, 0]	n/a	FR1	0	R1364C
436.83	0.627	438778	REC_WORD	0.612	n/a	HOOF	3	1	[0, 0, 0]	n/a	FR1	0	R1364C
437.457	2.858	439405	REC_WORD	1.239	n/a	HEN	4	1	[0, 0, 0]	n/a	FR1	0	R1364C
440.315	0.851	442263	REC_WORD	4.097	n/a	LAMB	10	1	[0, 0, 0]	n/a	FR1	0	R1364C
441.166	1.363	443114	REC_WORD	4.948	n/a	SNOW	1	1	[0, 0, 0]	n/a	FR1	0	R1364C
442.529	1.977	444476	REC_WORD	6.311	n/a	ICE	7	1	[0, 0, 0]	n/a	FR1	0	R1364C
444.506	2.192	446453	REC_WORD	8.288	n/a	WORLD	8	1	[0, 0, 0]	n/a	FR1	0	R1364C
446.698	1.913	448645	REC_WORD	10.48	n/a	CAVE	9	1	[0, 0, 0]	n/a	FR1	0	R1364C
448.611	9.349	450558	REC_WORD	12.393	n/a	GLOVE	6	1	[0, 0, 0]	n/a	FR1	0	R1364C
457.96	8.27	459907	REC_WORD	21.742	n/a	CAVE	9	1	[0, 0, 0]	n/a	FR1	0	R1364C
466.23	0.0	468176	REC_END	n/a	n/a	n/a	-999	1	[0, 0, 0]	n/a	FR1	0	R1364C
466.23	0.015	468176	TRIAL_END	n/a	n/a	n/a	-999	1	[0, 0, 0]	n/a	FR1	0	R1364C
466.245	0.0	468191	TRIAL	n/a	n/a	n/a	-999	2	[0, 0, 0]	n/a	FR1	0	R1364C
466.245	0.0	468191	WAITING_START	n/a	n/a	n/a	-999	2	[0, 0, 0]	n/a	FR1	0	R1364C
466.245	14.815	468191	TRIAL_START	n/a	n/a	n/a	-999	2	[0, 0, 0]	n/a	FR1	0	R1364C
481.06	0.0	483005	WAITING_END	n/a	n/a	n/a	-999	2	[0, 0, 0]	n/a	FR1	0	R1364C
481.06	10.0	483005	COUNTDOWN_START	n/a	n/a	n/a	-999	2	[0, 0, 0]	n/a	FR1	0	R1364C
491.49	0.0	493435	COUNTDOWN_END	n/a	n/a	n/a	-999	2	[0, 0, 0]	n/a	FR1	0	R1364C
491.49	1.071	493435	ORIENT_START	n/a	n/a	n/a	-999	2	[0, 0, 0]	n/a	FR1	0	R1364C
492.561	0.0	494506	ORIENT_END	n/a	n/a	n/a	-999	2	[0, 0, 0]	n/a	FR1	0	R1364C
492.561	0.932	494506	ENCODING_START	n/a	n/a	n/a	-999	2	[0, 0, 0]	n/a	FR1	0	R1364C
493.493	1.6	495438	WORD	n/a	wordpools/wordpool_EN.txt	SHARK	1	2	[0, 0, 0]	n/a	FR1	0	R1364C
495.129	1.142	497074	WORD_OFF	n/a	n/a	SHARK	1	2	[0, 0, 0]	n/a	FR1	0	R1364C
496.271	1.6	498216	WORD	n/a	wordpools/wordpool_EN.txt	AXE	2	2	[0, 0, 0]	n/a	FR1	0	R1364C
497.895	1.069	499840	WORD_OFF	n/a	n/a	AXE	2	2	[0, 0, 0]	n/a	FR1	0	R1364C
498.964	1.6	500909	WORD	n/a	wordpools/wordpool_EN.txt	TREE	3	2	[0, 0, 0]	n/a	FR1	0	R1364C
500.596	0.84	502540	WORD_OFF	n/a	n/a	TREE	3	2	[0, 0, 0]	n/a	FR1	0	R1364C
501.436	1.6	503380	WORD	n/a	wordpools/wordpool_EN.txt	NAIL	4	2	[0, 0, 0]	n/a	FR1	0	R1364C
503.064	1.055	505008	WORD_OFF	n/a	n/a	NAIL	4	2	[0, 0, 0]	n/a	FR1	0	R1364C
504.119	1.6	506063	WORD	n/a	wordpools/wordpool_EN.txt	SLIME	5	2	[0, 0, 0]	n/a	FR1	0	R1364C
505.747	0.957	507691	WORD_OFF	n/a	n/a	SLIME	5	2	[0, 0, 0]	n/a	FR1	0	R1364C
506.704	1.6	508648	WORD	n/a	wordpools/wordpool_EN.txt	TEETH	6	2	[0, 0, 0]	n/a	FR1	0	R1364C
508.331	0.844	510275	WORD_OFF	n/a	n/a	TEETH	6	2	[0, 0, 0]	n/a	FR1	0	R1364C
509.175	1.6	511119	WORD	n/a	wordpools/wordpool_EN.txt	BRICK	7	2	[0, 0, 0]	n/a	FR1	0	R1364C
510.798	0.957	512742	WORD_OFF	n/a	n/a	BRICK	7	2	[0, 0, 0]	n/a	FR1	0	R1364C
511.755	1.6	513699	WORD	n/a	wordpools/wordpool_EN.txt	PIG	8	2	[0, 0, 0]	n/a	FR1	0	R1364C
513.382	1.071	515326	WORD_OFF	n/a	n/a	PIG	8	2	[0, 0, 0]	n/a	FR1	0	R1364C
514.453	1.6	516397	WORD	n/a	wordpools/wordpool_EN.txt	BOAT	9	2	[0, 0, 0]	n/a	FR1	0	R1364C
516.083	0.781	518027	WORD_OFF	n/a	n/a	BOAT	9	2	[0, 0, 0]	n/a	FR1	0	R1364C
516.864	1.6	518808	WORD	n/a	wordpools/wordpool_EN.txt	STICK	10	2	[0, 0, 0]	n/a	FR1	0	R1364C
518.5	0.892	520444	WORD_OFF	n/a	n/a	STICK	10	2	[0, 0, 0]	n/a	FR1	0	R1364C
519.392	1.6	521335	WORD	n/a	wordpools/wordpool_EN.txt	STORM	11	2	[0, 0, 0]	n/a	FR1	0	R1364C
521.017	0.894	522960	WORD_OFF	n/a	n/a	STORM	11	2	[0, 0, 0]	n/a	FR1	0	R1364C
521.911	1.6	523854	WORD	n/a	wordpools/wordpool_EN.txt	APE	12	2	[0, 0, 0]	n/a	FR1	0	R1364C
523.533	0.001	525476	WORD_OFF	n/a	n/a	APE	12	2	[0, 0, 0]	n/a	FR1	0	R1364C
523.534	0.0	525477	ENCODING_END	n/a	n/a	n/a	-999	2	[0, 0, 0]	n/a	FR1	0	R1364C
523.534	0.001	525477	DISTRACT_START	n/a	n/a	n/a	-999	2	[0, 0, 0]	n/a	FR1	0	R1364C
523.535	0.015	525478	START	n/a	n/a	n/a	-999	2	[-999, -999, -999]	n/a	FR1	0	R1364C
523.55	4.485	525493	PROB	4.46	n/a	n/a	-999	2	[1, 5, 7]	13.0	FR1	0	R1364C
528.035	3.467	529978	PROB	3.439	n/a	n/a	-999	2	[3, 2, 2]	7.0	FR1	0	R1364C
531.502	4.383	533445	PROB	4.355	n/a	n/a	-999	2	[3, 9, 3]	15.0	FR1	0	R1364C
535.885	4.169	537828	PROB	4.133	n/a	n/a	-999	2	[7, 6, 9]	22.0	FR1	0	R1364C
540.054	2.984	541996	PROB	2.957	n/a	n/a	-999	2	[2, 2, 9]	13.0	FR1	0	R1364C
543.038	3.835	544980	PROB	3.835	n/a	n/a	-999	2	[3, 5, 9]	17.0	FR1	0	R1364C
546.873	0.015	548815	STOP	n/a	n/a	n/a	-999	2	[-999, -999, -999]	n/a	FR1	0	R1364C
546.888	0.683	548830	DISTRACT_END	n/a	n/a	n/a	-999	2	[0, 0, 0]	n/a	FR1	0	R1364C
547.571	1.6	549513	RETRIEVAL_ORIENT_START	n/a	n/a	n/a	-999	2	[0, 0, 0]	n/a	FR1	0	R1364C
549.289	0.001	551231	RETRIEVAL_ORIENT_END	n/a	n/a	n/a	-999	2	[0, 0, 0]	n/a	FR1	0	R1364C
549.29	1.767	551232	REC_START	n/a	n/a	n/a	-999	2	[0, 0, 0]	n/a	FR1	0	R1364C
551.057	1.058	552999	REC_WORD	1.767	n/a	BOAT	9	2	[0, 0, 0]	n/a	FR1	0	R1364C
552.115	0.945	554057	REC_WORD	2.825	n/a	AXE	2	2	[0, 0, 0]	n/a	FR1	0	R1364C
553.06	2.03	555002	REC_WORD	3.77	n/a	SHARK	1	2	[0, 0, 0]	n/a	FR1	0	R1364C
555.09	1.306	557032	REC_WORD	5.8	n/a	NAIL	4	2	[0, 0, 0]	n/a	FR1	0	R1364C
556.396	2.89	558338	REC_WORD	7.106	n/a	TREE	3	2	[0, 0, 0]	n/a	FR1	0	R1364C
559.286	17.557	561227	REC_WORD	9.996	n/a	PIG	8	2	[0, 0, 0]	n/a	FR1	0	R1364C
576.843	2.459	578783	REC_WORD	27.553	n/a	BARN	-999	2	[0, 0, 0]	n/a	FR1	0	R1364C
579.302	0.0	581242	REC_END	n/a	n/a	n/a	-999	2	[0, 0, 0]	n/a	FR1	0	R1364C
579.302	0.015	581242	TRIAL_END	n/a	n/a	n/a	-999	2	[0, 0, 0]	n/a	FR1	0	R1364C
579.317	0.0	581257	TRIAL_START	n/a	n/a	n/a	-999	3	[0, 0, 0]	n/a	FR1	0	R1364C
579.317	0.0	581257	TRIAL	n/a	n/a	n/a	-999	3	[0, 0, 0]	n/a	FR1	0	R1364C
579.317	3.062	581257	WAITING_START	n/a	n/a	n/a	-999	3	[0, 0, 0]	n/a	FR1	0	R1364C
582.379	10.0	584319	COUNTDOWN_START	n/a	n/a	n/a	-999	3	[0, 0, 0]	n/a	FR1	0	R1364C
582.379	10.43	584319	WAITING_END	n/a	n/a	n/a	-999	3	[0, 0, 0]	n/a	FR1	0	R1364C
592.809	0.0	594749	COUNTDOWN_END	n/a	n/a	n/a	-999	3	[0, 0, 0]	n/a	FR1	0	R1364C
592.809	1.205	594749	ORIENT_START	n/a	n/a	n/a	-999	3	[0, 0, 0]	n/a	FR1	0	R1364C
594.014	0.001	595954	ORIENT_END	n/a	n/a	n/a	-999	3	[0, 0, 0]	n/a	FR1	0	R1364C
594.015	1.056	595955	ENCODING_START	n/a	n/a	n/a	-999	3	[0, 0, 0]	n/a	FR1	0	R1364C
595.071	1.6	597011	WORD	n/a	wordpools/wordpool_EN.txt	DRUM	1	3	[0, 0, 0]	n/a	FR1	0	R1364C
596.697	0.852	598636	WORD_OFF	n/a	n/a	DRUM	1	3	[0, 0, 0]	n/a	FR1	0	R1364C
597.549	1.6	599488	WORD	n/a	wordpools/wordpool_EN.txt	SEA	2	3	[0, 0, 0]	n/a	FR1	0	R1364C
599.182	0.766	601121	WORD_OFF	n/a	n/a	SEA	2	3	[0, 0, 0]	n/a	FR1	0	R1364C
599.948	1.6	601887	WORD	n/a	wordpools/wordpool_EN.txt	PARK	3	3	[0, 0, 0]	n/a	FR1	0	R1364C
601.581	1.059	603520	WORD_OFF	n/a	n/a	PARK	3	3	[0, 0, 0]	n/a	FR1	0	R1364C
602.64	1.6	604579	WORD	n/a	wordpools/wordpool_EN.txt	PHONE	4	3	[0, 0, 0]	n/a	FR1	0	R1364C
604.266	1.031	606205	WORD_OFF	n/a	n/a	PHONE	4	3	[0, 0, 0]	n/a	FR1	0	R1364C
605.297	1.6	607236	WORD	n/a	wordpools/wordpool_EN.txt	TEA	5	3	[0, 0, 0]	n/a	FR1	0	R1364C
606.932	1.02	608871	WORD_OFF	n/a	n/a	TEA	5	3	[0, 0, 0]	n/a	FR1	0	R1364C
607.952	1.6	609891	WORD	n/a	wordpools/wordpool_EN.txt	BAT	6	3	[0, 0, 0]	n/a	FR1	0	R1364C
609.583	0.779	611522	WORD_OFF	n/a	n/a	BAT	6	3	[0, 0, 0]	n/a	FR1	0	R1364C
610.362	1.6	612301	WORD	n/a	wordpools/wordpool_EN.txt	JAIL	7	3	[0, 0, 0]	n/a	FR1	0	R1364C
612.001	0.769	613940	WORD_OFF	n/a	n/a	JAIL	7	3	[0, 0, 0]	n/a	FR1	0	R1364C
612.77	1.6	614709	WORD	n/a	wordpools/wordpool_EN.txt	BOY	8	3	[0, 0, 0]	n/a	FR1	0	R1364C
614.401	0.957	616340	WORD_OFF	n/a	n/a	BOY	8	3	[0, 0, 0]	n/a	FR1	0	R1364C
615.358	1.6	617296	WORD	n/a	wordpools/wordpool_EN.txt	SINK	9	3	[0, 0, 0]	n/a	FR1	0	R1364C
616.986	1.073	618924	WORD_OFF	n/a	n/a	SINK	9	3	[0, 0, 0]	n/a	FR1	0	R1364C
618.059	1.6	619997	WORD	n/a	wordpools/wordpool_EN.txt	MOUSE	10	3	[0, 0, 0]	n/a	FR1	0	R1364C
619.685	1.034	621623	WORD_OFF	n/a	n/a	MOUSE	10	3	[0, 0, 0]	n/a	FR1	0	R1364C
620.719	1.6	622657	WORD	n/a	wordpools/wordpool_EN.txt	FACE	11	3	[0, 0, 0]	n/a	FR1	0	R1364C
622.353	0.793	624291	WORD_OFF	n/a	n/a	FACE	11	3	[0, 0, 0]	n/a	FR1	0	R1364C
623.146	1.6	625084	WORD	n/a	wordpools/wordpool_EN.txt	HOUSE	12	3	[0, 0, 0]	n/a	FR1	0	R1364C
624.769	0.0	626707	ENCODING_END	n/a	n/a	n/a	-999	3	[0, 0, 0]	n/a	FR1	0	R1364C
624.769	0.001	626707	WORD_OFF	n/a	n/a	HOUSE	12	3	[0, 0, 0]	n/a	FR1	0	R1364C
624.77	0.0	626708	DISTRACT_START	n/a	n/a	n/a	-999	3	[0, 0, 0]	n/a	FR1	0	R1364C
624.77	0.015	626708	START	n/a	n/a	n/a	-999	3	[-999, -999, -999]	n/a	FR1	0	R1364C
624.785	8.453	626723	PROB	8.425	n/a	n/a	-999	3	[5, 9, 6]	20.0	FR1	0	R1364C
633.238	4.366	635176	PROB	4.339	n/a	n/a	-999	3	[5, 8, 1]	14.0	FR1	0	R1364C
637.604	4.251	639541	PROB	4.221	n/a	n/a	-999	3	[8, 1, 5]	14.0	FR1	0	R1364C
641.855	3.595	643792	PROB	3.595	n/a	n/a	-999	3	[5, 6, 2]	13.0	FR1	0	R1364C
645.45	0.007	647387	STOP	n/a	n/a	n/a	-999	3	[-999, -999, -999]	n/a	FR1	0	R1364C
645.457	0.618	647394	DISTRACT_END	n/a	n/a	n/a	-999	3	[0, 0, 0]	n/a	FR1	0	R1364C
646.075	1.6	648012	RETRIEVAL_ORIENT_START	n/a	n/a	n/a	-999	3	[0, 0, 0]	n/a	FR1	0	R1364C
647.673	0.001	649610	RETRIEVAL_ORIENT_END	n/a	n/a	n/a	-999	3	[0, 0, 0]	n/a	FR1	0	R1364C
647.674	2.699	649611	REC_START	n/a	n/a	n/a	-999	3	[0, 0, 0]	n/a	FR1	0	R1364C
650.373	1.486	652310	REC_WORD	2.699	n/a	SEA	2	3	[0, 0, 0]	n/a	FR1	0	R1364C
651.859	4.126	653796	REC_WORD	4.185	n/a	TEA	5	3	[0, 0, 0]	n/a	FR1	0	R1364C
655.985	1.048	657921	REC_WORD	8.311	n/a	MOUSE	10	3	[0, 0, 0]	n/a	FR1	0	R1364C
657.033	17.116	658969	REC_WORD	9.359	n/a	HOUSE	12	3	[0, 0, 0]	n/a	FR1	0	R1364C
674.149	3.536	676084	REC_WORD	26.475	n/a	DRUM	1	3	[0, 0, 0]	n/a	FR1	0	R1364C
677.685	0.0	679620	REC_END	n/a	n/a	n/a	-999	3	[0, 0, 0]	n/a	FR1	0	R1364C
677.685	0.017	679620	TRIAL_END	n/a	n/a	n/a	-999	3	[0, 0, 0]	n/a	FR1	0	R1364C
677.702	0.0	679637	TRIAL_START	n/a	n/a	n/a	-999	4	[0, 0, 0]	n/a	FR1	0	R1364C
677.702	0.0	679637	TRIAL	n/a	n/a	n/a	-999	4	[0, 0, 0]	n/a	FR1	0	R1364C
677.702	2.495	679637	WAITING_START	n/a	n/a	n/a	-999	4	[0, 0, 0]	n/a	FR1	0	R1364C
680.197	0.0	682132	WAITING_END	n/a	n/a	n/a	-999	4	[0, 0, 0]	n/a	FR1	0	R1364C
680.197	10.0	682132	COUNTDOWN_START	n/a	n/a	n/a	-999	4	[0, 0, 0]	n/a	FR1	0	R1364C
690.627	0.0	692562	ORIENT_START	n/a	n/a	n/a	-999	4	[0, 0, 0]	n/a	FR1	0	R1364C
690.627	1.188	692562	COUNTDOWN_END	n/a	n/a	n/a	-999	4	[0, 0, 0]	n/a	FR1	0	R1364C
691.815	0.0	693750	ORIENT_END	n/a	n/a	n/a	-999	4	[0, 0, 0]	n/a	FR1	0	R1364C
691.815	1.096	693750	ENCODING_START	n/a	n/a	n/a	-999	4	[0, 0, 0]	n/a	FR1	0	R1364C
692.911	1.6	694845	WORD	n/a	wordpools/wordpool_EN.txt	SHIELD	1	4	[0, 0, 0]	n/a	FR1	0	R1364C
694.549	0.919	696483	WORD_OFF	n/a	n/a	SHIELD	1	4	[0, 0, 0]	n/a	FR1	0	R1364C
695.468	1.6	697402	WORD	n/a	wordpools/wordpool_EN.txt	MULE	2	4	[0, 0, 0]	n/a	FR1	0	R1364C
697.1	1.013	699034	WORD_OFF	n/a	n/a	MULE	2	4	[0, 0, 0]	n/a	FR1	0	R1364C
698.113	1.6	700047	WORD	n/a	wordpools/wordpool_EN.txt	TOOTH	3	4	[0, 0, 0]	n/a	FR1	0	R1364C
699.75	1.068	701684	WORD_OFF	n/a	n/a	TOOTH	3	4	[0, 0, 0]	n/a	FR1	0	R1364C
700.818	1.6	702752	WORD	n/a	wordpools/wordpool_EN.txt	WORM	4	4	[0, 0, 0]	n/a	FR1	0	R1364C
702.451	1.122	704385	WORD_OFF	n/a	n/a	WORM	4	4	[0, 0, 0]	n/a	FR1	0	R1364C
703.573	1.6	705507	WORD	n/a	wordpools/wordpool_EN.txt	FOG	5	4	[0, 0, 0]	n/a	FR1	0	R1364C
705.202	0.765	707136	WORD_OFF	n/a	n/a	FOG	5	4	[0, 0, 0]	n/a	FR1	0	R1364C
705.967	1.6	707901	WORD	n/a	wordpools/wordpool_EN.txt	RUG	6	4	[0, 0, 0]	n/a	FR1	0	R1364C
707.601	1.044	709535	WORD_OFF	n/a	n/a	RUG	6	4	[0, 0, 0]	n/a	FR1	0	R1364C
708.645	1.6	710579	WORD	n/a	wordpools/wordpool_EN.txt	DRESS	7	4	[0, 0, 0]	n/a	FR1	0	R1364C
710.269	1.026	712203	WORD_OFF	n/a	n/a	DRESS	7	4	[0, 0, 0]	n/a	FR1	0	R1364C
711.295	1.6	713229	WORD	n/a	wordpools/wordpool_EN.txt	TAIL	8	4	[0, 0, 0]	n/a	FR1	0	R1364C
712.919	0.96	714852	WORD_OFF	n/a	n/a	TAIL	8	4	[0, 0, 0]	n/a	FR1	0	R1364C
713.879	1.6	715812	WORD	n/a	wordpools/wordpool_EN.txt	SKUNK	9	4	[0, 0, 0]	n/a	FR1	0	R1364C
715.504	1.076	717437	WORD_OFF	n/a	n/a	SKUNK	9	4	[0, 0, 0]	n/a	FR1	0	R1364C
716.58	1.6	718513	WORD	n/a	wordpools/wordpool_EN.txt	SPEAR	10	4	[0, 0, 0]	n/a	FR1	0	R1364C
718.204	1.077	720137	WORD_OFF	n/a	n/a	SPEAR	10	4	[0, 0, 0]	n/a	FR1	0	R1364C
719.281	1.6	721214	WORD	n/a	wordpools/wordpool_EN.txt	SKY	11	4	[0, 0, 0]	n/a	FR1	0	R1364C
720.904	0.835	722837	WORD_OFF	n/a	n/a	SKY	11	4	[0, 0, 0]	n/a	FR1	0	R1364C
721.739	1.6	723672	WORD	n/a	wordpools/wordpool_EN.txt	LOCK	12	4	[0, 0, 0]	n/a	FR1	0	R1364C
723.372	0.0	725305	WORD_OFF	n/a	n/a	LOCK	12	4	[0, 0, 0]	n/a	FR1	0	R1364C
723.372	0.001	725305	ENCODING_END	n/a	n/a	n/a	-999	4	[0, 0, 0]	n/a	FR1	0	R1364C
723.373	0.0	725306	DISTRACT_START	n/a	n/a	n/a	-999	4	[0, 0, 0]	n/a	FR1	0	R1364C
723.373	0.015	725306	START	n/a	n/a	n/a	-999	4	[-999, -999, -999]	n/a	FR1	0	R1364C
723.388	4.417	725321	PROB	4.38	n/a	n/a	-999	4	[3, 8, 3]	14.0	FR1	0	R1364C
727.805	2.133	729738	PROB	2.107	n/a	n/a	-999	4	[4, 6, 2]	12.0	FR1	0	R1364C
729.938	3.834	731871	PROB	3.798	n/a	n/a	-999	4	[2, 4, 9]	15.0	FR1	0	R1364C
733.772	5.536	735704	PROB	5.509	n/a	n/a	-999	4	[7, 7, 5]	19.0	FR1	0	R1364C
739.308	4.0	741240	PROB	3.965	n/a	n/a	-999	4	[1, 8, 6]	15.0	FR1	0	R1364C
743.308	3.069	745240	PROB	3.069	n/a	n/a	-999	4	[6, 9, 2]	17.0	FR1	0	R1364C
746.377	0.016	748309	STOP	n/a	n/a	n/a	-999	4	[-999, -999, -999]	n/a	FR1	0	R1364C
746.393	0.509	748325	DISTRACT_END	n/a	n/a	n/a	-999	4	[0, 0, 0]	n/a	FR1	0	R1364C
746.902	1.6	748834	RETRIEVAL_ORIENT_START	n/a	n/a	n/a	-999	4	[0, 0, 0]	n/a	FR1	0	R1364C
748.46	0.0	750392	RETRIEVAL_ORIENT_END	n/a	n/a	n/a	-999	4	[0, 0, 0]	n/a	FR1	0	R1364C
748.46	1.28	750392	REC_START	n/a	n/a	n/a	-999	4	[0, 0, 0]	n/a	FR1	0	R1364C
749.74	1.611	751672	REC_WORD	1.28	n/a	TOOTH	3	4	[0, 0, 0]	n/a	FR1	0	R1364C
751.351	6.922	753282	REC_WORD	2.891	n/a	WORM	4	4	[0, 0, 0]	n/a	FR1	0	R1364C
758.273	20.199	760204	REC_WORD	9.813	n/a	SNAIL	-999	4	[0, 0, 0]	n/a	FR1	0	R1364C
778.472	0.0	780402	REC_END	n/a	n/a	n/a	-999	4	[0, 0, 0]	n/a	FR1	0	R1364C
778.472	0.014	780402	TRIAL_END	n/a	n/a	n/a	-999	4	[0, 0, 0]	n/a	FR1	0	R1364C
778.486	0.0	780416	TRIAL	n/a	n/a	n/a	-999	5	[0, 0, 0]	n/a	FR1	0	R1364C
778.486	0.001	780416	TRIAL_START	n/a	n/a	n/a	-999	5	[0, 0, 0]	n/a	FR1	0	R1364C
778.487	7.329	780417	WAITING_START	n/a	n/a	n/a	-999	5	[0, 0, 0]	n/a	FR1	0	R1364C
785.816	0.0	787746	WAITING_END	n/a	n/a	n/a	-999	5	[0, 0, 0]	n/a	FR1	0	R1364C
785.816	10.0	787746	COUNTDOWN_START	n/a	n/a	n/a	-999	5	[0, 0, 0]	n/a	FR1	0	R1364C
796.245	0.001	798174	COUNTDOWN_END	n/a	n/a	n/a	-999	5	[0, 0, 0]	n/a	FR1	0	R1364C
796.246	1.223	798175	ORIENT_START	n/a	n/a	n/a	-999	5	[0, 0, 0]	n/a	FR1	0	R1364C
797.469	0.0	799398	ORIENT_END	n/a	n/a	n/a	-999	5	[0, 0, 0]	n/a	FR1	0	R1364C
797.469	0.81	799398	ENCODING_START	n/a	n/a	n/a	-999	5	[0, 0, 0]	n/a	FR1	0	R1364C
798.279	1.6	800208	WORD	n/a	wordpools/wordpool_EN.txt	MOUTH	1	5	[0, 0, 0]	n/a	FR1	0	R1364C
799.902	0.973	801831	WORD_OFF	n/a	n/a	MOUTH	1	5	[0, 0, 0]	n/a	FR1	0	R1364C
800.875	1.6	802804	WORD	n/a	wordpools/wordpool_EN.txt	CALF	2	5	[0, 0, 0]	n/a	FR1	0	R1364C
802.503	0.947	804432	WORD_OFF	n/a	n/a	CALF	2	5	[0, 0, 0]	n/a	FR1	0	R1364C
803.45	1.6	805379	WORD	n/a	wordpools/wordpool_EN.txt	SUIT	3	5	[0, 0, 0]	n/a	FR1	0	R1364C
805.087	0.994	807016	WORD_OFF	n/a	n/a	SUIT	3	5	[0, 0, 0]	n/a	FR1	0	R1364C
806.081	1.6	808010	WORD	n/a	wordpools/wordpool_EN.txt	JUDGE	4	5	[0, 0, 0]	n/a	FR1	0	R1364C
807.703	0.79	809632	WORD_OFF	n/a	n/a	JUDGE	4	5	[0, 0, 0]	n/a	FR1	0	R1364C
808.493	1.6	810422	WORD	n/a	wordpools/wordpool_EN.txt	PASTE	5	5	[0, 0, 0]	n/a	FR1	0	R1364C
810.121	0.773	812049	WORD_OFF	n/a	n/a	PASTE	5	5	[0, 0, 0]	n/a	FR1	0	R1364C
810.894	1.6	812822	WORD	n/a	wordpools/wordpool_EN.txt	SMILE	6	5	[0, 0, 0]	n/a	FR1	0	R1364C
812.505	0.893	814433	WORD_OFF	n/a	n/a	SMILE	6	5	[0, 0, 0]	n/a	FR1	0	R1364C
813.398	1.6	815326	WORD	n/a	wordpools/wordpool_EN.txt	RICE	7	5	[0, 0, 0]	n/a	FR1	0	R1364C
815.022	1.144	816950	WORD_OFF	n/a	n/a	RICE	7	5	[0, 0, 0]	n/a	FR1	0	R1364C
816.166	1.6	818094	WORD	n/a	wordpools/wordpool_EN.txt	FISH	8	5	[0, 0, 0]	n/a	FR1	0	R1364C
817.788	1.081	819716	WORD_OFF	n/a	n/a	FISH	8	5	[0, 0, 0]	n/a	FR1	0	R1364C
818.869	1.6	820797	WORD	n/a	wordpools/wordpool_EN.txt	HORSE	9	5	[0, 0, 0]	n/a	FR1	0	R1364C
820.489	0.805	822417	WORD_OFF	n/a	n/a	HORSE	9	5	[0, 0, 0]	n/a	FR1	0	R1364C
821.294	1.6	823222	WORD	n/a	wordpools/wordpool_EN.txt	BOARD	10	5	[0, 0, 0]	n/a	FR1	0	R1364C
822.923	0.993	824851	WORD_OFF	n/a	n/a	BOARD	10	5	[0, 0, 0]	n/a	FR1	0	R1364C
823.916	1.6	825844	WORD	n/a	wordpools/wordpool_EN.txt	DESK	11	5	[0, 0, 0]	n/a	FR1	0	R1364C
825.54	1.111	827468	WORD_OFF	n/a	n/a	DESK	11	5	[0, 0, 0]	n/a	FR1	0	R1364C
826.651	1.6	828579	WORD	n/a	wordpools/wordpool_EN.txt	HOSE	12	5	[0, 0, 0]	n/a	FR1	0	R1364C
828.275	0.0	830202	WORD_OFF	n/a	n/a	HOSE	12	5	[0, 0, 0]	n/a	FR1	0	R1364C
828.275	0.001	830202	ENCODING_END	n/a	n/a	n/a	-999	5	[0, 0, 0]	n/a	FR1	0	R1364C
828.276	0.0	830203	DISTRACT_START	n/a	n/a	n/a	-999	5	[0, 0, 0]	n/a	FR1	0	R1364C
828.276	0.015	830203	START	n/a	n/a	n/a	-999	5	[-999, -999, -999]	n/a	FR1	0	R1364C
828.291	5.068	830218	PROB	5.037	n/a	n/a	-999	5	[5, 6, 5]	16.0	FR1	0	R1364C
833.359	3.599	835286	PROB	3.561	n/a	n/a	-999	5	[3, 4, 4]	11.0	FR1	0	R1364C
836.958	3.052	838885	PROB	3.017	n/a	n/a	-999	5	[4, 4, 6]	14.0	FR1	0	R1364C
840.01	2.35	841937	PROB	2.327	n/a	n/a	-999	5	[5, 1, 5]	11.0	FR1	0	R1364C
842.36	5.118	844287	PROB	5.081	n/a	n/a	-999	5	[9, 3, 8]	20.0	FR1	0	R1364C
847.478	2.619	849404	PROB	2.619	n/a	n/a	-999	5	[1, 8, 4]	13.0	FR1	0	R1364C
850.097	0.015	852023	STOP	n/a	n/a	n/a	-999	5	[-999, -999, -999]	n/a	FR1	0	R1364C
850.112	0.6	852038	DISTRACT_END	n/a	n/a	n/a	-999	5	[0, 0, 0]	n/a	FR1	0	R1364C
850.712	1.6	852638	RETRIEVAL_ORIENT_START	n/a	n/a	n/a	-999	5	[0, 0, 0]	n/a	FR1	0	R1364C
852.446	0.0	854372	RETRIEVAL_ORIENT_END	n/a	n/a	n/a	-999	5	[0, 0, 0]	n/a	FR1	0	R1364C
852.446	2.139	854372	REC_START	n/a	n/a	n/a	-999	5	[0, 0, 0]	n/a	FR1	0	R1364C
854.585	0.951	856511	REC_WORD	2.139	n/a	MOUTH	1	5	[0, 0, 0]	n/a	FR1	0	R1364C
855.536	1.295	857462	REC_WORD	3.09	n/a	CALF	2	5	[0, 0, 0]	n/a	FR1	0	R1364C
856.831	2.539	858757	REC_WORD	4.385	n/a	SUIT	3	5	[0, 0, 0]	n/a	FR1	0	R1364C
859.37	3.058	861296	REC_WORD	6.924	n/a	JUDGE	4	5	[0, 0, 0]	n/a	FR1	0	R1364C
862.428	1.817	864354	REC_WORD	9.982	n/a	DESK	11	5	[0, 0, 0]	n/a	FR1	0	R1364C
864.245	18.214	866171	REC_WORD	11.799	n/a	BOARD	10	5	[0, 0, 0]	n/a	FR1	0	R1364C
882.459	0.0	884384	REC_END	n/a	n/a	n/a	-999	5	[0, 0, 0]	n/a	FR1	0	R1364C
882.459	0.015	884384	TRIAL_END	n/a	n/a	n/a	-999	5	[0, 0, 0]	n/a	FR1	0	R1364C
882.474	0.0	884399	TRIAL	n/a	n/a	n/a	-999	6	[0, 0, 0]	n/a	FR1	0	R1364C
882.474	0.0	884399	WAITING_START	n/a	n/a	n/a	-999	6	[0, 0, 0]	n/a	FR1	0	R1364C
882.474	7.461	884399	TRIAL_START	n/a	n/a	n/a	-999	6	[0, 0, 0]	n/a	FR1	0	R1364C
889.935	0.0	891859	WAITING_END	n/a	n/a	n/a	-999	6	[0, 0, 0]	n/a	FR1	0	R1364C
889.935	10.0	891859	COUNTDOWN_START	n/a	n/a	n/a	-999	6	[0, 0, 0]	n/a	FR1	0	R1364C
900.365	0.0	902289	COUNTDOWN_END	n/a	n/a	n/a	-999	6	[0, 0, 0]	n/a	FR1	0	R1364C
900.365	1.222	902289	ORIENT_START	n/a	n/a	n/a	-999	6	[0, 0, 0]	n/a	FR1	0	R1364C
901.587	0.001	903511	ORIENT_END	n/a	n/a	n/a	-999	6	[0, 0, 0]	n/a	FR1	0	R1364C
901.588	1.035	903512	ENCODING_START	n/a	n/a	n/a	-999	6	[0, 0, 0]	n/a	FR1	0	R1364C
902.623	1.6	904547	WORD	n/a	wordpools/wordpool_EN.txt	CHALK	1	6	[0, 0, 0]	n/a	FR1	0	R1364C
904.238	1.143	906162	WORD_OFF	n/a	n/a	CHALK	1	6	[0, 0, 0]	n/a	FR1	0	R1364C
905.381	1.6	907305	WORD	n/a	wordpools/wordpool_EN.txt	GRASS	2	6	[0, 0, 0]	n/a	FR1	0	R1364C
907.006	1.133	908929	WORD_OFF	n/a	n/a	GRASS	2	6	[0, 0, 0]	n/a	FR1	0	R1364C
908.139	1.6	910062	WORD	n/a	wordpools/wordpool_EN.txt	CLOCK	3	6	[0, 0, 0]	n/a	FR1	0	R1364C
909.772	1.137	911695	WORD_OFF	n/a	n/a	CLOCK	3	6	[0, 0, 0]	n/a	FR1	0	R1364C
910.909	1.6	912832	WORD	n/a	wordpools/wordpool_EN.txt	FORT	4	6	[0, 0, 0]	n/a	FR1	0	R1364C
912.539	1.033	914462	WORD_OFF	n/a	n/a	FORT	4	6	[0, 0, 0]	n/a	FR1	0	R1364C
913.572	1.6	915495	WORD	n/a	wordpools/wordpool_EN.txt	HAWK	5	6	[0, 0, 0]	n/a	FR1	0	R1364C
915.191	0.994	917114	WORD_OFF	n/a	n/a	HAWK	5	6	[0, 0, 0]	n/a	FR1	0	R1364C
916.185	1.6	918108	WORD	n/a	wordpools/wordpool_EN.txt	BLUSH	6	6	[0, 0, 0]	n/a	FR1	0	R1364C
917.807	1.073	919730	WORD_OFF	n/a	n/a	BLUSH	6	6	[0, 0, 0]	n/a	FR1	0	R1364C
918.88	1.6	920803	WORD	n/a	wordpools/wordpool_EN.txt	SHIRT	7	6	[0, 0, 0]	n/a	FR1	0	R1364C
920.509	0.792	922432	WORD_OFF	n/a	n/a	SHIRT	7	6	[0, 0, 0]	n/a	FR1	0	R1364C
921.301	1.6	923224	WORD	n/a	wordpools/wordpool_EN.txt	TRUCK	8	6	[0, 0, 0]	n/a	FR1	0	R1364C
922.925	1.057	924848	WORD_OFF	n/a	n/a	TRUCK	8	6	[0, 0, 0]	n/a	FR1	0	R1364C
923.982	1.6	925905	WORD	n/a	wordpools/wordpool_EN.txt	TRAIN	9	6	[0, 0, 0]	n/a	FR1	0	R1364C
925.609	0.803	927531	WORD_OFF	n/a	n/a	TRAIN	9	6	[0, 0, 0]	n/a	FR1	0	R1364C
926.412	1.6	928334	WORD	n/a	wordpools/wordpool_EN.txt	GEESE	10	6	[0, 0, 0]	n/a	FR1	0	R1364C
928.043	0.78	929965	WORD_OFF	n/a	n/a	GEESE	10	6	[0, 0, 0]	n/a	FR1	0	R1364C
928.823	1.6	930745	WORD	n/a	wordpools/wordpool_EN.txt	FLUTE	11	6	[0, 0, 0]	n/a	FR1	0	R1364C
930.461	1.044	932383	WORD_OFF	n/a	n/a	FLUTE	11	6	[0, 0, 0]	n/a	FR1	0	R1364C
931.505	1.6	933427	WORD	n/a	wordpools/wordpool_EN.txt	SPARK	12	6	[0, 0, 0]	n/a	FR1	0	R1364C
933.128	0.0	935050	ENCODING_END	n/a	n/a	n/a	-999	6	[0, 0, 0]	n/a	FR1	0	R1364C
933.128	0.001	935050	WORD_OFF	n/a	n/a	SPARK	12	6	[0, 0, 0]	n/a	FR1	0	R1364C
933.129	0.0	935051	DISTRACT_START	n/a	n/a	n/a	-999	6	[0, 0, 0]	n/a	FR1	0	R1364C
933.129	0.015	935051	START	n/a	n/a	n/a	-999	6	[-999, -999, -999]	n/a	FR1	0	R1364C
933.144	10.135	935066	PROB	10.108	n/a	n/a	-999	6	[8, 9, 7]	24.0	FR1	0	R1364C
943.279	3.4	945201	PROB	3.372	n/a	n/a	-999	6	[1, 7, 2]	10.0	FR1	0	R1364C
946.679	2.751	948600	PROB	2.718	n/a	n/a	-999	6	[6, 3, 9]	18.0	FR1	0	R1364C
949.43	3.2	951351	PROB	3.173	n/a	n/a	-999	6	[5, 1, 2]	8.0	FR1	0	R1364C
952.63	11.41	954551	PROB	11.41	n/a	n/a	-999	6	[9, 5, 4]	18.0	FR1	0	R1364C
964.04	0.01	965960	STOP	n/a	n/a	n/a	-999	6	[-999, -999, -999]	n/a	FR1	0	R1364C
964.05	0.543	965970	DISTRACT_END	n/a	n/a	n/a	-999	6	[0, 0, 0]	n/a	FR1	0	R1364C
964.593	1.6	966513	RETRIEVAL_ORIENT_START	n/a	n/a	n/a	-999	6	[0, 0, 0]	n/a	FR1	0	R1364C
966.317	0.001	968237	RETRIEVAL_ORIENT_END	n/a	n/a	n/a	-999	6	[0, 0, 0]	n/a	FR1	0	R1364C
966.318	1.117	968238	REC_START	n/a	n/a	n/a	-999	6	[0, 0, 0]	n/a	FR1	0	R1364C
967.435	1.275	969355	REC_WORD	1.117	n/a	SHIRT	7	6	[0, 0, 0]	n/a	FR1	0	R1364C
968.71	1.275	970630	REC_WORD	2.392	n/a	GRASS	2	6	[0, 0, 0]	n/a	FR1	0	R1364C
969.985	2.527	971905	REC_WORD	3.667	n/a	BLUSH	6	6	[0, 0, 0]	n/a	FR1	0	R1364C
972.512	1.0	974432	REC_WORD	6.194	n/a	TRUCK	8	6	[0, 0, 0]	n/a	FR1	0	R1364C
973.512	1.515	975432	REC_WORD	7.194	n/a	TRAIN	9	6	[0, 0, 0]	n/a	FR1	0	R1364C
975.027	1.524	976947	REC_WORD	8.709	n/a	CHALK	1	6	[0, 0, 0]	n/a	FR1	0	R1364C
976.551	11.038	978471	REC_WORD	10.233	n/a	HAWK	5	6	[0, 0, 0]	n/a	FR1	0	R1364C
987.589	8.74	989508	REC_WORD	21.271	n/a	SHIRT	7	6	[0, 0, 0]	n/a	FR1	0	R1364C
996.329	0.0	998248	REC_END	n/a	n/a	n/a	-999	6	[0, 0, 0]	n/a	FR1	0	R1364C
996.329	0.015	998248	TRIAL_END	n/a	n/a	n/a	-999	6	[0, 0, 0]	n/a	FR1	0	R1364C
996.344	0.0	998263	TRIAL_START	n/a	n/a	n/a	-999	7	[0, 0, 0]	n/a	FR1	0	R1364C
996.344	0.0	998263	TRIAL	n/a	n/a	n/a	-999	7	[0, 0, 0]	n/a	FR1	0	R1364C
996.344	2.495	998263	WAITING_START	n/a	n/a	n/a	-999	7	[0, 0, 0]	n/a	FR1	0	R1364C
998.839	0.001	1000758	WAITING_END	n/a	n/a	n/a	-999	7	[0, 0, 0]	n/a	FR1	0	R1364C
998.84	10.0	1000759	COUNTDOWN_START	n/a	n/a	n/a	-999	7	[0, 0, 0]	n/a	FR1	0	R1364C
1009.269	0.001	1011187	COUNTDOWN_END	n/a	n/a	n/a	-999	7	[0, 0, 0]	n/a	FR1	0	R1364C
1009.27	1.072	1011188	ORIENT_START	n/a	n/a	n/a	-999	7	[0, 0, 0]	n/a	FR1	0	R1364C
1010.342	0.001	1012260	ORIENT_END	n/a	n/a	n/a	-999	7	[0, 0, 0]	n/a	FR1	0	R1364C
1010.343	0.937	1012261	ENCODING_START	n/a	n/a	n/a	-999	7	[0, 0, 0]	n/a	FR1	0	R1364C
1011.28	1.6	1013198	WORD	n/a	wordpools/wordpool_EN.txt	STEAK	1	7	[0, 0, 0]	n/a	FR1	0	R1364C
1012.908	0.768	1014826	WORD_OFF	n/a	n/a	STEAK	1	7	[0, 0, 0]	n/a	FR1	0	R1364C
1013.676	1.6	1015594	WORD	n/a	wordpools/wordpool_EN.txt	RAT	2	7	[0, 0, 0]	n/a	FR1	0	R1364C
1015.31	1.086	1017228	WORD_OFF	n/a	n/a	RAT	2	7	[0, 0, 0]	n/a	FR1	0	R1364C
1016.396	1.6	1018314	WORD	n/a	wordpools/wordpool_EN.txt	PRINCE	3	7	[0, 0, 0]	n/a	FR1	0	R1364C
1018.027	1.009	1019945	WORD_OFF	n/a	n/a	PRINCE	3	7	[0, 0, 0]	n/a	FR1	0	R1364C
1019.036	1.6	1020954	WORD	n/a	wordpools/wordpool_EN.txt	TANK	4	7	[0, 0, 0]	n/a	FR1	0	R1364C
1020.66	0.866	1022578	WORD_OFF	n/a	n/a	TANK	4	7	[0, 0, 0]	n/a	FR1	0	R1364C
1021.526	1.6	1023443	WORD	n/a	wordpools/wordpool_EN.txt	CORN	5	7	[0, 0, 0]	n/a	FR1	0	R1364C
1023.161	1.148	1025078	WORD_OFF	n/a	n/a	CORN	5	7	[0, 0, 0]	n/a	FR1	0	R1364C
1024.309	1.6	1026226	WORD	n/a	wordpools/wordpool_EN.txt	JUICE	6	7	[0, 0, 0]	n/a	FR1	0	R1364C
1025.944	0.987	1027861	WORD_OFF	n/a	n/a	JUICE	6	7	[0, 0, 0]	n/a	FR1	0	R1364C
1026.931	1.6	1028848	WORD	n/a	wordpools/wordpool_EN.txt	TOY	7	7	[0, 0, 0]	n/a	FR1	0	R1364C
1028.561	0.842	1030478	WORD_OFF	n/a	n/a	TOY	7	7	[0, 0, 0]	n/a	FR1	0	R1364C
1029.403	1.6	1031320	WORD	n/a	wordpools/wordpool_EN.txt	STOVE	8	7	[0, 0, 0]	n/a	FR1	0	R1364C
1031.029	0.939	1032946	WORD_OFF	n/a	n/a	STOVE	8	7	[0, 0, 0]	n/a	FR1	0	R1364C
1031.968	1.6	1033885	WORD	n/a	wordpools/wordpool_EN.txt	BALL	9	7	[0, 0, 0]	n/a	FR1	0	R1364C
1033.595	0.77	1035512	WORD_OFF	n/a	n/a	BALL	9	7	[0, 0, 0]	n/a	FR1	0	R1364C
1034.365	1.6	1036282	WORD	n/a	wordpools/wordpool_EN.txt	BREAD	10	7	[0, 0, 0]	n/a	FR1	0	R1364C
1035.997	0.798	1037914	WORD_OFF	n/a	n/a	BREAD	10	7	[0, 0, 0]	n/a	FR1	0	R1364C
1036.795	1.6	1038712	WORD	n/a	wordpools/wordpool_EN.txt	PLATE	11	7	[0, 0, 0]	n/a	FR1	0	R1364C
1038.414	1.142	1040331	WORD_OFF	n/a	n/a	PLATE	11	7	[0, 0, 0]	n/a	FR1	0	R1364C
1039.556	1.6	1041473	WORD	n/a	wordpools/wordpool_EN.txt	CASH	12	7	[0, 0, 0]	n/a	FR1	0	R1364C
1041.181	0.001	1043097	WORD_OFF	n/a	n/a	CASH	12	7	[0, 0, 0]	n/a	FR1	0	R1364C
1041.182	0.0	1043098	DISTRACT_START	n/a	n/a	n/a	-999	7	[0, 0, 0]	n/a	FR1	0	R1364C
1041.182	0.0	1043098	ENCODING_END	n/a	n/a	n/a	-999	7	[0, 0, 0]	n/a	FR1	0	R1364C
1041.182	0.015	1043098	START	n/a	n/a	n/a	-999	7	[-999, -999, -999]	n/a	FR1	0	R1364C
1041.197	5.935	1043113	PROB	5.91	n/a	n/a	-999	7	[2, 8, 6]	16.0	FR1	0	R1364C
1047.132	4.018	1049048	PROB	3.991	n/a	n/a	-999	7	[8, 6, 1]	15.0	FR1	0	R1364C
1051.15	4.05	1053066	PROB	4.014	n/a	n/a	-999	7	[8, 6, 2]	16.0	FR1	0	R1364C
1055.2	5.284	1057116	PROB	5.251	n/a	n/a	-999	7	[2, 3, 7]	12.0	FR1	0	R1364C
1060.484	3.447	1062399	PROB	3.447	n/a	n/a	-999	7	[9, 5, 1]	15.0	FR1	0	R1364C
1063.931	0.02	1065846	STOP	n/a	n/a	n/a	-999	7	[-999, -999, -999]	n/a	FR1	0	R1364C
1063.951	0.572	1065866	DISTRACT_END	n/a	n/a	n/a	-999	7	[0, 0, 0]	n/a	FR1	0	R1364C
1064.523	1.6	1066438	RETRIEVAL_ORIENT_START	n/a	n/a	n/a	-999	7	[0, 0, 0]	n/a	FR1	0	R1364C
1066.153	0.0	1068068	RETRIEVAL_ORIENT_END	n/a	n/a	n/a	-999	7	[0, 0, 0]	n/a	FR1	0	R1364C
1066.153	1.493	1068068	REC_START	n/a	n/a	n/a	-999	7	[0, 0, 0]	n/a	FR1	0	R1364C
1067.646	0.681	1069561	REC_WORD	1.493	n/a	RAT	2	7	[0, 0, 0]	n/a	FR1	0	R1364C
1068.327	1.678	1070242	REC_WORD	2.174	n/a	STEAK	1	7	[0, 0, 0]	n/a	FR1	0	R1364C
1070.005	1.056	1071920	REC_WORD	3.852	n/a	CORN	5	7	[0, 0, 0]	n/a	FR1	0	R1364C
1071.061	3.573	1072976	REC_WORD	4.908	n/a	CASH	12	7	[0, 0, 0]	n/a	FR1	0	R1364C
1074.634	3.71	1076549	REC_WORD	8.481	n/a	BREAD	10	7	[0, 0, 0]	n/a	FR1	0	R1364C
1078.344	17.822	1080259	REC_WORD	12.191	n/a	PLATE	11	7	[0, 0, 0]	n/a	FR1	0	R1364C
1096.166	0.0	1098080	REC_END	n/a	n/a	n/a	-999	7	[0, 0, 0]	n/a	FR1	0	R1364C
1096.166	0.014	1098080	TRIAL_END	n/a	n/a	n/a	-999	7	[0, 0, 0]	n/a	FR1	0	R1364C
1096.18	0.001	1098094	TRIAL_START	n/a	n/a	n/a	-999	8	[0, 0, 0]	n/a	FR1	0	R1364C
1096.181	0.0	1098095	TRIAL	n/a	n/a	n/a	-999	8	[0, 0, 0]	n/a	FR1	0	R1364C
1096.181	2.71	1098095	WAITING_START	n/a	n/a	n/a	-999	8	[0, 0, 0]	n/a	FR1	0	R1364C
1098.891	0.001	1100804	WAITING_END	n/a	n/a	n/a	-999	8	[0, 0, 0]	n/a	FR1	0	R1364C
1098.892	10.0	1100805	COUNTDOWN_START	n/a	n/a	n/a	-999	8	[0, 0, 0]	n/a	FR1	0	R1364C
1109.32	0.001	1111233	COUNTDOWN_END	n/a	n/a	n/a	-999	8	[0, 0, 0]	n/a	FR1	0	R1364C
1109.321	1.239	1111234	ORIENT_START	n/a	n/a	n/a	-999	8	[0, 0, 0]	n/a	FR1	0	R1364C
1110.56	0.001	1112473	ORIENT_END	n/a	n/a	n/a	-999	8	[0, 0, 0]	n/a	FR1	0	R1364C
1110.561	1.058	1112474	ENCODING_START	n/a	n/a	n/a	-999	8	[0, 0, 0]	n/a	FR1	0	R1364C
1111.619	1.6	1113532	WORD	n/a	wordpools/wordpool_EN.txt	EEL	1	8	[0, 0, 0]	n/a	FR1	0	R1364C
1113.228	0.918	1115141	WORD_OFF	n/a	n/a	EEL	1	8	[0, 0, 0]	n/a	FR1	0	R1364C
1114.146	1.6	1116059	WORD	n/a	wordpools/wordpool_EN.txt	PLANT	2	8	[0, 0, 0]	n/a	FR1	0	R1364C
1115.777	0.869	1117690	WORD_OFF	n/a	n/a	PLANT	2	8	[0, 0, 0]	n/a	FR1	0	R1364C
1116.646	1.6	1118559	WORD	n/a	wordpools/wordpool_EN.txt	DUCK	3	8	[0, 0, 0]	n/a	FR1	0	R1364C
1118.279	0.859	1120191	WORD_OFF	n/a	n/a	DUCK	3	8	[0, 0, 0]	n/a	FR1	0	R1364C
1119.138	1.6	1121050	WORD	n/a	wordpools/wordpool_EN.txt	PIE	4	8	[0, 0, 0]	n/a	FR1	0	R1364C
1120.762	1.053	1122674	WORD_OFF	n/a	n/a	PIE	4	8	[0, 0, 0]	n/a	FR1	0	R1364C
1121.815	1.6	1123727	WORD	n/a	wordpools/wordpool_EN.txt	WEB	5	8	[0, 0, 0]	n/a	FR1	0	R1364C
1123.43	0.819	1125342	WORD_OFF	n/a	n/a	WEB	5	8	[0, 0, 0]	n/a	FR1	0	R1364C
1124.249	1.6	1126161	WORD	n/a	wordpools/wordpool_EN.txt	HAND	6	8	[0, 0, 0]	n/a	FR1	0	R1364C
1125.879	1.093	1127791	WORD_OFF	n/a	n/a	HAND	6	8	[0, 0, 0]	n/a	FR1	0	R1364C
1126.972	1.6	1128884	WORD	n/a	wordpools/wordpool_EN.txt	TOE	7	8	[0, 0, 0]	n/a	FR1	0	R1364C
1128.597	1.054	1130509	WORD_OFF	n/a	n/a	TOE	7	8	[0, 0, 0]	n/a	FR1	0	R1364C
1129.651	1.6	1131563	WORD	n/a	wordpools/wordpool_EN.txt	CLIFF	8	8	[0, 0, 0]	n/a	FR1	0	R1364C
1131.264	0.754	1133176	WORD_OFF	n/a	n/a	CLIFF	8	8	[0, 0, 0]	n/a	FR1	0	R1364C
1132.018	1.6	1133930	WORD	n/a	wordpools/wordpool_EN.txt	HOOK	9	8	[0, 0, 0]	n/a	FR1	0	R1364C
1133.648	0.914	1135560	WORD_OFF	n/a	n/a	HOOK	9	8	[0, 0, 0]	n/a	FR1	0	R1364C
1134.562	1.6	1136474	WORD	n/a	wordpools/wordpool_EN.txt	BAG	10	8	[0, 0, 0]	n/a	FR1	0	R1364C
1136.199	0.849	1138111	WORD_OFF	n/a	n/a	BAG	10	8	[0, 0, 0]	n/a	FR1	0	R1364C
1137.048	1.6	1138960	WORD	n/a	wordpools/wordpool_EN.txt	JEEP	11	8	[0, 0, 0]	n/a	FR1	0	R1364C
1138.682	0.838	1140593	WORD_OFF	n/a	n/a	JEEP	11	8	[0, 0, 0]	n/a	FR1	0	R1364C
1139.52	1.6	1141431	WORD	n/a	wordpools/wordpool_EN.txt	FOX	12	8	[0, 0, 0]	n/a	FR1	0	R1364C
1141.15	0.001	1143061	WORD_OFF	n/a	n/a	FOX	12	8	[0, 0, 0]	n/a	FR1	0	R1364C
1141.151	0.0	1143062	ENCODING_END	n/a	n/a	n/a	-999	8	[0, 0, 0]	n/a	FR1	0	R1364C
1141.151	0.0	1143062	DISTRACT_START	n/a	n/a	n/a	-999	8	[0, 0, 0]	n/a	FR1	0	R1364C
1141.151	0.015	1143062	START	n/a	n/a	n/a	-999	8	[-999, -999, -999]	n/a	FR1	0	R1364C
1141.166	10.019	1143077	PROB	9.983	n/a	n/a	-999	8	[9, 5, 7]	21.0	FR1	0	R1364C
1151.185	4.951	1153096	PROB	4.924	n/a	n/a	-999	8	[9, 4, 2]	15.0	FR1	0	R1364C
1156.136	3.433	1158047	PROB	3.396	n/a	n/a	-999	8	[3, 8, 5]	16.0	FR1	0	R1364C
1159.569	3.916	1161479	PROB	3.916	n/a	n/a	-999	8	[8, 1, 5]	14.0	FR1	0	R1364C
1163.485	0.019	1165395	STOP	n/a	n/a	n/a	-999	8	[-999, -999, -999]	n/a	FR1	0	R1364C
1163.504	0.538	1165414	DISTRACT_END	n/a	n/a	n/a	-999	8	[0, 0, 0]	n/a	FR1	0	R1364C
1164.042	1.6	1165952	RETRIEVAL_ORIENT_START	n/a	n/a	n/a	-999	8	[0, 0, 0]	n/a	FR1	0	R1364C
1165.704	0.0	1167614	RETRIEVAL_ORIENT_END	n/a	n/a	n/a	-999	8	[0, 0, 0]	n/a	FR1	0	R1364C
1165.704	4.302	1167614	REC_START	n/a	n/a	n/a	-999	8	[0, 0, 0]	n/a	FR1	0	R1364C
1170.006	3.405	1171916	REC_WORD	4.302	n/a	EEL	1	8	[0, 0, 0]	n/a	FR1	0	R1364C
1173.411	1.055	1175321	REC_WORD	7.707	n/a	PLANT	2	8	[0, 0, 0]	n/a	FR1	0	R1364C
1174.466	1.148	1176376	REC_WORD	8.762	n/a	PIE	4	8	[0, 0, 0]	n/a	FR1	0	R1364C
1175.614	20.103	1177524	REC_WORD	9.91	n/a	WEB	5	8	[0, 0, 0]	n/a	FR1	0	R1364C
1195.717	0.0	1197625	REC_END	n/a	n/a	n/a	-999	8	[0, 0, 0]	n/a	FR1	0	R1364C
1195.717	0.015	1197625	TRIAL_END	n/a	n/a	n/a	-999	8	[0, 0, 0]	n/a	FR1	0	R1364C
1195.732	0.0	1197640	WAITING_START	n/a	n/a	n/a	-999	9	[0, 0, 0]	n/a	FR1	0	R1364C
1195.732	0.0	1197640	TRIAL_START	n/a	n/a	n/a	-999	9	[0, 0, 0]	n/a	FR1	0	R1364C
1195.732	9.297	1197640	TRIAL	n/a	n/a	n/a	-999	9	[0, 0, 0]	n/a	FR1	0	R1364C
1205.029	0.0	1206937	WAITING_END	n/a	n/a	n/a	-999	9	[0, 0, 0]	n/a	FR1	0	R1364C
1205.029	10.0	1206937	COUNTDOWN_START	n/a	n/a	n/a	-999	9	[0, 0, 0]	n/a	FR1	0	R1364C
1215.457	0.0	1217364	COUNTDOWN_END	n/a	n/a	n/a	-999	9	[0, 0, 0]	n/a	FR1	0	R1364C
1215.457	1.09	1217364	ORIENT_START	n/a	n/a	n/a	-999	9	[0, 0, 0]	n/a	FR1	0	R1364C
1216.547	0.001	1218454	ORIENT_END	n/a	n/a	n/a	-999	9	[0, 0, 0]	n/a	FR1	0	R1364C
1216.548	0.919	1218455	ENCODING_START	n/a	n/a	n/a	-999	9	[0, 0, 0]	n/a	FR1	0	R1364C
1217.467	1.6	1219374	WORD	n/a	wordpools/wordpool_EN.txt	SHOE	1	9	[0, 0, 0]	n/a	FR1	0	R1364C
1219.098	0.914	1221005	WORD_OFF	n/a	n/a	SHOE	1	9	[0, 0, 0]	n/a	FR1	0	R1364C
1220.012	1.6	1221919	WORD	n/a	wordpools/wordpool_EN.txt	SOAP	2	9	[0, 0, 0]	n/a	FR1	0	R1364C
1221.647	0.891	1223554	WORD_OFF	n/a	n/a	SOAP	2	9	[0, 0, 0]	n/a	FR1	0	R1364C
1222.538	1.6	1224445	WORD	n/a	wordpools/wordpool_EN.txt	BOMB	3	9	[0, 0, 0]	n/a	FR1	0	R1364C
1224.166	0.751	1226073	WORD_OFF	n/a	n/a	BOMB	3	9	[0, 0, 0]	n/a	FR1	0	R1364C
1224.917	1.6	1226824	WORD	n/a	wordpools/wordpool_EN.txt	COW	4	9	[0, 0, 0]	n/a	FR1	0	R1364C
1226.548	0.972	1228455	WORD_OFF	n/a	n/a	COW	4	9	[0, 0, 0]	n/a	FR1	0	R1364C
1227.52	1.6	1229427	WORD	n/a	wordpools/wordpool_EN.txt	WEED	5	9	[0, 0, 0]	n/a	FR1	0	R1364C
1229.15	0.946	1231057	WORD_OFF	n/a	n/a	WEED	5	9	[0, 0, 0]	n/a	FR1	0	R1364C
1230.096	1.6	1232003	WORD	n/a	wordpools/wordpool_EN.txt	PIT	6	9	[0, 0, 0]	n/a	FR1	0	R1364C
1231.733	0.752	1233640	WORD_OFF	n/a	n/a	PIT	6	9	[0, 0, 0]	n/a	FR1	0	R1364C
1232.485	1.6	1234392	WORD	n/a	wordpools/wordpool_EN.txt	CHIEF	7	9	[0, 0, 0]	n/a	FR1	0	R1364C
1234.117	1.097	1236024	WORD_OFF	n/a	n/a	CHIEF	7	9	[0, 0, 0]	n/a	FR1	0	R1364C
1235.214	1.6	1237120	WORD	n/a	wordpools/wordpool_EN.txt	CAR	8	9	[0, 0, 0]	n/a	FR1	0	R1364C
1236.85	0.762	1238756	WORD_OFF	n/a	n/a	CAR	8	9	[0, 0, 0]	n/a	FR1	0	R1364C
1237.612	1.6	1239518	WORD	n/a	wordpools/wordpool_EN.txt	ROPE	9	9	[0, 0, 0]	n/a	FR1	0	R1364C
1239.218	1.097	1241124	WORD_OFF	n/a	n/a	ROPE	9	9	[0, 0, 0]	n/a	FR1	0	R1364C
1240.315	1.6	1242221	WORD	n/a	wordpools/wordpool_EN.txt	PEACH	10	9	[0, 0, 0]	n/a	FR1	0	R1364C
1241.951	0.916	1243857	WORD_OFF	n/a	n/a	PEACH	10	9	[0, 0, 0]	n/a	FR1	0	R1364C
1242.867	1.6	1244773	WORD	n/a	wordpools/wordpool_EN.txt	MAZE	11	9	[0, 0, 0]	n/a	FR1	0	R1364C
1244.503	0.875	1246409	WORD_OFF	n/a	n/a	MAZE	11	9	[0, 0, 0]	n/a	FR1	0	R1364C
1245.378	1.6	1247284	WORD	n/a	wordpools/wordpool_EN.txt	GLASS	12	9	[0, 0, 0]	n/a	FR1	0	R1364C
1247.005	0.0	1248911	WORD_OFF	n/a	n/a	GLASS	12	9	[0, 0, 0]	n/a	FR1	0	R1364C
1247.005	0.001	1248911	ENCODING_END	n/a	n/a	n/a	-999	9	[0, 0, 0]	n/a	FR1	0	R1364C
1247.006	0.0	1248912	DISTRACT_START	n/a	n/a	n/a	-999	9	[0, 0, 0]	n/a	FR1	0	R1364C
1247.006	0.014	1248912	START	n/a	n/a	n/a	-999	9	[-999, -999, -999]	n/a	FR1	0	R1364C
1247.02	5.067	1248926	PROB	5.044	n/a	n/a	-999	9	[4, 1, 5]	10.0	FR1	0	R1364C
1252.087	7.301	1253993	PROB	7.265	n/a	n/a	-999	9	[1, 6, 5]	12.0	FR1	0	R1364C
1259.388	3.051	1261293	PROB	3.027	n/a	n/a	-999	9	[7, 3, 6]	16.0	FR1	0	R1364C
1262.439	3.383	1264344	PROB	3.344	n/a	n/a	-999	9	[1, 4, 8]	13.0	FR1	0	R1364C
1265.822	9.49	1267727	PROB	9.49	n/a	n/a	-999	9	[4, 8, 3]	15.0	FR1	0	R1364C
1275.312	0.013	1277216	STOP	n/a	n/a	n/a	-999	9	[-999, -999, -999]	n/a	FR1	0	R1364C
1275.325	0.631	1277229	DISTRACT_END	n/a	n/a	n/a	-999	9	[0, 0, 0]	n/a	FR1	0	R1364C
1275.956	1.6	1277860	RETRIEVAL_ORIENT_START	n/a	n/a	n/a	-999	9	[0, 0, 0]	n/a	FR1	0	R1364C
1277.541	0.001	1279445	RETRIEVAL_ORIENT_END	n/a	n/a	n/a	-999	9	[0, 0, 0]	n/a	FR1	0	R1364C
1277.542	4.252	1279446	REC_START	n/a	n/a	n/a	-999	9	[0, 0, 0]	n/a	FR1	0	R1364C
1281.794	11.655	1283698	REC_WORD	4.252	n/a	UM	-999	9	[0, 0, 0]	n/a	FR1	0	R1364C
1293.449	14.106	1295352	REC_WORD	15.907	n/a	CAN'T REMEMBER	-999	9	[0, 0, 0]	n/a	FR1	0	R1364C
1307.555	0.0	1309458	REC_END	n/a	n/a	n/a	-999	9	[0, 0, 0]	n/a	FR1	0	R1364C
1307.555	0.016	1309458	TRIAL_END	n/a	n/a	n/a	-999	9	[0, 0, 0]	n/a	FR1	0	R1364C
1307.571	0.0	1309474	TRIAL_START	n/a	n/a	n/a	-999	10	[0, 0, 0]	n/a	FR1	0	R1364C
1307.571	0.0	1309474	TRIAL	n/a	n/a	n/a	-999	10	[0, 0, 0]	n/a	FR1	0	R1364C
1307.571	3.527	1309474	WAITING_START	n/a	n/a	n/a	-999	10	[0, 0, 0]	n/a	FR1	0	R1364C
1311.098	0.001	1313001	WAITING_END	n/a	n/a	n/a	-999	10	[0, 0, 0]	n/a	FR1	0	R1364C
1311.099	10.0	1313002	COUNTDOWN_START	n/a	n/a	n/a	-999	10	[0, 0, 0]	n/a	FR1	0	R1364C
1321.527	0.0	1323429	ORIENT_START	n/a	n/a	n/a	-999	10	[0, 0, 0]	n/a	FR1	0	R1364C
1321.527	1.056	1323429	COUNTDOWN_END	n/a	n/a	n/a	-999	10	[0, 0, 0]	n/a	FR1	0	R1364C
1322.583	0.0	1324485	ORIENT_END	n/a	n/a	n/a	-999	10	[0, 0, 0]	n/a	FR1	0	R1364C
1322.583	0.814	1324485	ENCODING_START	n/a	n/a	n/a	-999	10	[0, 0, 0]	n/a	FR1	0	R1364C
1323.397	1.6	1325299	WORD	n/a	wordpools/wordpool_EN.txt	CAKE	1	10	[0, 0, 0]	n/a	FR1	0	R1364C
1325.034	0.859	1326936	WORD_OFF	n/a	n/a	CAKE	1	10	[0, 0, 0]	n/a	FR1	0	R1364C
1325.893	1.6	1327795	WORD	n/a	wordpools/wordpool_EN.txt	PIN	2	10	[0, 0, 0]	n/a	FR1	0	R1364C
1327.517	0.793	1329419	WORD_OFF	n/a	n/a	PIN	2	10	[0, 0, 0]	n/a	FR1	0	R1364C
1328.31	1.6	1330212	WORD	n/a	wordpools/wordpool_EN.txt	GOLD	3	10	[0, 0, 0]	n/a	FR1	0	R1364C
1329.934	1.087	1331836	WORD_OFF	n/a	n/a	GOLD	3	10	[0, 0, 0]	n/a	FR1	0	R1364C
1331.021	1.6	1332922	WORD	n/a	wordpools/wordpool_EN.txt	PALM	4	10	[0, 0, 0]	n/a	FR1	0	R1364C
1332.652	0.778	1334553	WORD_OFF	n/a	n/a	PALM	4	10	[0, 0, 0]	n/a	FR1	0	R1364C
1333.43	1.6	1335331	WORD	n/a	wordpools/wordpool_EN.txt	CAT	5	10	[0, 0, 0]	n/a	FR1	0	R1364C
1335.053	1.056	1336954	WORD_OFF	n/a	n/a	CAT	5	10	[0, 0, 0]	n/a	FR1	0	R1364C
1336.109	1.6	1338010	WORD	n/a	wordpools/wordpool_EN.txt	MOLE	6	10	[0, 0, 0]	n/a	FR1	0	R1364C
1337.736	1.043	1339637	WORD_OFF	n/a	n/a	MOLE	6	10	[0, 0, 0]	n/a	FR1	0	R1364C
1338.779	1.6	1340680	WORD	n/a	wordpools/wordpool_EN.txt	BED	7	10	[0, 0, 0]	n/a	FR1	0	R1364C
1340.404	1.134	1342305	WORD_OFF	n/a	n/a	BED	7	10	[0, 0, 0]	n/a	FR1	0	R1364C
1341.538	1.6	1343439	WORD	n/a	wordpools/wordpool_EN.txt	DOOR	8	10	[0, 0, 0]	n/a	FR1	0	R1364C
1343.171	1.053	1345072	WORD_OFF	n/a	n/a	DOOR	8	10	[0, 0, 0]	n/a	FR1	0	R1364C
1344.224	1.6	1346125	WORD	n/a	wordpools/wordpool_EN.txt	CLOUD	9	10	[0, 0, 0]	n/a	FR1	0	R1364C
1345.854	1.004	1347755	WORD_OFF	n/a	n/a	CLOUD	9	10	[0, 0, 0]	n/a	FR1	0	R1364C
1346.858	1.6	1348759	WORD	n/a	wordpools/wordpool_EN.txt	TOAD	10	10	[0, 0, 0]	n/a	FR1	0	R1364C
1348.489	0.972	1350390	WORD_OFF	n/a	n/a	TOAD	10	10	[0, 0, 0]	n/a	FR1	0	R1364C
1349.461	1.6	1351362	WORD	n/a	wordpools/wordpool_EN.txt	BEAN	11	10	[0, 0, 0]	n/a	FR1	0	R1364C
1351.089	1.089	1352989	WORD_OFF	n/a	n/a	BEAN	11	10	[0, 0, 0]	n/a	FR1	0	R1364C
1352.178	1.6	1354078	WORD	n/a	wordpools/wordpool_EN.txt	SHIP	12	10	[0, 0, 0]	n/a	FR1	0	R1364C
1353.806	0.0	1355706	WORD_OFF	n/a	n/a	SHIP	12	10	[0, 0, 0]	n/a	FR1	0	R1364C
1353.806	0.0	1355706	ENCODING_END	n/a	n/a	n/a	-999	10	[0, 0, 0]	n/a	FR1	0	R1364C
1353.806	0.001	1355706	DISTRACT_START	n/a	n/a	n/a	-999	10	[0, 0, 0]	n/a	FR1	0	R1364C
1353.807	0.015	1355707	START	n/a	n/a	n/a	-999	10	[-999, -999, -999]	n/a	FR1	0	R1364C
1353.822	5.568	1355722	PROB	5.535	n/a	n/a	-999	10	[4, 9, 6]	19.0	FR1	0	R1364C
1359.39	4.885	1361290	PROB	4.856	n/a	n/a	-999	10	[4, 2, 3]	9.0	FR1	0	R1364C
1364.275	7.085	1366175	PROB	7.061	n/a	n/a	-999	10	[2, 6, 9]	17.0	FR1	0	R1364C
1371.36	4.215	1373259	PROB	4.215	n/a	n/a	-999	10	[7, 2, 1]	10.0	FR1	0	R1364C
1375.575	0.018	1377474	STOP	n/a	n/a	n/a	-999	10	[-999, -999, -999]	n/a	FR1	0	R1364C
1375.593	0.626	1377492	DISTRACT_END	n/a	n/a	n/a	-999	10	[0, 0, 0]	n/a	FR1	0	R1364C
1376.219	1.6	1378118	RETRIEVAL_ORIENT_START	n/a	n/a	n/a	-999	10	[0, 0, 0]	n/a	FR1	0	R1364C
1377.777	0.0	1379676	RETRIEVAL_ORIENT_END	n/a	n/a	n/a	-999	10	[0, 0, 0]	n/a	FR1	0	R1364C
1377.777	1.16	1379676	REC_START	n/a	n/a	n/a	-999	10	[0, 0, 0]	n/a	FR1	0	R1364C
1378.937	1.187	1380836	REC_WORD	1.16	n/a	PALM	4	10	[0, 0, 0]	n/a	FR1	0	R1364C
1380.124	1.606	1382023	REC_WORD	2.347	n/a	CAKE	1	10	[0, 0, 0]	n/a	FR1	0	R1364C
1381.73	1.204	1383629	REC_WORD	3.953	n/a	PIN	2	10	[0, 0, 0]	n/a	FR1	0	R1364C
1382.934	2.642	1384833	REC_WORD	5.157	n/a	GOLD	3	10	[0, 0, 0]	n/a	FR1	0	R1364C
1385.576	3.085	1387475	REC_WORD	7.799	n/a	CLOUD	9	10	[0, 0, 0]	n/a	FR1	0	R1364C
1388.661	15.595	1390560	REC_WORD	10.884	n/a	DOOR	8	10	[0, 0, 0]	n/a	FR1	0	R1364C
1404.256	3.531	1406154	REC_WORD	26.479	n/a	FROG	-999	10	[0, 0, 0]	n/a	FR1	0	R1364C
1407.787	0.0	1409685	REC_END	n/a	n/a	n/a	-999	10	[0, 0, 0]	n/a	FR1	0	R1364C
1407.787	0.015	1409685	TRIAL_END	n/a	n/a	n/a	-999	10	[0, 0, 0]	n/a	FR1	0	R1364C
1407.802	0.0	1409700	TRIAL_START	n/a	n/a	n/a	-999	11	[0, 0, 0]	n/a	FR1	0	R1364C
1407.802	0.0	1409700	TRIAL	n/a	n/a	n/a	-999	11	[0, 0, 0]	n/a	FR1	0	R1364C
1407.802	2.881	1409700	WAITING_START	n/a	n/a	n/a	-999	11	[0, 0, 0]	n/a	FR1	0	R1364C
1410.683	0.0	1412580	WAITING_END	n/a	n/a	n/a	-999	11	[0, 0, 0]	n/a	FR1	0	R1364C
1410.683	10.0	1412580	COUNTDOWN_START	n/a	n/a	n/a	-999	11	[0, 0, 0]	n/a	FR1	0	R1364C
1421.113	0.0	1423010	COUNTDOWN_END	n/a	n/a	n/a	-999	11	[0, 0, 0]	n/a	FR1	0	R1364C
1421.113	1.173	1423010	ORIENT_START	n/a	n/a	n/a	-999	11	[0, 0, 0]	n/a	FR1	0	R1364C
1422.286	0.001	1424183	ORIENT_END	n/a	n/a	n/a	-999	11	[0, 0, 0]	n/a	FR1	0	R1364C
1422.287	1.016	1424184	ENCODING_START	n/a	n/a	n/a	-999	11	[0, 0, 0]	n/a	FR1	0	R1364C
1423.303	1.6	1425200	WORD	n/a	wordpools/wordpool_EN.txt	CLOTH	1	11	[0, 0, 0]	n/a	FR1	0	R1364C
1424.936	1.096	1426833	WORD_OFF	n/a	n/a	CLOTH	1	11	[0, 0, 0]	n/a	FR1	0	R1364C
1426.032	1.6	1427929	WORD	n/a	wordpools/wordpool_EN.txt	BEE	2	11	[0, 0, 0]	n/a	FR1	0	R1364C
1427.653	1.039	1429549	WORD_OFF	n/a	n/a	BEE	2	11	[0, 0, 0]	n/a	FR1	0	R1364C
1428.692	1.6	1430588	WORD	n/a	wordpools/wordpool_EN.txt	RAKE	3	11	[0, 0, 0]	n/a	FR1	0	R1364C
1430.321	0.775	1432217	WORD_OFF	n/a	n/a	RAKE	3	11	[0, 0, 0]	n/a	FR1	0	R1364C
1431.096	1.6	1432992	WORD	n/a	wordpools/wordpool_EN.txt	GUARD	4	11	[0, 0, 0]	n/a	FR1	0	R1364C
1432.721	0.841	1434617	WORD_OFF	n/a	n/a	GUARD	4	11	[0, 0, 0]	n/a	FR1	0	R1364C
1433.562	1.6	1435458	WORD	n/a	wordpools/wordpool_EN.txt	STOOL	5	11	[0, 0, 0]	n/a	FR1	0	R1364C
1435.189	0.946	1437085	WORD_OFF	n/a	n/a	STOOL	5	11	[0, 0, 0]	n/a	FR1	0	R1364C
1436.135	1.6	1438031	WORD	n/a	wordpools/wordpool_EN.txt	LAMP	6	11	[0, 0, 0]	n/a	FR1	0	R1364C
1437.771	1.085	1439667	WORD_OFF	n/a	n/a	LAMP	6	11	[0, 0, 0]	n/a	FR1	0	R1364C
1438.856	1.6	1440752	WORD	n/a	wordpools/wordpool_EN.txt	EGG	7	11	[0, 0, 0]	n/a	FR1	0	R1364C
1440.489	0.982	1442385	WORD_OFF	n/a	n/a	EGG	7	11	[0, 0, 0]	n/a	FR1	0	R1364C
1441.471	1.6	1443367	WORD	n/a	wordpools/wordpool_EN.txt	DART	8	11	[0, 0, 0]	n/a	FR1	0	R1364C
1443.107	0.983	1445003	WORD_OFF	n/a	n/a	DART	8	11	[0, 0, 0]	n/a	FR1	0	R1364C
1444.09	1.6	1445986	WORD	n/a	wordpools/wordpool_EN.txt	BEAR	9	11	[0, 0, 0]	n/a	FR1	0	R1364C
1445.723	0.993	1447619	WORD_OFF	n/a	n/a	BEAR	9	11	[0, 0, 0]	n/a	FR1	0	R1364C
1446.716	1.6	1448612	WORD	n/a	wordpools/wordpool_EN.txt	CONE	10	11	[0, 0, 0]	n/a	FR1	0	R1364C
1448.341	0.979	1450236	WORD_OFF	n/a	n/a	CONE	10	11	[0, 0, 0]	n/a	FR1	0	R1364C
1449.32	1.6	1451215	WORD	n/a	wordpools/wordpool_EN.txt	SPRING	11	11	[0, 0, 0]	n/a	FR1	0	R1364C
1450.957	1.112	1452852	WORD_OFF	n/a	n/a	SPRING	11	11	[0, 0, 0]	n/a	FR1	0	R1364C
1452.069	1.6	1453964	WORD	n/a	wordpools/wordpool_EN.txt	VASE	12	11	[0, 0, 0]	n/a	FR1	0	R1364C
1453.691	0.001	1455586	WORD_OFF	n/a	n/a	VASE	12	11	[0, 0, 0]	n/a	FR1	0	R1364C
1453.692	0.0	1455587	ENCODING_END	n/a	n/a	n/a	-999	11	[0, 0, 0]	n/a	FR1	0	R1364C
1453.692	0.0	1455587	DISTRACT_START	n/a	n/a	n/a	-999	11	[0, 0, 0]	n/a	FR1	0	R1364C
1453.692	0.015	1455587	START	n/a	n/a	n/a	-999	11	[-999, -999, -999]	n/a	FR1	0	R1364C
1453.707	5.168	1455602	PROB	5.139	n/a	n/a	-999	11	[8, 2, 3]	13.0	FR1	0	R1364C
1458.875	5.834	1460770	PROB	5.803	n/a	n/a	-999	11	[6, 1, 6]	13.0	FR1	0	R1364C
1464.709	4.885	1466604	PROB	4.849	n/a	n/a	-999	11	[9, 2, 6]	15.0	FR1	0	R1364C
1469.594	3.485	1471488	PROB	3.46	n/a	n/a	-999	11	[5, 5, 9]	19.0	FR1	0	R1364C
1473.079	5.559	1474973	PROB	5.559	n/a	n/a	-999	11	[5, 6, 3]	14.0	FR1	0	R1364C
1478.638	0.008	1480532	STOP	n/a	n/a	n/a	-999	11	[-999, -999, -999]	n/a	FR1	0	R1364C
1478.646	0.641	1480540	DISTRACT_END	n/a	n/a	n/a	-999	11	[0, 0, 0]	n/a	FR1	0	R1364C
1479.287	1.6	1481181	RETRIEVAL_ORIENT_START	n/a	n/a	n/a	-999	11	[0, 0, 0]	n/a	FR1	0	R1364C
1480.913	0.0	1482807	RETRIEVAL_ORIENT_END	n/a	n/a	n/a	-999	11	[0, 0, 0]	n/a	FR1	0	R1364C
1480.913	1.157	1482807	REC_START	n/a	n/a	n/a	-999	11	[0, 0, 0]	n/a	FR1	0	R1364C
1482.07	2.785	1483964	REC_WORD	1.157	n/a	CLOTH	1	11	[0, 0, 0]	n/a	FR1	0	R1364C
1484.855	11.12	1486749	REC_WORD	3.942	n/a	RAKE	3	11	[0, 0, 0]	n/a	FR1	0	R1364C
1495.975	10.548	1497868	REC_WORD	15.062	n/a	BEAR	9	11	[0, 0, 0]	n/a	FR1	0	R1364C
1506.523	4.402	1508415	REC_WORD	25.61	n/a	MOLE	-999	11	[0, 0, 0]	n/a	FR1	0	R1364C
1510.925	0.001	1512817	REC_END	n/a	n/a	n/a	-999	11	[0, 0, 0]	n/a	FR1	0	R1364C
1510.926	0.014	1512818	TRIAL_END	n/a	n/a	n/a	-999	11	[0, 0, 0]	n/a	FR1	0	R1364C
1510.94	0.0	1512832	WAITING_START	n/a	n/a	n/a	-999	12	[0, 0, 0]	n/a	FR1	0	R1364C
1510.94	0.0	1512832	TRIAL	n/a	n/a	n/a	-999	12	[0, 0, 0]	n/a	FR1	0	R1364C
1510.94	6.431	1512832	TRIAL_START	n/a	n/a	n/a	-999	12	[0, 0, 0]	n/a	FR1	0	R1364C
1517.371	0.0	1519263	WAITING_END	n/a	n/a	n/a	-999	12	[0, 0, 0]	n/a	FR1	0	R1364C
1517.371	10.0	1519263	COUNTDOWN_START	n/a	n/a	n/a	-999	12	[0, 0, 0]	n/a	FR1	0	R1364C
1527.8	0.0	1529691	COUNTDOWN_END	n/a	n/a	n/a	-999	12	[0, 0, 0]	n/a	FR1	0	R1364C
1527.8	1.172	1529691	ORIENT_START	n/a	n/a	n/a	-999	12	[0, 0, 0]	n/a	FR1	0	R1364C
1528.972	0.0	1530863	ORIENT_END	n/a	n/a	n/a	-999	12	[0, 0, 0]	n/a	FR1	0	R1364C
1528.972	0.762	1530863	ENCODING_START	n/a	n/a	n/a	-999	12	[0, 0, 0]	n/a	FR1	0	R1364C
1529.734	1.6	1531625	WORD	n/a	wordpools/wordpool_EN.txt	LAKE	1	12	[0, 0, 0]	n/a	FR1	0	R1364C
1531.373	1.083	1533264	WORD_OFF	n/a	n/a	LAKE	1	12	[0, 0, 0]	n/a	FR1	0	R1364C
1532.456	1.6	1534347	WORD	n/a	wordpools/wordpool_EN.txt	WOLF	2	12	[0, 0, 0]	n/a	FR1	0	R1364C
1534.09	1.097	1535981	WORD_OFF	n/a	n/a	WOLF	2	12	[0, 0, 0]	n/a	FR1	0	R1364C
1535.187	1.6	1537078	WORD	n/a	wordpools/wordpool_EN.txt	SOUP	3	12	[0, 0, 0]	n/a	FR1	0	R1364C
1536.823	0.985	1538714	WORD_OFF	n/a	n/a	SOUP	3	12	[0, 0, 0]	n/a	FR1	0	R1364C
1537.808	1.6	1539699	WORD	n/a	wordpools/wordpool_EN.txt	FARM	4	12	[0, 0, 0]	n/a	FR1	0	R1364C
1539.441	0.97	1541332	WORD_OFF	n/a	n/a	FARM	4	12	[0, 0, 0]	n/a	FR1	0	R1364C
1540.411	1.6	1542302	WORD	n/a	wordpools/wordpool_EN.txt	WHALE	5	12	[0, 0, 0]	n/a	FR1	0	R1364C
1542.042	0.877	1543933	WORD_OFF	n/a	n/a	WHALE	5	12	[0, 0, 0]	n/a	FR1	0	R1364C
1542.919	1.6	1544810	WORD	n/a	wordpools/wordpool_EN.txt	BRANCH	6	12	[0, 0, 0]	n/a	FR1	0	R1364C
1544.558	0.988	1546448	WORD_OFF	n/a	n/a	BRANCH	6	12	[0, 0, 0]	n/a	FR1	0	R1364C
1545.546	1.6	1547436	WORD	n/a	wordpools/wordpool_EN.txt	BEACH	7	12	[0, 0, 0]	n/a	FR1	0	R1364C
1547.176	1.008	1549066	WORD_OFF	n/a	n/a	BEACH	7	12	[0, 0, 0]	n/a	FR1	0	R1364C
1548.184	1.6	1550074	WORD	n/a	wordpools/wordpool_EN.txt	INK	8	12	[0, 0, 0]	n/a	FR1	0	R1364C
1549.809	0.886	1551699	WORD_OFF	n/a	n/a	INK	8	12	[0, 0, 0]	n/a	FR1	0	R1364C
1550.695	1.6	1552585	WORD	n/a	wordpools/wordpool_EN.txt	BROOM	9	12	[0, 0, 0]	n/a	FR1	0	R1364C
1552.327	0.959	1554217	WORD_OFF	n/a	n/a	BROOM	9	12	[0, 0, 0]	n/a	FR1	0	R1364C
1553.286	1.6	1555176	WORD	n/a	wordpools/wordpool_EN.txt	WING	10	12	[0, 0, 0]	n/a	FR1	0	R1364C
1554.91	1.062	1556800	WORD_OFF	n/a	n/a	WING	10	12	[0, 0, 0]	n/a	FR1	0	R1364C
1555.972	1.6	1557862	WORD	n/a	wordpools/wordpool_EN.txt	CLAY	11	12	[0, 0, 0]	n/a	FR1	0	R1364C
1557.61	1.086	1559500	WORD_OFF	n/a	n/a	CLAY	11	12	[0, 0, 0]	n/a	FR1	0	R1364C
1558.696	1.6	1560586	WORD	n/a	wordpools/wordpool_EN.txt	SNAKE	12	12	[0, 0, 0]	n/a	FR1	0	R1364C
1560.329	0.0	1562219	WORD_OFF	n/a	n/a	SNAKE	12	12	[0, 0, 0]	n/a	FR1	0	R1364C
1560.329	0.001	1562219	ENCODING_END	n/a	n/a	n/a	-999	12	[0, 0, 0]	n/a	FR1	0	R1364C
1560.33	0.0	1562220	DISTRACT_START	n/a	n/a	n/a	-999	12	[0, 0, 0]	n/a	FR1	0	R1364C
1560.33	0.015	1562220	START	n/a	n/a	n/a	-999	12	[-999, -999, -999]	n/a	FR1	0	R1364C
1560.345	9.184	1562235	PROB	9.152	n/a	n/a	-999	12	[5, 8, 9]	22.0	FR1	0	R1364C
1569.529	3.802	1571418	PROB	3.776	n/a	n/a	-999	12	[3, 3, 4]	10.0	FR1	0	R1364C
1573.331	2.884	1575220	PROB	2.855	n/a	n/a	-999	12	[8, 6, 1]	15.0	FR1	0	R1364C
1576.215	4.266	1578104	PROB	4.266	n/a	n/a	-999	12	[2, 6, 8]	16.0	FR1	0	R1364C
1580.481	0.018	1582370	STOP	n/a	n/a	n/a	-999	12	[-999, -999, -999]	n/a	FR1	0	R1364C
1580.499	0.52	1582388	DISTRACT_END	n/a	n/a	n/a	-999	12	[0, 0, 0]	n/a	FR1	0	R1364C
1581.019	1.6	1582908	RETRIEVAL_ORIENT_START	n/a	n/a	n/a	-999	12	[0, 0, 0]	n/a	FR1	0	R1364C
1582.648	0.001	1584536	RETRIEVAL_ORIENT_END	n/a	n/a	n/a	-999	12	[0, 0, 0]	n/a	FR1	0	R1364C
1582.649	1.056	1584537	REC_START	n/a	n/a	n/a	-999	12	[0, 0, 0]	n/a	FR1	0	R1364C
1583.705	3.007	1585593	REC_WORD	1.056	n/a	FARM	4	12	[0, 0, 0]	n/a	FR1	0	R1364C
1586.712	2.306	1588600	REC_WORD	4.063	n/a	LAKE	1	12	[0, 0, 0]	n/a	FR1	0	R1364C
1589.018	2.725	1590906	REC_WORD	6.369	n/a	WOLF	2	12	[0, 0, 0]	n/a	FR1	0	R1364C
1591.743	4.676	1593631	REC_WORD	9.094	n/a	STEW	-999	12	[0, 0, 0]	n/a	FR1	0	R1364C
1596.419	2.63	1598307	REC_WORD	13.77	n/a	BRANCH	6	12	[0, 0, 0]	n/a	FR1	0	R1364C
1599.049	5.561	1600937	REC_WORD	16.4	n/a	BREAK	-999	12	[0, 0, 0]	n/a	FR1	0	R1364C
1604.61	1.871	1606497	REC_WORD	21.961	n/a	CLAY	11	12	[0, 0, 0]	n/a	FR1	0	R1364C
1606.481	6.179	1608368	REC_WORD	23.832	n/a	FARM	4	12	[0, 0, 0]	n/a	FR1	0	R1364C
1612.66	0.0	1614547	REC_END	n/a	n/a	n/a	-999	12	[0, 0, 0]	n/a	FR1	0	R1364C
1612.66	0.015	1614547	TRIAL_END	n/a	n/a	n/a	-999	12	[0, 0, 0]	n/a	FR1	0	R1364C
1612.675	0.0	1614562	TRIAL	n/a	n/a	n/a	-999	13	[0, 0, 0]	n/a	FR1	0	R1364C
1612.675	0.0	1614562	WAITING_START	n/a	n/a	n/a	-999	13	[0, 0, 0]	n/a	FR1	0	R1364C
1612.675	2.564	1614562	TRIAL_START	n/a	n/a	n/a	-999	13	[0, 0, 0]	n/a	FR1	0	R1364C
1615.239	0.001	1617126	WAITING_END	n/a	n/a	n/a	-999	13	[0, 0, 0]	n/a	FR1	0	R1364C
1615.24	10.0	1617127	COUNTDOWN_START	n/a	n/a	n/a	-999	13	[0, 0, 0]	n/a	FR1	0	R1364C
1625.669	0.0	1627555	COUNTDOWN_END	n/a	n/a	n/a	-999	13	[0, 0, 0]	n/a	FR1	0	R1364C
1625.669	1.088	1627555	ORIENT_START	n/a	n/a	n/a	-999	13	[0, 0, 0]	n/a	FR1	0	R1364C
1626.757	0.0	1628643	ORIENT_END	n/a	n/a	n/a	-999	13	[0, 0, 0]	n/a	FR1	0	R1364C
1626.757	0.852	1628643	ENCODING_START	n/a	n/a	n/a	-999	13	[0, 0, 0]	n/a	FR1	0	R1364C
1627.609	1.6	1629495	WORD	n/a	wordpools/wordpool_EN.txt	PEARL	1	13	[0, 0, 0]	n/a	FR1	0	R1364C
1629.242	1.088	1631128	WORD_OFF	n/a	n/a	PEARL	1	13	[0, 0, 0]	n/a	FR1	0	R1364C
1630.33	1.6	1632216	WORD	n/a	wordpools/wordpool_EN.txt	MUG	2	13	[0, 0, 0]	n/a	FR1	0	R1364C
1631.958	0.919	1633844	WORD_OFF	n/a	n/a	MUG	2	13	[0, 0, 0]	n/a	FR1	0	R1364C
1632.877	1.6	1634763	WORD	n/a	wordpools/wordpool_EN.txt	VEST	3	13	[0, 0, 0]	n/a	FR1	0	R1364C
1634.492	0.966	1636378	WORD_OFF	n/a	n/a	VEST	3	13	[0, 0, 0]	n/a	FR1	0	R1364C
1635.458	1.6	1637344	WORD	n/a	wordpools/wordpool_EN.txt	KEY	4	13	[0, 0, 0]	n/a	FR1	0	R1364C
1637.093	0.829	1638979	WORD_OFF	n/a	n/a	KEY	4	13	[0, 0, 0]	n/a	FR1	0	R1364C
1637.922	1.6	1639808	WORD	n/a	wordpools/wordpool_EN.txt	ARM	5	13	[0, 0, 0]	n/a	FR1	0	R1364C
1639.559	1.137	1641445	WORD_OFF	n/a	n/a	ARM	5	13	[0, 0, 0]	n/a	FR1	0	R1364C
1640.696	1.6	1642581	WORD	n/a	wordpools/wordpool_EN.txt	CROWN	6	13	[0, 0, 0]	n/a	FR1	0	R1364C
1642.31	0.761	1644195	WORD_OFF	n/a	n/a	CROWN	6	13	[0, 0, 0]	n/a	FR1	0	R1364C
1643.071	1.6	1644956	WORD	n/a	wordpools/wordpool_EN.txt	LAND	7	13	[0, 0, 0]	n/a	FR1	0	R1364C
1644.693	0.881	1646578	WORD_OFF	n/a	n/a	LAND	7	13	[0, 0, 0]	n/a	FR1	0	R1364C
1645.574	1.6	1647459	WORD	n/a	wordpools/wordpool_EN.txt	SLUSH	8	13	[0, 0, 0]	n/a	FR1	0	R1364C
1647.212	1.069	1649097	WORD_OFF	n/a	n/a	SLUSH	8	13	[0, 0, 0]	n/a	FR1	0	R1364C
1648.281	1.6	1650166	WORD	n/a	wordpools/wordpool_EN.txt	SHELL	9	13	[0, 0, 0]	n/a	FR1	0	R1364C
1649.911	1.059	1651796	WORD_OFF	n/a	n/a	SHELL	9	13	[0, 0, 0]	n/a	FR1	0	R1364C
1650.97	1.6	1652855	WORD	n/a	wordpools/wordpool_EN.txt	SIGN	10	13	[0, 0, 0]	n/a	FR1	0	R1364C
1652.595	0.899	1654480	WORD_OFF	n/a	n/a	SIGN	10	13	[0, 0, 0]	n/a	FR1	0	R1364C
1653.494	1.6	1655379	WORD	n/a	wordpools/wordpool_EN.txt	BOWL	11	13	[0, 0, 0]	n/a	FR1	0	R1364C
1655.13	0.923	1657015	WORD_OFF	n/a	n/a	BOWL	11	13	[0, 0, 0]	n/a	FR1	0	R1364C
1656.053	1.6	1657938	WORD	n/a	wordpools/wordpool_EN.txt	ROOT	12	13	[0, 0, 0]	n/a	FR1	0	R1364C
1657.679	0.001	1659564	WORD_OFF	n/a	n/a	ROOT	12	13	[0, 0, 0]	n/a	FR1	0	R1364C
1657.68	0.0	1659565	ENCODING_END	n/a	n/a	n/a	-999	13	[0, 0, 0]	n/a	FR1	0	R1364C
1657.68	0.0	1659565	DISTRACT_START	n/a	n/a	n/a	-999	13	[0, 0, 0]	n/a	FR1	0	R1364C
1657.68	0.016	1659565	START	n/a	n/a	n/a	-999	13	[-999, -999, -999]	n/a	FR1	0	R1364C
1657.696	6.067	1659581	PROB	6.038	n/a	n/a	-999	13	[8, 9, 7]	24.0	FR1	0	R1364C
1663.763	5.352	1665647	PROB	5.315	n/a	n/a	-999	13	[8, 5, 6]	19.0	FR1	0	R1364C
1669.115	2.583	1670999	PROB	2.554	n/a	n/a	-999	13	[4, 4, 8]	16.0	FR1	0	R1364C
1671.698	3.084	1673582	PROB	3.05	n/a	n/a	-999	13	[6, 2, 7]	15.0	FR1	0	R1364C
1674.782	3.95	1676666	PROB	3.95	n/a	n/a	-999	13	[5, 2, 3]	10.0	FR1	0	R1364C
1678.732	0.018	1680616	STOP	n/a	n/a	n/a	-999	13	[-999, -999, -999]	n/a	FR1	0	R1364C
1678.75	0.578	1680634	DISTRACT_END	n/a	n/a	n/a	-999	13	[0, 0, 0]	n/a	FR1	0	R1364C
1679.328	1.6	1681211	RETRIEVAL_ORIENT_START	n/a	n/a	n/a	-999	13	[0, 0, 0]	n/a	FR1	0	R1364C
1680.85	0.001	1682733	RETRIEVAL_ORIENT_END	n/a	n/a	n/a	-999	13	[0, 0, 0]	n/a	FR1	0	R1364C
1680.851	0.558	1682734	REC_START	n/a	n/a	n/a	-999	13	[0, 0, 0]	n/a	FR1	0	R1364C
1681.409	1.692	1683292	REC_WORD	0.558	n/a	CROWN	6	13	[0, 0, 0]	n/a	FR1	0	R1364C
1683.101	10.167	1684984	REC_WORD	2.25	n/a	ARM	5	13	[0, 0, 0]	n/a	FR1	0	R1364C
1693.268	0.915	1695151	REC_WORD	12.417	n/a	LAND	7	13	[0, 0, 0]	n/a	FR1	0	R1364C
1694.183	16.681	1696066	REC_WORD	13.332	n/a	SLUSH	8	13	[0, 0, 0]	n/a	FR1	0	R1364C
1710.864	0.0	1712746	REC_END	n/a	n/a	n/a	-999	13	[0, 0, 0]	n/a	FR1	0	R1364C
1710.864	0.014	1712746	TRIAL_END	n/a	n/a	n/a	-999	13	[0, 0, 0]	n/a	FR1	0	R1364C
1710.878	0.001	1712760	TRIAL_START	n/a	n/a	n/a	-999	14	[0, 0, 0]	n/a	FR1	0	R1364C
1710.879	0.0	1712761	TRIAL	n/a	n/a	n/a	-999	14	[0, 0, 0]	n/a	FR1	0	R1364C
1710.879	4.446	1712761	WAITING_START	n/a	n/a	n/a	-999	14	[0, 0, 0]	n/a	FR1	0	R1364C
1715.325	0.0	1717207	WAITING_END	n/a	n/a	n/a	-999	14	[0, 0, 0]	n/a	FR1	0	R1364C
1715.325	10.0	1717207	COUNTDOWN_START	n/a	n/a	n/a	-999	14	[0, 0, 0]	n/a	FR1	0	R1364C
1725.753	0.001	1727634	COUNTDOWN_END	n/a	n/a	n/a	-999	14	[0, 0, 0]	n/a	FR1	0	R1364C
1725.754	1.022	1727635	ORIENT_START	n/a	n/a	n/a	-999	14	[0, 0, 0]	n/a	FR1	0	R1364C
1726.776	0.0	1728657	ORIENT_END	n/a	n/a	n/a	-999	14	[0, 0, 0]	n/a	FR1	0	R1364C
1726.776	0.976	1728657	ENCODING_START	n/a	n/a	n/a	-999	14	[0, 0, 0]	n/a	FR1	0	R1364C
1727.752	1.6	1729633	WORD	n/a	wordpools/wordpool_EN.txt	THREAD	1	14	[0, 0, 0]	n/a	FR1	0	R1364C
1729.377	0.78	1731258	WORD_OFF	n/a	n/a	THREAD	1	14	[0, 0, 0]	n/a	FR1	0	R1364C
1730.157	1.6	1732038	WORD	n/a	wordpools/wordpool_EN.txt	CROW	2	14	[0, 0, 0]	n/a	FR1	0	R1364C
1731.793	1.025	1733674	WORD_OFF	n/a	n/a	CROW	2	14	[0, 0, 0]	n/a	FR1	0	R1364C
1732.818	1.6	1734699	WORD	n/a	wordpools/wordpool_EN.txt	PET	3	14	[0, 0, 0]	n/a	FR1	0	R1364C
1734.428	0.788	1736309	WORD_OFF	n/a	n/a	PET	3	14	[0, 0, 0]	n/a	FR1	0	R1364C
1735.216	1.6	1737097	WORD	n/a	wordpools/wordpool_EN.txt	PLANE	4	14	[0, 0, 0]	n/a	FR1	0	R1364C
1736.844	0.884	1738725	WORD_OFF	n/a	n/a	PLANE	4	14	[0, 0, 0]	n/a	FR1	0	R1364C
1737.728	1.6	1739608	WORD	n/a	wordpools/wordpool_EN.txt	POND	5	14	[0, 0, 0]	n/a	FR1	0	R1364C
1739.362	0.849	1741242	WORD_OFF	n/a	n/a	POND	5	14	[0, 0, 0]	n/a	FR1	0	R1364C
1740.211	1.6	1742091	WORD	n/a	wordpools/wordpool_EN.txt	LEG	6	14	[0, 0, 0]	n/a	FR1	0	R1364C
1741.845	0.785	1743725	WORD_OFF	n/a	n/a	LEG	6	14	[0, 0, 0]	n/a	FR1	0	R1364C
1742.63	1.6	1744510	WORD	n/a	wordpools/wordpool_EN.txt	PURSE	7	14	[0, 0, 0]	n/a	FR1	0	R1364C
1744.263	0.836	1746143	WORD_OFF	n/a	n/a	PURSE	7	14	[0, 0, 0]	n/a	FR1	0	R1364C
1745.099	1.6	1746979	WORD	n/a	wordpools/wordpool_EN.txt	SAIL	8	14	[0, 0, 0]	n/a	FR1	0	R1364C
1746.729	0.765	1748609	WORD_OFF	n/a	n/a	SAIL	8	14	[0, 0, 0]	n/a	FR1	0	R1364C
1747.494	1.6	1749374	WORD	n/a	wordpools/wordpool_EN.txt	SWAMP	9	14	[0, 0, 0]	n/a	FR1	0	R1364C
1749.131	0.88	1751011	WORD_OFF	n/a	n/a	SWAMP	9	14	[0, 0, 0]	n/a	FR1	0	R1364C
1750.011	1.6	1751891	WORD	n/a	wordpools/wordpool_EN.txt	CUBE	10	14	[0, 0, 0]	n/a	FR1	0	R1364C
1751.647	0.989	1753527	WORD_OFF	n/a	n/a	CUBE	10	14	[0, 0, 0]	n/a	FR1	0	R1364C
1752.636	1.6	1754516	WORD	n/a	wordpools/wordpool_EN.txt	BRUSH	11	14	[0, 0, 0]	n/a	FR1	0	R1364C
1754.265	0.957	1756145	WORD_OFF	n/a	n/a	BRUSH	11	14	[0, 0, 0]	n/a	FR1	0	R1364C
1755.222	1.6	1757102	WORD	n/a	wordpools/wordpool_EN.txt	OAR	12	14	[0, 0, 0]	n/a	FR1	0	R1364C
1756.848	0.0	1758727	WORD_OFF	n/a	n/a	OAR	12	14	[0, 0, 0]	n/a	FR1	0	R1364C
1756.848	0.001	1758727	ENCODING_END	n/a	n/a	n/a	-999	14	[0, 0, 0]	n/a	FR1	0	R1364C
1756.849	0.0	1758728	DISTRACT_START	n/a	n/a	n/a	-999	14	[0, 0, 0]	n/a	FR1	0	R1364C
1756.849	0.015	1758728	START	n/a	n/a	n/a	-999	14	[-999, -999, -999]	n/a	FR1	0	R1364C
1756.864	5.068	1758743	PROB	5.041	n/a	n/a	-999	14	[1, 7, 2]	10.0	FR1	0	R1364C
1761.932	9.751	1763811	PROB	9.713	n/a	n/a	-999	14	[6, 3, 9]	18.0	FR1	0	R1364C
1771.683	4.835	1773562	PROB	4.804	n/a	n/a	-999	14	[7, 4, 3]	14.0	FR1	0	R1364C
1776.518	3.569	1778396	PROB	3.569	n/a	n/a	-999	14	[7, 2, 8]	17.0	FR1	0	R1364C
1780.087	0.016	1781965	STOP	n/a	n/a	n/a	-999	14	[-999, -999, -999]	n/a	FR1	0	R1364C
1780.103	0.513	1781981	DISTRACT_END	n/a	n/a	n/a	-999	14	[0, 0, 0]	n/a	FR1	0	R1364C
1780.616	1.6	1782494	RETRIEVAL_ORIENT_START	n/a	n/a	n/a	-999	14	[0, 0, 0]	n/a	FR1	0	R1364C
1782.253	0.001	1784131	RETRIEVAL_ORIENT_END	n/a	n/a	n/a	-999	14	[0, 0, 0]	n/a	FR1	0	R1364C
1782.254	1.014	1784132	REC_START	n/a	n/a	n/a	-999	14	[0, 0, 0]	n/a	FR1	0	R1364C
1783.268	1.199	1785146	REC_WORD	1.014	n/a	SAIL	8	14	[0, 0, 0]	n/a	FR1	0	R1364C
1784.467	1.545	1786345	REC_WORD	2.213	n/a	OAR	12	14	[0, 0, 0]	n/a	FR1	0	R1364C
1786.012	1.349	1787890	REC_WORD	3.758	n/a	SWAMP	9	14	[0, 0, 0]	n/a	FR1	0	R1364C
1787.361	2.215	1789239	REC_WORD	5.107	n/a	POND	5	14	[0, 0, 0]	n/a	FR1	0	R1364C
1789.576	1.389	1791454	REC_WORD	7.322	n/a	BRUSH	11	14	[0, 0, 0]	n/a	FR1	0	R1364C
1790.965	21.301	1792843	REC_WORD	8.711	n/a	TRHEAD	-999	14	[0, 0, 0]	n/a	FR1	0	R1364C
1812.266	0.0	1814143	TRIAL_END	n/a	n/a	n/a	-999	14	[0, 0, 0]	n/a	FR1	0	R1364C
1812.266	0.014	1814143	REC_END	n/a	n/a	n/a	-999	14	[0, 0, 0]	n/a	FR1	0	R1364C
1812.28	0.001	1814157	TRIAL_START	n/a	n/a	n/a	-999	15	[0, 0, 0]	n/a	FR1	0	R1364C
1812.281	0.0	1814158	TRIAL	n/a	n/a	n/a	-999	15	[0, 0, 0]	n/a	FR1	0	R1364C
1812.281	2.361	1814158	WAITING_START	n/a	n/a	n/a	-999	15	[0, 0, 0]	n/a	FR1	0	R1364C
1814.642	0.001	1816518	WAITING_END	n/a	n/a	n/a	-999	15	[0, 0, 0]	n/a	FR1	0	R1364C
1814.643	10.0	1816519	COUNTDOWN_START	n/a	n/a	n/a	-999	15	[0, 0, 0]	n/a	FR1	0	R1364C
1825.072	0.0	1826948	COUNTDOWN_END	n/a	n/a	n/a	-999	15	[0, 0, 0]	n/a	FR1	0	R1364C
1825.072	1.157	1826948	ORIENT_START	n/a	n/a	n/a	-999	15	[0, 0, 0]	n/a	FR1	0	R1364C
1826.229	0.0	1828105	ENCODING_START	n/a	n/a	n/a	-999	15	[0, 0, 0]	n/a	FR1	0	R1364C
1826.229	0.928	1828105	ORIENT_END	n/a	n/a	n/a	-999	15	[0, 0, 0]	n/a	FR1	0	R1364C
1827.157	1.6	1829033	WORD	n/a	wordpools/wordpool_EN.txt	HOLE	1	15	[0, 0, 0]	n/a	FR1	0	R1364C
1828.795	0.796	1830671	WORD_OFF	n/a	n/a	HOLE	1	15	[0, 0, 0]	n/a	FR1	0	R1364C
1829.591	1.6	1831467	WORD	n/a	wordpools/wordpool_EN.txt	SQUARE	2	15	[0, 0, 0]	n/a	FR1	0	R1364C
1831.212	0.946	1833088	WORD_OFF	n/a	n/a	SQUARE	2	15	[0, 0, 0]	n/a	FR1	0	R1364C
1832.158	1.6	1834034	WORD	n/a	wordpools/wordpool_EN.txt	STREET	3	15	[0, 0, 0]	n/a	FR1	0	R1364C
1833.796	1.091	1835671	WORD_OFF	n/a	n/a	STREET	3	15	[0, 0, 0]	n/a	FR1	0	R1364C
1834.887	1.6	1836762	WORD	n/a	wordpools/wordpool_EN.txt	DOG	4	15	[0, 0, 0]	n/a	FR1	0	R1364C
1836.513	0.764	1838388	WORD_OFF	n/a	n/a	DOG	4	15	[0, 0, 0]	n/a	FR1	0	R1364C
1837.277	1.6	1839152	WORD	n/a	wordpools/wordpool_EN.txt	SEED	5	15	[0, 0, 0]	n/a	FR1	0	R1364C
1838.913	1.055	1840788	WORD_OFF	n/a	n/a	SEED	5	15	[0, 0, 0]	n/a	FR1	0	R1364C
1839.968	1.6	1841843	WORD	n/a	wordpools/wordpool_EN.txt	STAIR	6	15	[0, 0, 0]	n/a	FR1	0	R1364C
1841.597	0.961	1843472	WORD_OFF	n/a	n/a	STAIR	6	15	[0, 0, 0]	n/a	FR1	0	R1364C
1842.558	1.6	1844433	WORD	n/a	wordpools/wordpool_EN.txt	THUMB	7	15	[0, 0, 0]	n/a	FR1	0	R1364C
1844.181	0.767	1846056	WORD_OFF	n/a	n/a	THUMB	7	15	[0, 0, 0]	n/a	FR1	0	R1364C
1844.948	1.6	1846823	WORD	n/a	wordpools/wordpool_EN.txt	SPONGE	8	15	[0, 0, 0]	n/a	FR1	0	R1364C
1846.583	0.983	1848458	WORD_OFF	n/a	n/a	SPONGE	8	15	[0, 0, 0]	n/a	FR1	0	R1364C
1847.566	1.6	1849441	WORD	n/a	wordpools/wordpool_EN.txt	SCHOOL	9	15	[0, 0, 0]	n/a	FR1	0	R1364C
1849.182	1.03	1851057	WORD_OFF	n/a	n/a	SCHOOL	9	15	[0, 0, 0]	n/a	FR1	0	R1364C
1850.212	1.6	1852087	WORD	n/a	wordpools/wordpool_EN.txt	BUSH	10	15	[0, 0, 0]	n/a	FR1	0	R1364C
1851.849	0.783	1853724	WORD_OFF	n/a	n/a	BUSH	10	15	[0, 0, 0]	n/a	FR1	0	R1364C
1852.632	1.6	1854507	WORD	n/a	wordpools/wordpool_EN.txt	BOX	11	15	[0, 0, 0]	n/a	FR1	0	R1364C
1854.267	0.816	1856141	WORD_OFF	n/a	n/a	BOX	11	15	[0, 0, 0]	n/a	FR1	0	R1364C
1855.083	1.6	1856957	WORD	n/a	wordpools/wordpool_EN.txt	SALT	12	15	[0, 0, 0]	n/a	FR1	0	R1364C
1856.717	0.0	1858591	WORD_OFF	n/a	n/a	SALT	12	15	[0, 0, 0]	n/a	FR1	0	R1364C
1856.717	0.001	1858591	ENCODING_END	n/a	n/a	n/a	-999	15	[0, 0, 0]	n/a	FR1	0	R1364C
1856.718	0.0	1858592	DISTRACT_START	n/a	n/a	n/a	-999	15	[0, 0, 0]	n/a	FR1	0	R1364C
1856.718	0.015	1858592	START	n/a	n/a	n/a	-999	15	[-999, -999, -999]	n/a	FR1	0	R1364C
1856.733	6.752	1858607	PROB	6.724	n/a	n/a	-999	15	[2, 7, 5]	14.0	FR1	0	R1364C
1863.485	6.5	1865359	PROB	6.466	n/a	n/a	-999	15	[8, 7, 5]	20.0	FR1	0	R1364C
1869.985	3.202	1871859	PROB	3.168	n/a	n/a	-999	15	[1, 3, 1]	5.0	FR1	0	R1364C
1873.187	2.25	1875060	PROB	2.213	n/a	n/a	-999	15	[5, 5, 1]	11.0	FR1	0	R1364C
1875.437	2.395	1877310	PROB	2.395	n/a	n/a	-999	15	[4, 1, 4]	9.0	FR1	0	R1364C
1877.832	0.022	1879705	STOP	n/a	n/a	n/a	-999	15	[-999, -999, -999]	n/a	FR1	0	R1364C
1877.854	0.651	1879727	DISTRACT_END	n/a	n/a	n/a	-999	15	[0, 0, 0]	n/a	FR1	0	R1364C
1878.505	1.6	1880378	RETRIEVAL_ORIENT_START	n/a	n/a	n/a	-999	15	[0, 0, 0]	n/a	FR1	0	R1364C
1880.039	0.0	1881912	REC_START	n/a	n/a	n/a	-999	15	[0, 0, 0]	n/a	FR1	0	R1364C
1880.039	0.533	1881912	RETRIEVAL_ORIENT_END	n/a	n/a	n/a	-999	15	[0, 0, 0]	n/a	FR1	0	R1364C
1880.572	1.426	1882445	REC_WORD	0.533	n/a	SQUARE	2	15	[0, 0, 0]	n/a	FR1	0	R1364C
1881.998	0.699	1883871	REC_WORD	1.959	n/a	HOLE	1	15	[0, 0, 0]	n/a	FR1	0	R1364C
1882.697	2.954	1884570	REC_WORD	2.658	n/a	STREET	3	15	[0, 0, 0]	n/a	FR1	0	R1364C
1885.651	1.381	1887524	REC_WORD	5.612	n/a	DOG	4	15	[0, 0, 0]	n/a	FR1	0	R1364C
1887.032	1.551	1888905	REC_WORD	6.993	n/a	THUMB	7	15	[0, 0, 0]	n/a	FR1	0	R1364C
1888.583	2.792	1890456	REC_WORD	8.544	n/a	SPONGE	8	15	[0, 0, 0]	n/a	FR1	0	R1364C
1891.375	2.925	1893248	REC_WORD	11.336	n/a	BUSH	10	15	[0, 0, 0]	n/a	FR1	0	R1364C
1894.3	12.068	1896172	REC_WORD	14.261	n/a	SEED	5	15	[0, 0, 0]	n/a	FR1	0	R1364C
1906.368	3.682	1908240	REC_WORD	26.329	n/a	STAIR	6	15	[0, 0, 0]	n/a	FR1	0	R1364C
1910.05	0.0	1911922	REC_END	n/a	n/a	n/a	-999	15	[0, 0, 0]	n/a	FR1	0	R1364C
1910.05	0.016	1911922	TRIAL_END	n/a	n/a	n/a	-999	15	[0, 0, 0]	n/a	FR1	0	R1364C
1910.066	0.001	1911938	TRIAL_START	n/a	n/a	n/a	-999	16	[0, 0, 0]	n/a	FR1	0	R1364C
1910.067	0.0	1911939	TRIAL	n/a	n/a	n/a	-999	16	[0, 0, 0]	n/a	FR1	0	R1364C
1910.067	2.145	1911939	WAITING_START	n/a	n/a	n/a	-999	16	[0, 0, 0]	n/a	FR1	0	R1364C
1912.212	0.0	1914083	WAITING_END	n/a	n/a	n/a	-999	16	[0, 0, 0]	n/a	FR1	0	R1364C
1912.212	10.0	1914083	COUNTDOWN_START	n/a	n/a	n/a	-999	16	[0, 0, 0]	n/a	FR1	0	R1364C
1922.641	0.0	1924512	COUNTDOWN_END	n/a	n/a	n/a	-999	16	[0, 0, 0]	n/a	FR1	0	R1364C
1922.641	1.021	1924512	ORIENT_START	n/a	n/a	n/a	-999	16	[0, 0, 0]	n/a	FR1	0	R1364C
1923.662	0.001	1925533	ORIENT_END	n/a	n/a	n/a	-999	16	[0, 0, 0]	n/a	FR1	0	R1364C
1923.663	0.805	1925534	ENCODING_START	n/a	n/a	n/a	-999	16	[0, 0, 0]	n/a	FR1	0	R1364C
1924.468	1.6	1926339	WORD	n/a	wordpools/wordpool_EN.txt	WALL	1	16	[0, 0, 0]	n/a	FR1	0	R1364C
1926.097	1.069	1927968	WORD_OFF	n/a	n/a	WALL	1	16	[0, 0, 0]	n/a	FR1	0	R1364C
1927.166	1.6	1929037	WORD	n/a	wordpools/wordpool_EN.txt	WHEEL	2	16	[0, 0, 0]	n/a	FR1	0	R1364C
1928.797	0.964	1930668	WORD_OFF	n/a	n/a	WHEEL	2	16	[0, 0, 0]	n/a	FR1	0	R1364C
1929.761	1.6	1931632	WORD	n/a	wordpools/wordpool_EN.txt	DOLL	3	16	[0, 0, 0]	n/a	FR1	0	R1364C
1931.381	0.98	1933251	WORD_OFF	n/a	n/a	DOLL	3	16	[0, 0, 0]	n/a	FR1	0	R1364C
1932.361	1.6	1934231	WORD	n/a	wordpools/wordpool_EN.txt	ROOM	4	16	[0, 0, 0]	n/a	FR1	0	R1364C
1933.999	1.089	1935869	WORD_OFF	n/a	n/a	ROOM	4	16	[0, 0, 0]	n/a	FR1	0	R1364C
1935.088	1.6	1936958	WORD	n/a	wordpools/wordpool_EN.txt	RIB	5	16	[0, 0, 0]	n/a	FR1	0	R1364C
1936.716	0.954	1938586	WORD_OFF	n/a	n/a	RIB	5	16	[0, 0, 0]	n/a	FR1	0	R1364C
1937.67	1.6	1939540	WORD	n/a	wordpools/wordpool_EN.txt	BATH	6	16	[0, 0, 0]	n/a	FR1	0	R1364C
1939.3	0.938	1941170	WORD_OFF	n/a	n/a	BATH	6	16	[0, 0, 0]	n/a	FR1	0	R1364C
1940.238	1.6	1942108	WORD	n/a	wordpools/wordpool_EN.txt	ROAD	7	16	[0, 0, 0]	n/a	FR1	0	R1364C
1941.866	1.149	1943736	WORD_OFF	n/a	n/a	ROAD	7	16	[0, 0, 0]	n/a	FR1	0	R1364C
1943.015	1.6	1944885	WORD	n/a	wordpools/wordpool_EN.txt	MOON	8	16	[0, 0, 0]	n/a	FR1	0	R1364C
1944.65	1.026	1946520	WORD_OFF	n/a	n/a	MOON	8	16	[0, 0, 0]	n/a	FR1	0	R1364C
1945.676	1.6	1947546	WORD	n/a	wordpools/wordpool_EN.txt	BLOOM	9	16	[0, 0, 0]	n/a	FR1	0	R1364C
1947.301	0.789	1949171	WORD_OFF	n/a	n/a	BLOOM	9	16	[0, 0, 0]	n/a	FR1	0	R1364C
1948.09	1.6	1949960	WORD	n/a	wordpools/wordpool_EN.txt	SKI	10	16	[0, 0, 0]	n/a	FR1	0	R1364C
1949.717	0.919	1951587	WORD_OFF	n/a	n/a	SKI	10	16	[0, 0, 0]	n/a	FR1	0	R1364C
1950.636	1.6	1952505	WORD	n/a	wordpools/wordpool_EN.txt	SOCK	11	16	[0, 0, 0]	n/a	FR1	0	R1364C
1952.269	0.995	1954138	WORD_OFF	n/a	n/a	SOCK	11	16	[0, 0, 0]	n/a	FR1	0	R1364C
1953.264	1.6	1955133	WORD	n/a	wordpools/wordpool_EN.txt	FRUIT	12	16	[0, 0, 0]	n/a	FR1	0	R1364C
1954.885	0.001	1956754	WORD_OFF	n/a	n/a	FRUIT	12	16	[0, 0, 0]	n/a	FR1	0	R1364C
1954.886	0.0	1956755	ENCODING_END	n/a	n/a	n/a	-999	16	[0, 0, 0]	n/a	FR1	0	R1364C
1954.886	0.0	1956755	DISTRACT_START	n/a	n/a	n/a	-999	16	[0, 0, 0]	n/a	FR1	0	R1364C
1954.886	0.015	1956755	START	n/a	n/a	n/a	-999	16	[-999, -999, -999]	n/a	FR1	0	R1364C
1954.901	5.768	1956770	PROB	5.732	n/a	n/a	-999	16	[9, 4, 3]	16.0	FR1	0	R1364C
1960.669	2.401	1962538	PROB	2.373	n/a	n/a	-999	16	[6, 4, 2]	12.0	FR1	0	R1364C
1963.07	2.783	1964939	PROB	2.747	n/a	n/a	-999	16	[7, 1, 7]	15.0	FR1	0	R1364C
1965.853	3.834	1967722	PROB	3.805	n/a	n/a	-999	16	[7, 9, 5]	21.0	FR1	0	R1364C
1969.687	4.702	1971555	PROB	4.663	n/a	n/a	-999	16	[9, 7, 4]	20.0	FR1	0	R1364C
1974.389	2.945	1976257	PROB	2.945	n/a	n/a	-999	16	[1, 2, 6]	9.0	FR1	0	R1364C
1977.334	0.006	1979202	STOP	n/a	n/a	n/a	-999	16	[-999, -999, -999]	n/a	FR1	0	R1364C
1977.34	0.508	1979208	DISTRACT_END	n/a	n/a	n/a	-999	16	[0, 0, 0]	n/a	FR1	0	R1364C
1977.848	1.6	1979716	RETRIEVAL_ORIENT_START	n/a	n/a	n/a	-999	16	[0, 0, 0]	n/a	FR1	0	R1364C
1979.391	0.0	1981259	RETRIEVAL_ORIENT_END	n/a	n/a	n/a	-999	16	[0, 0, 0]	n/a	FR1	0	R1364C
1979.391	1.917	1981259	REC_START	n/a	n/a	n/a	-999	16	[0, 0, 0]	n/a	FR1	0	R1364C
1981.308	1.157	1983176	REC_WORD	1.917	n/a	WALL	1	16	[0, 0, 0]	n/a	FR1	0	R1364C
1982.465	1.031	1984333	REC_WORD	3.074	n/a	WHEEL	2	16	[0, 0, 0]	n/a	FR1	0	R1364C
1983.496	1.738	1985364	REC_WORD	4.105	n/a	ROOM	4	16	[0, 0, 0]	n/a	FR1	0	R1364C
1985.234	1.104	1987102	REC_WORD	5.843	n/a	DOLL	3	16	[0, 0, 0]	n/a	FR1	0	R1364C
1986.338	4.478	1988206	REC_WORD	6.947	n/a	RIB	5	16	[0, 0, 0]	n/a	FR1	0	R1364C
1990.816	2.653	1992683	REC_WORD	11.425	n/a	BATH	6	16	[0, 0, 0]	n/a	FR1	0	R1364C
1993.469	1.755	1995336	REC_WORD	14.078	n/a	MOON	8	16	[0, 0, 0]	n/a	FR1	0	R1364C
1995.224	8.181	1997091	REC_WORD	15.833	n/a	BLOOM	9	16	[0, 0, 0]	n/a	FR1	0	R1364C
2003.405	5.999	2005272	REC_WORD	24.014	n/a	SOCK	11	16	[0, 0, 0]	n/a	FR1	0	R1364C
2009.404	0.0	2011270	REC_END	n/a	n/a	n/a	-999	16	[0, 0, 0]	n/a	FR1	0	R1364C
2009.404	0.017	2011270	TRIAL_END	n/a	n/a	n/a	-999	16	[0, 0, 0]	n/a	FR1	0	R1364C
2009.421	0.0	2011287	TRIAL_START	n/a	n/a	n/a	-999	17	[0, 0, 0]	n/a	FR1	0	R1364C
2009.421	0.0	2011287	TRIAL	n/a	n/a	n/a	-999	17	[0, 0, 0]	n/a	FR1	0	R1364C
2009.421	2.943	2011287	WAITING_START	n/a	n/a	n/a	-999	17	[0, 0, 0]	n/a	FR1	0	R1364C
2012.364	0.0	2014230	WAITING_END	n/a	n/a	n/a	-999	17	[0, 0, 0]	n/a	FR1	0	R1364C
2012.364	10.0	2014230	COUNTDOWN_START	n/a	n/a	n/a	-999	17	[0, 0, 0]	n/a	FR1	0	R1364C
2022.793	0.0	2024659	ORIENT_START	n/a	n/a	n/a	-999	17	[0, 0, 0]	n/a	FR1	0	R1364C
2022.793	1.155	2024659	COUNTDOWN_END	n/a	n/a	n/a	-999	17	[0, 0, 0]	n/a	FR1	0	R1364C
2023.948	0.0	2025814	ORIENT_END	n/a	n/a	n/a	-999	17	[0, 0, 0]	n/a	FR1	0	R1364C
2023.948	0.829	2025814	ENCODING_START	n/a	n/a	n/a	-999	17	[0, 0, 0]	n/a	FR1	0	R1364C
2024.777	1.6	2026643	WORD	n/a	wordpools/wordpool_EN.txt	FLEA	1	17	[0, 0, 0]	n/a	FR1	0	R1364C
2026.417	1.111	2028283	WORD_OFF	n/a	n/a	FLEA	1	17	[0, 0, 0]	n/a	FR1	0	R1364C
2027.528	1.6	2029393	WORD	n/a	wordpools/wordpool_EN.txt	CRANE	2	17	[0, 0, 0]	n/a	FR1	0	R1364C
2029.167	1.022	2031032	WORD_OFF	n/a	n/a	CRANE	2	17	[0, 0, 0]	n/a	FR1	0	R1364C
2030.189	1.6	2032054	WORD	n/a	wordpools/wordpool_EN.txt	BOOT	3	17	[0, 0, 0]	n/a	FR1	0	R1364C
2031.816	0.802	2033681	WORD_OFF	n/a	n/a	BOOT	3	17	[0, 0, 0]	n/a	FR1	0	R1364C
2032.618	1.6	2034483	WORD	n/a	wordpools/wordpool_EN.txt	MOTH	4	17	[0, 0, 0]	n/a	FR1	0	R1364C
2034.251	1.114	2036116	WORD_OFF	n/a	n/a	MOTH	4	17	[0, 0, 0]	n/a	FR1	0	R1364C
2035.365	1.6	2037230	WORD	n/a	wordpools/wordpool_EN.txt	PIPE	5	17	[0, 0, 0]	n/a	FR1	0	R1364C
2037.001	0.783	2038866	WORD_OFF	n/a	n/a	PIPE	5	17	[0, 0, 0]	n/a	FR1	0	R1364C
2037.784	1.6	2039649	WORD	n/a	wordpools/wordpool_EN.txt	CORD	6	17	[0, 0, 0]	n/a	FR1	0	R1364C
2039.419	0.88	2041284	WORD_OFF	n/a	n/a	CORD	6	17	[0, 0, 0]	n/a	FR1	0	R1364C
2040.299	1.6	2042164	WORD	n/a	wordpools/wordpool_EN.txt	CHIN	7	17	[0, 0, 0]	n/a	FR1	0	R1364C
2041.935	0.945	2043800	WORD_OFF	n/a	n/a	CHIN	7	17	[0, 0, 0]	n/a	FR1	0	R1364C
2042.88	1.6	2044745	WORD	n/a	wordpools/wordpool_EN.txt	GRAPE	8	17	[0, 0, 0]	n/a	FR1	0	R1364C
2044.486	1.136	2046351	WORD_OFF	n/a	n/a	GRAPE	8	17	[0, 0, 0]	n/a	FR1	0	R1364C
2045.622	1.6	2047487	WORD	n/a	wordpools/wordpool_EN.txt	SPOON	9	17	[0, 0, 0]	n/a	FR1	0	R1364C
2047.253	0.936	2049117	WORD_OFF	n/a	n/a	SPOON	9	17	[0, 0, 0]	n/a	FR1	0	R1364C
2048.189	1.6	2050053	WORD	n/a	wordpools/wordpool_EN.txt	SLEEVE	10	17	[0, 0, 0]	n/a	FR1	0	R1364C
2049.819	0.831	2051683	WORD_OFF	n/a	n/a	SLEEVE	10	17	[0, 0, 0]	n/a	FR1	0	R1364C
2050.65	1.6	2052514	WORD	n/a	wordpools/wordpool_EN.txt	STEM	11	17	[0, 0, 0]	n/a	FR1	0	R1364C
2052.271	0.764	2054135	WORD_OFF	n/a	n/a	STEM	11	17	[0, 0, 0]	n/a	FR1	0	R1364C
2053.035	1.6	2054899	WORD	n/a	wordpools/wordpool_EN.txt	GOAT	12	17	[0, 0, 0]	n/a	FR1	0	R1364C
2054.67	0.001	2056534	WORD_OFF	n/a	n/a	GOAT	12	17	[0, 0, 0]	n/a	FR1	0	R1364C
2054.671	0.0	2056535	DISTRACT_START	n/a	n/a	n/a	-999	17	[0, 0, 0]	n/a	FR1	0	R1364C
2054.671	0.001	2056535	ENCODING_END	n/a	n/a	n/a	-999	17	[0, 0, 0]	n/a	FR1	0	R1364C
2054.672	0.015	2056536	START	n/a	n/a	n/a	-999	17	[-999, -999, -999]	n/a	FR1	0	R1364C
2054.687	9.369	2056551	PROB	9.339	n/a	n/a	-999	17	[1, 7, 9]	17.0	FR1	0	R1364C
2064.056	3.85	2065920	PROB	3.816	n/a	n/a	-999	17	[2, 6, 3]	11.0	FR1	0	R1364C
2067.906	4.884	2069769	PROB	4.849	n/a	n/a	-999	17	[5, 9, 9]	23.0	FR1	0	R1364C
2072.79	4.132	2074653	PROB	4.132	n/a	n/a	-999	17	[7, 2, 6]	15.0	FR1	0	R1364C
2076.922	0.019	2078785	STOP	n/a	n/a	n/a	-999	17	[-999, -999, -999]	n/a	FR1	0	R1364C
2076.941	0.522	2078804	DISTRACT_END	n/a	n/a	n/a	-999	17	[0, 0, 0]	n/a	FR1	0	R1364C
2077.463	1.6	2079326	RETRIEVAL_ORIENT_START	n/a	n/a	n/a	-999	17	[0, 0, 0]	n/a	FR1	0	R1364C
2079.143	0.0	2081006	RETRIEVAL_ORIENT_END	n/a	n/a	n/a	-999	17	[0, 0, 0]	n/a	FR1	0	R1364C
2079.143	0.932	2081006	REC_START	n/a	n/a	n/a	-999	17	[0, 0, 0]	n/a	FR1	0	R1364C
2080.075	1.527	2081938	REC_WORD	0.932	n/a	FLEA	1	17	[0, 0, 0]	n/a	FR1	0	R1364C
2081.602	1.053	2083465	REC_WORD	2.459	n/a	MOTH	4	17	[0, 0, 0]	n/a	FR1	0	R1364C
2082.655	2.113	2084518	REC_WORD	3.512	n/a	BOOT	3	17	[0, 0, 0]	n/a	FR1	0	R1364C
2084.768	1.349	2086631	REC_WORD	5.625	n/a	CRANE	2	17	[0, 0, 0]	n/a	FR1	0	R1364C
2086.117	1.932	2087979	REC_WORD	6.974	n/a	CHIN	7	17	[0, 0, 0]	n/a	FR1	0	R1364C
2088.049	21.106	2089911	REC_WORD	8.906	n/a	GRAPE	8	17	[0, 0, 0]	n/a	FR1	0	R1364C
2109.155	0.0	2111016	REC_END	n/a	n/a	n/a	-999	17	[0, 0, 0]	n/a	FR1	0	R1364C
2109.155	0.015	2111016	TRIAL_END	n/a	n/a	n/a	-999	17	[0, 0, 0]	n/a	FR1	0	R1364C
2109.17	0.0	2111031	TRIAL_START	n/a	n/a	n/a	-999	18	[0, 0, 0]	n/a	FR1	0	R1364C
2109.17	0.0	2111031	TRIAL	n/a	n/a	n/a	-999	18	[0, 0, 0]	n/a	FR1	0	R1364C
2109.17	3.611	2111031	WAITING_START	n/a	n/a	n/a	-999	18	[0, 0, 0]	n/a	FR1	0	R1364C
2112.781	0.001	2114642	WAITING_END	n/a	n/a	n/a	-999	18	[0, 0, 0]	n/a	FR1	0	R1364C
2112.782	10.0	2114643	COUNTDOWN_START	n/a	n/a	n/a	-999	18	[0, 0, 0]	n/a	FR1	0	R1364C
2123.211	0.0	2125072	COUNTDOWN_END	n/a	n/a	n/a	-999	18	[0, 0, 0]	n/a	FR1	0	R1364C
2123.211	1.19	2125072	ORIENT_START	n/a	n/a	n/a	-999	18	[0, 0, 0]	n/a	FR1	0	R1364C
2124.401	0.0	2126261	ENCODING_START	n/a	n/a	n/a	-999	18	[0, 0, 0]	n/a	FR1	0	R1364C
2124.401	1.042	2126261	ORIENT_END	n/a	n/a	n/a	-999	18	[0, 0, 0]	n/a	FR1	0	R1364C
2125.443	1.6	2127303	WORD	n/a	wordpools/wordpool_EN.txt	OWL	1	18	[0, 0, 0]	n/a	FR1	0	R1364C
2127.068	1.074	2128928	WORD_OFF	n/a	n/a	OWL	1	18	[0, 0, 0]	n/a	FR1	0	R1364C
2128.142	1.6	2130002	WORD	n/a	wordpools/wordpool_EN.txt	MUD	2	18	[0, 0, 0]	n/a	FR1	0	R1364C
2129.768	0.918	2131628	WORD_OFF	n/a	n/a	MUD	2	18	[0, 0, 0]	n/a	FR1	0	R1364C
2130.686	1.6	2132546	WORD	n/a	wordpools/wordpool_EN.txt	FLAG	3	18	[0, 0, 0]	n/a	FR1	0	R1364C
2132.319	0.959	2134179	WORD_OFF	n/a	n/a	FLAG	3	18	[0, 0, 0]	n/a	FR1	0	R1364C
2133.278	1.6	2135138	WORD	n/a	wordpools/wordpool_EN.txt	POOL	4	18	[0, 0, 0]	n/a	FR1	0	R1364C
2134.902	0.796	2136762	WORD_OFF	n/a	n/a	POOL	4	18	[0, 0, 0]	n/a	FR1	0	R1364C
2135.698	1.6	2137558	WORD	n/a	wordpools/wordpool_EN.txt	CANE	5	18	[0, 0, 0]	n/a	FR1	0	R1364C
2137.337	0.927	2139197	WORD_OFF	n/a	n/a	CANE	5	18	[0, 0, 0]	n/a	FR1	0	R1364C
2138.264	1.6	2140124	WORD	n/a	wordpools/wordpool_EN.txt	FILM	6	18	[0, 0, 0]	n/a	FR1	0	R1364C
2139.886	0.91	2141746	WORD_OFF	n/a	n/a	FILM	6	18	[0, 0, 0]	n/a	FR1	0	R1364C
2140.796	1.6	2142656	WORD	n/a	wordpools/wordpool_EN.txt	TOAST	7	18	[0, 0, 0]	n/a	FR1	0	R1364C
2142.421	0.853	2144281	WORD_OFF	n/a	n/a	TOAST	7	18	[0, 0, 0]	n/a	FR1	0	R1364C
2143.274	1.6	2145133	WORD	n/a	wordpools/wordpool_EN.txt	ROSE	8	18	[0, 0, 0]	n/a	FR1	0	R1364C
2144.904	0.906	2146763	WORD_OFF	n/a	n/a	ROSE	8	18	[0, 0, 0]	n/a	FR1	0	R1364C
2145.81	1.6	2147669	WORD	n/a	wordpools/wordpool_EN.txt	MILK	9	18	[0, 0, 0]	n/a	FR1	0	R1364C
2147.422	0.846	2149281	WORD_OFF	n/a	n/a	MILK	9	18	[0, 0, 0]	n/a	FR1	0	R1364C
2148.268	1.6	2150127	WORD	n/a	wordpools/wordpool_EN.txt	BAND	10	18	[0, 0, 0]	n/a	FR1	0	R1364C
2149.905	0.949	2151764	WORD_OFF	n/a	n/a	BAND	10	18	[0, 0, 0]	n/a	FR1	0	R1364C
2150.854	1.6	2152713	WORD	n/a	wordpools/wordpool_EN.txt	BEAK	11	18	[0, 0, 0]	n/a	FR1	0	R1364C
2152.49	0.815	2154349	WORD_OFF	n/a	n/a	BEAK	11	18	[0, 0, 0]	n/a	FR1	0	R1364C
2153.305	1.6	2155164	WORD	n/a	wordpools/wordpool_EN.txt	NOSE	12	18	[0, 0, 0]	n/a	FR1	0	R1364C
2154.939	0.001	2156798	WORD_OFF	n/a	n/a	NOSE	12	18	[0, 0, 0]	n/a	FR1	0	R1364C
2154.94	0.0	2156799	ENCODING_END	n/a	n/a	n/a	-999	18	[0, 0, 0]	n/a	FR1	0	R1364C
2154.94	0.0	2156799	DISTRACT_START	n/a	n/a	n/a	-999	18	[0, 0, 0]	n/a	FR1	0	R1364C
2154.94	0.016	2156799	START	n/a	n/a	n/a	-999	18	[-999, -999, -999]	n/a	FR1	0	R1364C
2154.956	5.734	2156815	PROB	5.707	n/a	n/a	-999	18	[8, 1, 4]	13.0	FR1	0	R1364C
2160.69	4.318	2162549	PROB	4.293	n/a	n/a	-999	18	[9, 2, 4]	15.0	FR1	0	R1364C
2165.008	6.667	2166866	PROB	6.64	n/a	n/a	-999	18	[9, 8, 4]	21.0	FR1	0	R1364C
2171.675	4.774	2173533	PROB	4.774	n/a	n/a	-999	18	[2, 6, 8]	16.0	FR1	0	R1364C
2176.449	0.012	2178307	STOP	n/a	n/a	n/a	-999	18	[-999, -999, -999]	n/a	FR1	0	R1364C
2176.461	0.684	2178319	DISTRACT_END	n/a	n/a	n/a	-999	18	[0, 0, 0]	n/a	FR1	0	R1364C
2177.145	1.6	2179003	RETRIEVAL_ORIENT_START	n/a	n/a	n/a	-999	18	[0, 0, 0]	n/a	FR1	0	R1364C
2178.777	0.0	2180635	REC_START	n/a	n/a	n/a	-999	18	[0, 0, 0]	n/a	FR1	0	R1364C
2178.777	1.656	2180635	RETRIEVAL_ORIENT_END	n/a	n/a	n/a	-999	18	[0, 0, 0]	n/a	FR1	0	R1364C
2180.433	1.541	2182291	REC_WORD	1.656	n/a	OWL	1	18	[0, 0, 0]	n/a	FR1	0	R1364C
2181.974	1.71	2183831	REC_WORD	3.197	n/a	BEAK	11	18	[0, 0, 0]	n/a	FR1	0	R1364C
2183.684	1.993	2185541	REC_WORD	4.907	n/a	NOSE	12	18	[0, 0, 0]	n/a	FR1	0	R1364C
2185.677	2.846	2187534	REC_WORD	6.9	n/a	MUD	2	18	[0, 0, 0]	n/a	FR1	0	R1364C
2188.523	1.428	2190380	REC_WORD	9.746	n/a	CANE	5	18	[0, 0, 0]	n/a	FR1	0	R1364C
2189.951	4.108	2191808	REC_WORD	11.174	n/a	POOL	4	18	[0, 0, 0]	n/a	FR1	0	R1364C
2194.059	14.732	2195916	REC_WORD	15.282	n/a	FLAG	3	18	[0, 0, 0]	n/a	FR1	0	R1364C
2208.791	0.0	2210647	TRIAL_END	n/a	n/a	n/a	-999	18	[0, 0, 0]	n/a	FR1	0	R1364C
2208.791	0.015	2210647	REC_END	n/a	n/a	n/a	-999	18	[0, 0, 0]	n/a	FR1	0	R1364C
2208.806	0.0	2210662	TRIAL_START	n/a	n/a	n/a	-999	19	[0, 0, 0]	n/a	FR1	0	R1364C
2208.806	0.0	2210662	TRIAL	n/a	n/a	n/a	-999	19	[0, 0, 0]	n/a	FR1	0	R1364C
2208.806	2.177	2210662	WAITING_START	n/a	n/a	n/a	-999	19	[0, 0, 0]	n/a	FR1	0	R1364C
2210.983	0.0	2212839	WAITING_END	n/a	n/a	n/a	-999	19	[0, 0, 0]	n/a	FR1	0	R1364C
2210.983	10.0	2212839	COUNTDOWN_START	n/a	n/a	n/a	-999	19	[0, 0, 0]	n/a	FR1	0	R1364C
2221.412	0.001	2223267	COUNTDOWN_END	n/a	n/a	n/a	-999	19	[0, 0, 0]	n/a	FR1	0	R1364C
2221.413	1.256	2223268	ORIENT_START	n/a	n/a	n/a	-999	19	[0, 0, 0]	n/a	FR1	0	R1364C
2222.669	0.0	2224524	ENCODING_START	n/a	n/a	n/a	-999	19	[0, 0, 0]	n/a	FR1	0	R1364C
2222.669	1.112	2224524	ORIENT_END	n/a	n/a	n/a	-999	19	[0, 0, 0]	n/a	FR1	0	R1364C
2223.781	1.6	2225636	WORD	n/a	wordpools/wordpool_EN.txt	DITCH	1	19	[0, 0, 0]	n/a	FR1	0	R1364C
2225.42	0.948	2227275	WORD_OFF	n/a	n/a	DITCH	1	19	[0, 0, 0]	n/a	FR1	0	R1364C
2226.368	1.6	2228223	WORD	n/a	wordpools/wordpool_EN.txt	FOOT	2	19	[0, 0, 0]	n/a	FR1	0	R1364C
2228.004	1.116	2229859	WORD_OFF	n/a	n/a	FOOT	2	19	[0, 0, 0]	n/a	FR1	0	R1364C
2229.12	1.6	2230975	WORD	n/a	wordpools/wordpool_EN.txt	BADGE	3	19	[0, 0, 0]	n/a	FR1	0	R1364C
2230.753	0.775	2232608	WORD_OFF	n/a	n/a	BADGE	3	19	[0, 0, 0]	n/a	FR1	0	R1364C
2231.528	1.6	2233383	WORD	n/a	wordpools/wordpool_EN.txt	TRAY	4	19	[0, 0, 0]	n/a	FR1	0	R1364C
2233.155	1.077	2235010	WORD_OFF	n/a	n/a	TRAY	4	19	[0, 0, 0]	n/a	FR1	0	R1364C
2234.232	1.6	2236087	WORD	n/a	wordpools/wordpool_EN.txt	SUN	5	19	[0, 0, 0]	n/a	FR1	0	R1364C
2235.854	0.941	2237709	WORD_OFF	n/a	n/a	SUN	5	19	[0, 0, 0]	n/a	FR1	0	R1364C
2236.795	1.6	2238650	WORD	n/a	wordpools/wordpool_EN.txt	WAND	6	19	[0, 0, 0]	n/a	FR1	0	R1364C
2238.405	0.806	2240260	WORD_OFF	n/a	n/a	WAND	6	19	[0, 0, 0]	n/a	FR1	0	R1364C
2239.211	1.6	2241066	WORD	n/a	wordpools/wordpool_EN.txt	FENCE	7	19	[0, 0, 0]	n/a	FR1	0	R1364C
2240.839	0.876	2242693	WORD_OFF	n/a	n/a	FENCE	7	19	[0, 0, 0]	n/a	FR1	0	R1364C
2241.715	1.6	2243569	WORD	n/a	wordpools/wordpool_EN.txt	SNAIL	8	19	[0, 0, 0]	n/a	FR1	0	R1364C
2243.34	0.773	2245194	WORD_OFF	n/a	n/a	SNAIL	8	19	[0, 0, 0]	n/a	FR1	0	R1364C
2244.113	1.6	2245967	WORD	n/a	wordpools/wordpool_EN.txt	ZOO	9	19	[0, 0, 0]	n/a	FR1	0	R1364C
2245.74	1.072	2247594	WORD_OFF	n/a	n/a	ZOO	9	19	[0, 0, 0]	n/a	FR1	0	R1364C
2246.812	1.6	2248666	WORD	n/a	wordpools/wordpool_EN.txt	BARN	10	19	[0, 0, 0]	n/a	FR1	0	R1364C
2248.441	0.933	2250295	WORD_OFF	n/a	n/a	BARN	10	19	[0, 0, 0]	n/a	FR1	0	R1364C
2249.374	1.6	2251228	WORD	n/a	wordpools/wordpool_EN.txt	HORN	11	19	[0, 0, 0]	n/a	FR1	0	R1364C
2251.008	0.838	2252862	WORD_OFF	n/a	n/a	HORN	11	19	[0, 0, 0]	n/a	FR1	0	R1364C
2251.846	1.6	2253700	WORD	n/a	wordpools/wordpool_EN.txt	CART	12	19	[0, 0, 0]	n/a	FR1	0	R1364C
2253.475	0.001	2255329	WORD_OFF	n/a	n/a	CART	12	19	[0, 0, 0]	n/a	FR1	0	R1364C
2253.476	0.0	2255330	ENCODING_END	n/a	n/a	n/a	-999	19	[0, 0, 0]	n/a	FR1	0	R1364C
2253.476	0.001	2255330	DISTRACT_START	n/a	n/a	n/a	-999	19	[0, 0, 0]	n/a	FR1	0	R1364C
2253.477	0.015	2255331	START	n/a	n/a	n/a	-999	19	[-999, -999, -999]	n/a	FR1	0	R1364C
2253.492	7.768	2255346	PROB	7.743	n/a	n/a	-999	19	[6, 3, 8]	17.0	FR1	0	R1364C
2261.26	4.716	2263113	PROB	4.677	n/a	n/a	-999	19	[8, 5, 7]	19.0	FR1	0	R1364C
2265.976	3.069	2267829	PROB	3.043	n/a	n/a	-999	19	[2, 5, 5]	12.0	FR1	0	R1364C
2269.045	3.467	2270898	PROB	3.43	n/a	n/a	-999	19	[6, 1, 6]	13.0	FR1	0	R1364C
2272.512	2.755	2274365	PROB	2.755	n/a	n/a	-999	19	[1, 3, 3]	7.0	FR1	0	R1364C
2275.267	0.012	2277120	STOP	n/a	n/a	n/a	-999	19	[-999, -999, -999]	n/a	FR1	0	R1364C
2275.279	0.563	2277132	DISTRACT_END	n/a	n/a	n/a	-999	19	[0, 0, 0]	n/a	FR1	0	R1364C
2275.842	1.6	2277695	RETRIEVAL_ORIENT_START	n/a	n/a	n/a	-999	19	[0, 0, 0]	n/a	FR1	0	R1364C
2277.562	0.001	2279415	RETRIEVAL_ORIENT_END	n/a	n/a	n/a	-999	19	[0, 0, 0]	n/a	FR1	0	R1364C
2277.563	1.864	2279416	REC_START	n/a	n/a	n/a	-999	19	[0, 0, 0]	n/a	FR1	0	R1364C
2279.427	0.851	2281279	REC_WORD	1.864	n/a	DITCH	1	19	[0, 0, 0]	n/a	FR1	0	R1364C
2280.278	1.774	2282130	REC_WORD	2.715	n/a	FOOT	2	19	[0, 0, 0]	n/a	FR1	0	R1364C
2282.052	2.979	2283904	REC_WORD	4.489	n/a	SUN	5	19	[0, 0, 0]	n/a	FR1	0	R1364C
2285.031	3.066	2286883	REC_WORD	7.468	n/a	BADGE	3	19	[0, 0, 0]	n/a	FR1	0	R1364C
2288.097	3.142	2289949	REC_WORD	10.534	n/a	SAIL	-999	19	[0, 0, 0]	n/a	FR1	0	R1364C
2291.239	2.482	2293091	REC_WORD	13.676	n/a	BARN	10	19	[0, 0, 0]	n/a	FR1	0	R1364C
2293.721	3.2	2295573	REC_WORD	16.158	n/a	ZOO	9	19	[0, 0, 0]	n/a	FR1	0	R1364C
2296.921	8.644	2298773	REC_WORD	19.358	n/a	SUN	5	19	[0, 0, 0]	n/a	FR1	0	R1364C
2305.565	2.009	2307416	REC_WORD	28.002	n/a	FENCE	7	19	[0, 0, 0]	n/a	FR1	0	R1364C
2307.574	0.0	2309425	TRIAL_END	n/a	n/a	n/a	-999	19	[0, 0, 0]	n/a	FR1	0	R1364C
2307.574	0.015	2309425	REC_END	n/a	n/a	n/a	-999	19	[0, 0, 0]	n/a	FR1	0	R1364C
2307.589	0.0	2309440	TRIAL_START	n/a	n/a	n/a	-999	20	[0, 0, 0]	n/a	FR1	0	R1364C
2307.589	0.0	2309440	TRIAL	n/a	n/a	n/a	-999	20	[0, 0, 0]	n/a	FR1	0	R1364C
2307.589	2.113	2309440	WAITING_START	n/a	n/a	n/a	-999	20	[0, 0, 0]	n/a	FR1	0	R1364C
2309.702	0.0	2311553	WAITING_END	n/a	n/a	n/a	-999	20	[0, 0, 0]	n/a	FR1	0	R1364C
2309.702	10.0	2311553	COUNTDOWN_START	n/a	n/a	n/a	-999	20	[0, 0, 0]	n/a	FR1	0	R1364C
2320.132	0.0	2321982	COUNTDOWN_END	n/a	n/a	n/a	-999	20	[0, 0, 0]	n/a	FR1	0	R1364C
2320.132	1.273	2321982	ORIENT_START	n/a	n/a	n/a	-999	20	[0, 0, 0]	n/a	FR1	0	R1364C
2321.405	0.0	2323255	ENCODING_START	n/a	n/a	n/a	-999	20	[0, 0, 0]	n/a	FR1	0	R1364C
2321.405	0.788	2323255	ORIENT_END	n/a	n/a	n/a	-999	20	[0, 0, 0]	n/a	FR1	0	R1364C
2322.193	1.6	2324043	WORD	n/a	wordpools/wordpool_EN.txt	BIRD	1	20	[0, 0, 0]	n/a	FR1	0	R1364C
2323.821	0.821	2325671	WORD_OFF	n/a	n/a	BIRD	1	20	[0, 0, 0]	n/a	FR1	0	R1364C
2324.642	1.6	2326492	WORD	n/a	wordpools/wordpool_EN.txt	FROG	2	20	[0, 0, 0]	n/a	FR1	0	R1364C
2326.272	0.825	2328122	WORD_OFF	n/a	n/a	FROG	2	20	[0, 0, 0]	n/a	FR1	0	R1364C
2327.097	1.6	2328947	WORD	n/a	wordpools/wordpool_EN.txt	HILL	3	20	[0, 0, 0]	n/a	FR1	0	R1364C
2328.722	0.93	2330572	WORD_OFF	n/a	n/a	HILL	3	20	[0, 0, 0]	n/a	FR1	0	R1364C
2329.652	1.6	2331502	WORD	n/a	wordpools/wordpool_EN.txt	JET	4	20	[0, 0, 0]	n/a	FR1	0	R1364C
2331.29	0.882	2333140	WORD_OFF	n/a	n/a	JET	4	20	[0, 0, 0]	n/a	FR1	0	R1364C
2332.172	1.6	2334022	WORD	n/a	wordpools/wordpool_EN.txt	ROCK	5	20	[0, 0, 0]	n/a	FR1	0	R1364C
2333.806	0.871	2335656	WORD_OFF	n/a	n/a	ROCK	5	20	[0, 0, 0]	n/a	FR1	0	R1364C
2334.677	1.6	2336527	WORD	n/a	wordpools/wordpool_EN.txt	FUR	6	20	[0, 0, 0]	n/a	FR1	0	R1364C
2336.291	0.758	2338141	WORD_OFF	n/a	n/a	FUR	6	20	[0, 0, 0]	n/a	FR1	0	R1364C
2337.049	1.6	2338898	WORD	n/a	wordpools/wordpool_EN.txt	ROOF	7	20	[0, 0, 0]	n/a	FR1	0	R1364C
2338.674	1.005	2340523	WORD_OFF	n/a	n/a	ROOF	7	20	[0, 0, 0]	n/a	FR1	0	R1364C
2339.679	1.6	2341528	WORD	n/a	wordpools/wordpool_EN.txt	FLOOR	8	20	[0, 0, 0]	n/a	FR1	0	R1364C
2341.309	1.06	2343158	WORD_OFF	n/a	n/a	FLOOR	8	20	[0, 0, 0]	n/a	FR1	0	R1364C
2342.369	1.6	2344218	WORD	n/a	wordpools/wordpool_EN.txt	SEAL	9	20	[0, 0, 0]	n/a	FR1	0	R1364C
2343.992	0.915	2345841	WORD_OFF	n/a	n/a	SEAL	9	20	[0, 0, 0]	n/a	FR1	0	R1364C
2344.907	1.6	2346756	WORD	n/a	wordpools/wordpool_EN.txt	SHRIMP	10	20	[0, 0, 0]	n/a	FR1	0	R1364C
2346.542	0.807	2348391	WORD_OFF	n/a	n/a	SHRIMP	10	20	[0, 0, 0]	n/a	FR1	0	R1364C
2347.349	1.6	2349198	WORD	n/a	wordpools/wordpool_EN.txt	TOOL	11	20	[0, 0, 0]	n/a	FR1	0	R1364C
2348.976	0.945	2350825	WORD_OFF	n/a	n/a	TOOL	11	20	[0, 0, 0]	n/a	FR1	0	R1364C
2349.921	1.6	2351770	WORD	n/a	wordpools/wordpool_EN.txt	LEAF	12	20	[0, 0, 0]	n/a	FR1	0	R1364C
2351.559	0.001	2353408	WORD_OFF	n/a	n/a	LEAF	12	20	[0, 0, 0]	n/a	FR1	0	R1364C
2351.56	0.0	2353409	ENCODING_END	n/a	n/a	n/a	-999	20	[0, 0, 0]	n/a	FR1	0	R1364C
2351.56	0.001	2353409	DISTRACT_START	n/a	n/a	n/a	-999	20	[0, 0, 0]	n/a	FR1	0	R1364C
2351.561	0.015	2353410	START	n/a	n/a	n/a	-999	20	[-999, -999, -999]	n/a	FR1	0	R1364C
2351.576	5.885	2353425	PROB	5.847	n/a	n/a	-999	20	[5, 8, 8]	21.0	FR1	0	R1364C
2357.461	3.034	2359309	PROB	3.002	n/a	n/a	-999	20	[2, 1, 1]	4.0	FR1	0	R1364C
2360.495	4.3	2362343	PROB	4.271	n/a	n/a	-999	20	[8, 6, 6]	20.0	FR1	0	R1364C
2364.795	4.535	2366643	PROB	4.5	n/a	n/a	-999	20	[2, 7, 7]	16.0	FR1	0	R1364C
2369.33	3.677	2371178	PROB	3.677	n/a	n/a	-999	20	[2, 5, 8]	15.0	FR1	0	R1364C
2373.007	0.007	2374855	STOP	n/a	n/a	n/a	-999	20	[-999, -999, -999]	n/a	FR1	0	R1364C
2373.014	0.608	2374862	DISTRACT_END	n/a	n/a	n/a	-999	20	[0, 0, 0]	n/a	FR1	0	R1364C
2373.622	1.6	2375470	RETRIEVAL_ORIENT_START	n/a	n/a	n/a	-999	20	[0, 0, 0]	n/a	FR1	0	R1364C
2375.181	0.001	2377028	RETRIEVAL_ORIENT_END	n/a	n/a	n/a	-999	20	[0, 0, 0]	n/a	FR1	0	R1364C
2375.182	1.706	2377029	REC_START	n/a	n/a	n/a	-999	20	[0, 0, 0]	n/a	FR1	0	R1364C
2376.888	0.706	2378735	REC_WORD	1.706	n/a	BIRD	1	20	[0, 0, 0]	n/a	FR1	0	R1364C
2377.594	1.351	2379441	REC_WORD	2.412	n/a	FUR	6	20	[0, 0, 0]	n/a	FR1	0	R1364C
2378.945	1.799	2380792	REC_WORD	3.763	n/a	SHRIMP	10	20	[0, 0, 0]	n/a	FR1	0	R1364C
2380.744	2.459	2382591	REC_WORD	5.562	n/a	FROG	2	20	[0, 0, 0]	n/a	FR1	0	R1364C
2383.203	2.039	2385050	REC_WORD	8.021	n/a	SEAL	9	20	[0, 0, 0]	n/a	FR1	0	R1364C
2385.242	2.927	2387089	REC_WORD	10.06	n/a	ROCK	5	20	[0, 0, 0]	n/a	FR1	0	R1364C
2388.169	6.612	2390016	REC_WORD	12.987	n/a	JET	4	20	[0, 0, 0]	n/a	FR1	0	R1364C
2394.781	1.32	2396627	REC_WORD	19.599	n/a	ROOF	7	20	[0, 0, 0]	n/a	FR1	0	R1364C
2396.101	9.093	2397947	REC_WORD	20.919	n/a	FLOOR	8	20	[0, 0, 0]	n/a	FR1	0	R1364C
2405.194	0.0	2407040	REC_END	n/a	n/a	n/a	-999	20	[0, 0, 0]	n/a	FR1	0	R1364C
2405.194	0.015	2407040	TRIAL_END	n/a	n/a	n/a	-999	20	[0, 0, 0]	n/a	FR1	0	R1364C
2405.209	0.001	2407055	TRIAL_START	n/a	n/a	n/a	-999	21	[0, 0, 0]	n/a	FR1	0	R1364C
2405.21	0.0	2407056	TRIAL	n/a	n/a	n/a	-999	21	[0, 0, 0]	n/a	FR1	0	R1364C
2405.21	2.128	2407056	WAITING_START	n/a	n/a	n/a	-999	21	[0, 0, 0]	n/a	FR1	0	R1364C
2407.338	0.0	2409184	WAITING_END	n/a	n/a	n/a	-999	21	[0, 0, 0]	n/a	FR1	0	R1364C
2407.338	10.0	2409184	COUNTDOWN_START	n/a	n/a	n/a	-999	21	[0, 0, 0]	n/a	FR1	0	R1364C
2417.767	0.0	2419612	COUNTDOWN_END	n/a	n/a	n/a	-999	21	[0, 0, 0]	n/a	FR1	0	R1364C
2417.767	1.155	2419612	ORIENT_START	n/a	n/a	n/a	-999	21	[0, 0, 0]	n/a	FR1	0	R1364C
2418.922	0.0	2420767	ENCODING_START	n/a	n/a	n/a	-999	21	[0, 0, 0]	n/a	FR1	0	R1364C
2418.922	0.826	2420767	ORIENT_END	n/a	n/a	n/a	-999	21	[0, 0, 0]	n/a	FR1	0	R1364C
2419.748	1.6	2421593	WORD	n/a	wordpools/wordpool_EN.txt	SEAT	1	21	[0, 0, 0]	n/a	FR1	0	R1364C
2421.374	0.874	2423219	WORD_OFF	n/a	n/a	SEAT	1	21	[0, 0, 0]	n/a	FR1	0	R1364C
2422.248	1.6	2424093	WORD	n/a	wordpools/wordpool_EN.txt	COUCH	2	21	[0, 0, 0]	n/a	FR1	0	R1364C
2423.873	0.912	2425718	WORD_OFF	n/a	n/a	COUCH	2	21	[0, 0, 0]	n/a	FR1	0	R1364C
2424.785	1.6	2426630	WORD	n/a	wordpools/wordpool_EN.txt	LAWN	3	21	[0, 0, 0]	n/a	FR1	0	R1364C
2426.424	0.896	2428269	WORD_OFF	n/a	n/a	LAWN	3	21	[0, 0, 0]	n/a	FR1	0	R1364C
2427.32	1.6	2429165	WORD	n/a	wordpools/wordpool_EN.txt	PANTS	4	21	[0, 0, 0]	n/a	FR1	0	R1364C
2428.957	1.079	2430802	WORD_OFF	n/a	n/a	PANTS	4	21	[0, 0, 0]	n/a	FR1	0	R1364C
2430.036	1.6	2431881	WORD	n/a	wordpools/wordpool_EN.txt	PEN	5	21	[0, 0, 0]	n/a	FR1	0	R1364C
2431.658	0.813	2433503	WORD_OFF	n/a	n/a	PEN	5	21	[0, 0, 0]	n/a	FR1	0	R1364C
2432.471	1.6	2434316	WORD	n/a	wordpools/wordpool_EN.txt	COIN	6	21	[0, 0, 0]	n/a	FR1	0	R1364C
2434.109	0.906	2435953	WORD_OFF	n/a	n/a	COIN	6	21	[0, 0, 0]	n/a	FR1	0	R1364C
2435.015	1.6	2436859	WORD	n/a	wordpools/wordpool_EN.txt	BOOK	7	21	[0, 0, 0]	n/a	FR1	0	R1364C
2436.642	0.768	2438486	WORD_OFF	n/a	n/a	BOOK	7	21	[0, 0, 0]	n/a	FR1	0	R1364C
2437.41	1.6	2439254	WORD	n/a	wordpools/wordpool_EN.txt	NEST	8	21	[0, 0, 0]	n/a	FR1	0	R1364C
2439.043	1.144	2440887	WORD_OFF	n/a	n/a	NEST	8	21	[0, 0, 0]	n/a	FR1	0	R1364C
2440.187	1.6	2442031	WORD	n/a	wordpools/wordpool_EN.txt	CAPE	9	21	[0, 0, 0]	n/a	FR1	0	R1364C
2441.81	0.804	2443654	WORD_OFF	n/a	n/a	CAPE	9	21	[0, 0, 0]	n/a	FR1	0	R1364C
2442.614	1.6	2444458	WORD	n/a	wordpools/wordpool_EN.txt	WAVE	10	21	[0, 0, 0]	n/a	FR1	0	R1364C
2444.244	0.889	2446088	WORD_OFF	n/a	n/a	WAVE	10	21	[0, 0, 0]	n/a	FR1	0	R1364C
2445.133	1.6	2446977	WORD	n/a	wordpools/wordpool_EN.txt	CLOWN	11	21	[0, 0, 0]	n/a	FR1	0	R1364C
2446.762	0.805	2448606	WORD_OFF	n/a	n/a	CLOWN	11	21	[0, 0, 0]	n/a	FR1	0	R1364C
2447.567	1.6	2449411	WORD	n/a	wordpools/wordpool_EN.txt	ELF	12	21	[0, 0, 0]	n/a	FR1	0	R1364C
2449.178	0.001	2451022	WORD_OFF	n/a	n/a	ELF	12	21	[0, 0, 0]	n/a	FR1	0	R1364C
2449.179	0.0	2451023	ENCODING_END	n/a	n/a	n/a	-999	21	[0, 0, 0]	n/a	FR1	0	R1364C
2449.179	0.0	2451023	DISTRACT_START	n/a	n/a	n/a	-999	21	[0, 0, 0]	n/a	FR1	0	R1364C
2449.179	0.016	2451023	START	n/a	n/a	n/a	-999	21	[-999, -999, -999]	n/a	FR1	0	R1364C
2449.195	5.75	2451039	PROB	5.712	n/a	n/a	-999	21	[1, 7, 9]	17.0	FR1	0	R1364C
2454.945	2.984	2456788	PROB	2.961	n/a	n/a	-999	21	[1, 9, 2]	12.0	FR1	0	R1364C
2457.929	3.135	2459772	PROB	3.107	n/a	n/a	-999	21	[8, 2, 5]	15.0	FR1	0	R1364C
2461.064	2.849	2462907	PROB	2.819	n/a	n/a	-999	21	[5, 9, 5]	19.0	FR1	0	R1364C
2463.913	2.968	2465756	PROB	2.945	n/a	n/a	-999	21	[6, 1, 9]	16.0	FR1	0	R1364C
2466.881	6.066	2468724	PROB	6.066	n/a	n/a	-999	21	[5, 6, 4]	16.0	FR1	0	R1364C
2472.947	0.019	2474789	STOP	n/a	n/a	n/a	-999	21	[-999, -999, -999]	n/a	FR1	0	R1364C
2472.966	0.563	2474808	DISTRACT_END	n/a	n/a	n/a	-999	21	[0, 0, 0]	n/a	FR1	0	R1364C
2473.529	1.6	2475371	RETRIEVAL_ORIENT_START	n/a	n/a	n/a	-999	21	[0, 0, 0]	n/a	FR1	0	R1364C
2475.117	0.0	2476959	RETRIEVAL_ORIENT_END	n/a	n/a	n/a	-999	21	[0, 0, 0]	n/a	FR1	0	R1364C
2475.117	3.139	2476959	REC_START	n/a	n/a	n/a	-999	21	[0, 0, 0]	n/a	FR1	0	R1364C
2478.256	0.971	2480098	REC_WORD	3.139	n/a	COUCH	2	21	[0, 0, 0]	n/a	FR1	0	R1364C
2479.227	1.142	2481069	REC_WORD	4.11	n/a	SEAT	1	21	[0, 0, 0]	n/a	FR1	0	R1364C
2480.369	1.016	2482211	REC_WORD	5.252	n/a	CAPE	9	21	[0, 0, 0]	n/a	FR1	0	R1364C
2481.385	2.639	2483227	REC_WORD	6.268	n/a	CLOWN	11	21	[0, 0, 0]	n/a	FR1	0	R1364C
2484.024	1.401	2485866	REC_WORD	8.907	n/a	PANTS	4	21	[0, 0, 0]	n/a	FR1	0	R1364C
2485.425	2.313	2487267	REC_WORD	10.308	n/a	COIN	6	21	[0, 0, 0]	n/a	FR1	0	R1364C
2487.738	1.053	2489580	REC_WORD	12.621	n/a	PEN	5	21	[0, 0, 0]	n/a	FR1	0	R1364C
2488.791	5.724	2490633	REC_WORD	13.674	n/a	BOOK	7	21	[0, 0, 0]	n/a	FR1	0	R1364C
2494.515	10.615	2496356	REC_WORD	19.398	n/a	NEST	8	21	[0, 0, 0]	n/a	FR1	0	R1364C
2505.13	0.0	2506971	REC_END	n/a	n/a	n/a	-999	21	[0, 0, 0]	n/a	FR1	0	R1364C
2505.13	0.015	2506971	TRIAL_END	n/a	n/a	n/a	-999	21	[0, 0, 0]	n/a	FR1	0	R1364C
2505.145	0.0	2506986	TRIAL_START	n/a	n/a	n/a	-999	22	[0, 0, 0]	n/a	FR1	0	R1364C
2505.145	0.0	2506986	TRIAL	n/a	n/a	n/a	-999	22	[0, 0, 0]	n/a	FR1	0	R1364C
2505.145	2.028	2506986	WAITING_START	n/a	n/a	n/a	-999	22	[0, 0, 0]	n/a	FR1	0	R1364C
2507.173	0.001	2509014	WAITING_END	n/a	n/a	n/a	-999	22	[0, 0, 0]	n/a	FR1	0	R1364C
2507.174	10.0	2509015	COUNTDOWN_START	n/a	n/a	n/a	-999	22	[0, 0, 0]	n/a	FR1	0	R1364C
2517.602	0.001	2519442	COUNTDOWN_END	n/a	n/a	n/a	-999	22	[0, 0, 0]	n/a	FR1	0	R1364C
2517.603	1.221	2519443	ORIENT_START	n/a	n/a	n/a	-999	22	[0, 0, 0]	n/a	FR1	0	R1364C
2518.824	0.0	2520664	ORIENT_END	n/a	n/a	n/a	-999	22	[0, 0, 0]	n/a	FR1	0	R1364C
2518.824	1.011	2520664	ENCODING_START	n/a	n/a	n/a	-999	22	[0, 0, 0]	n/a	FR1	0	R1364C
2519.835	1.6	2521675	WORD	n/a	wordpools/wordpool_EN.txt	CAGE	1	22	[0, 0, 0]	n/a	FR1	0	R1364C
2521.459	1.104	2523299	WORD_OFF	n/a	n/a	CAGE	1	22	[0, 0, 0]	n/a	FR1	0	R1364C
2522.563	1.6	2524403	WORD	n/a	wordpools/wordpool_EN.txt	HAT	2	22	[0, 0, 0]	n/a	FR1	0	R1364C
2524.176	1.104	2526016	WORD_OFF	n/a	n/a	HAT	2	22	[0, 0, 0]	n/a	FR1	0	R1364C
2525.28	1.6	2527120	WORD	n/a	wordpools/wordpool_EN.txt	RAIN	3	22	[0, 0, 0]	n/a	FR1	0	R1364C
2526.909	1.113	2528749	WORD_OFF	n/a	n/a	RAIN	3	22	[0, 0, 0]	n/a	FR1	0	R1364C
2528.022	1.6	2529862	WORD	n/a	wordpools/wordpool_EN.txt	DIME	4	22	[0, 0, 0]	n/a	FR1	0	R1364C
2529.66	0.959	2531500	WORD_OFF	n/a	n/a	DIME	4	22	[0, 0, 0]	n/a	FR1	0	R1364C
2530.619	1.6	2532458	WORD	n/a	wordpools/wordpool_EN.txt	DEER	5	22	[0, 0, 0]	n/a	FR1	0	R1364C
