onset	duration	sample	trial_type	response_time	stim_file	item_name	serialpos	list	test	answer	experiment	session	subject
0.0	14.234	69975	SESS_START	n/a	n/a	n/a	-999	-999	[0, 0, 0]	n/a	FR1	0	R1115T
14.234	10.0	84208	COUNTDOWN_START	n/a	n/a	n/a	-999	-999	[0, 0, 0]	n/a	FR1	0	R1115T
24.662	3.857	94635	COUNTDOWN_END	n/a	n/a	n/a	-999	-999	[0, 0, 0]	n/a	FR1	0	R1115T
28.519	1.6	98492	PRACTICE_WORD	n/a	n/a	COTTON	1	-1	[0, 0, 0]	n/a	FR1	0	R1115T
31.103	1.6	101076	PRACTICE_WORD	n/a	n/a	RHINO	2	-1	[0, 0, 0]	n/a	FR1	0	R1115T
33.503	1.6	103476	PRACTICE_WORD	n/a	n/a	RING	3	-1	[0, 0, 0]	n/a	FR1	0	R1115T
36.021	1.6	105994	PRACTICE_WORD	n/a	n/a	FLOOD	4	-1	[0, 0, 0]	n/a	FR1	0	R1115T
38.404	1.6	108377	PRACTICE_WORD	n/a	n/a	IRON	5	-1	[0, 0, 0]	n/a	FR1	0	R1115T
41.038	1.6	111011	PRACTICE_WORD	n/a	n/a	WATCH	6	-1	[0, 0, 0]	n/a	FR1	0	R1115T
43.522	1.6	113494	PRACTICE_WORD	n/a	n/a	BEAM	7	-1	[0, 0, 0]	n/a	FR1	0	R1115T
46.056	1.6	116028	PRACTICE_WORD	n/a	n/a	WAGON	8	-1	[0, 0, 0]	n/a	FR1	0	R1115T
48.473	1.6	118445	PRACTICE_WORD	n/a	n/a	CHEST	9	-1	[0, 0, 0]	n/a	FR1	0	R1115T
50.874	1.6	120846	PRACTICE_WORD	n/a	n/a	ATTIC	10	-1	[0, 0, 0]	n/a	FR1	0	R1115T
53.424	1.6	123396	PRACTICE_WORD	n/a	n/a	CAMEL	11	-1	[0, 0, 0]	n/a	FR1	0	R1115T
55.958	1.6	125930	PRACTICE_WORD	n/a	n/a	TONGUE	12	-1	[0, 0, 0]	n/a	FR1	0	R1115T
57.575	0.0	127547	PRACTICE_DISTRACT_START	n/a	n/a	n/a	-999	-1	[0, 0, 0]	n/a	FR1	0	R1115T
57.575	0.016	127547	START	n/a	n/a	n/a	-999	-1	[-999, -999, -999]	n/a	FR1	0	R1115T
57.591	16.72	127563	PROB	16.693	n/a	n/a	-999	-1	[1, 4, 5]	10.0	FR1	0	R1115T
74.311	7.541	144282	PROB	7.541	n/a	n/a	-999	-1	[6, 9, 1]	16.0	FR1	0	R1115T
81.852	0.01	151823	STOP	n/a	n/a	n/a	-999	-1	[-999, -999, -999]	n/a	FR1	0	R1115T
81.862	0.603	151833	PRACTICE_DISTRACT_END	n/a	n/a	n/a	-999	-1	[0, 0, 0]	n/a	FR1	0	R1115T
82.465	30.514	152436	PRACTICE_REC_START	n/a	n/a	n/a	-999	-1	[0, 0, 0]	n/a	FR1	0	R1115T
112.979	39.779	182948	PRACTICE_REC_END	n/a	n/a	n/a	-999	-1	[0, 0, 0]	n/a	FR1	0	R1115T
152.758	10.0	222725	COUNTDOWN_START	n/a	n/a	n/a	-999	1	[0, 0, 0]	n/a	FR1	0	R1115T
152.759	10.427	222726	TRIAL	n/a	n/a	n/a	-999	1	[0, 0, 0]	n/a	FR1	0	R1115T
163.186	0.008	233153	COUNTDOWN_END	n/a	n/a	n/a	-999	1	[0, 0, 0]	n/a	FR1	0	R1115T
163.194	1.6	233161	ORIENT	n/a	n/a	n/a	-999	1	[0, 0, 0]	n/a	FR1	0	R1115T
165.678	1.6	235644	WORD	n/a	wordpools/wordpool_EN.txt	STEAK	1	1	[0, 0, 0]	n/a	FR1	0	R1115T
168.195	1.6	238161	WORD	n/a	wordpools/wordpool_EN.txt	EGG	2	1	[0, 0, 0]	n/a	FR1	0	R1115T
170.595	1.6	240561	WORD	n/a	wordpools/wordpool_EN.txt	BLOOM	3	1	[0, 0, 0]	n/a	FR1	0	R1115T
173.046	1.6	243012	WORD	n/a	wordpools/wordpool_EN.txt	PEAR	4	1	[0, 0, 0]	n/a	FR1	0	R1115T
175.596	1.6	245562	WORD	n/a	wordpools/wordpool_EN.txt	FOOD	5	1	[0, 0, 0]	n/a	FR1	0	R1115T
178.097	1.6	248063	WORD	n/a	wordpools/wordpool_EN.txt	SLEEVE	6	1	[0, 0, 0]	n/a	FR1	0	R1115T
180.73	1.6	250696	WORD	n/a	wordpools/wordpool_EN.txt	ELF	7	1	[0, 0, 0]	n/a	FR1	0	R1115T
183.264	1.6	253230	WORD	n/a	wordpools/wordpool_EN.txt	GEESE	8	1	[0, 0, 0]	n/a	FR1	0	R1115T
185.815	1.6	255780	WORD	n/a	wordpools/wordpool_EN.txt	BAG	9	1	[0, 0, 0]	n/a	FR1	0	R1115T
188.365	1.6	258330	WORD	n/a	wordpools/wordpool_EN.txt	SPRING	10	1	[0, 0, 0]	n/a	FR1	0	R1115T
190.782	1.6	260747	WORD	n/a	wordpools/wordpool_EN.txt	MILK	11	1	[0, 0, 0]	n/a	FR1	0	R1115T
193.183	1.6	263148	WORD	n/a	wordpools/wordpool_EN.txt	FARM	12	1	[0, 0, 0]	n/a	FR1	0	R1115T
194.8	0.0	264765	DISTRACT_START	n/a	n/a	n/a	-999	1	[0, 0, 0]	n/a	FR1	0	R1115T
194.8	0.016	264765	START	n/a	n/a	n/a	-999	1	[-999, -999, -999]	n/a	FR1	0	R1115T
194.816	14.87	264781	PROB	14.844	n/a	n/a	-999	1	[9, 4, 1]	15.0	FR1	0	R1115T
209.686	24.813	279650	PROB	24.813	n/a	n/a	-999	1	[4, 8, 9]	21.0	FR1	0	R1115T
234.499	0.008	304462	STOP	n/a	n/a	n/a	-999	1	[-999, -999, -999]	n/a	FR1	0	R1115T
234.507	1.154	304470	DISTRACT_END	n/a	n/a	n/a	-999	1	[0, 0, 0]	n/a	FR1	0	R1115T
235.661	1.011	305624	REC_START	n/a	n/a	n/a	-999	1	[0, 0, 0]	n/a	FR1	0	R1115T
236.672	0.525	306635	REC_WORD	1.011	n/a	STEAK	-999	1	[0, 0, 0]	n/a	FR1	0	R1115T
237.197	0.619	307160	REC_WORD	1.536	n/a	EGG	-999	1	[0, 0, 0]	n/a	FR1	0	R1115T
237.816	1.449	307779	REC_WORD	2.155	n/a	BLOOM	-999	1	[0, 0, 0]	n/a	FR1	0	R1115T
239.265	0.69	309228	REC_WORD	3.604	n/a	PLUG	-999	1	[0, 0, 0]	n/a	FR1	0	R1115T
239.955	3.651	309918	REC_WORD	4.294	n/a	PEAR	-999	1	[0, 0, 0]	n/a	FR1	0	R1115T
243.606	17.576	313569	REC_WORD	7.945	n/a	ELF	-999	1	[0, 0, 0]	n/a	FR1	0	R1115T
261.182	4.487	331144	REC_WORD	25.521	n/a	SLEEVE	-999	1	[0, 0, 0]	n/a	FR1	0	R1115T
265.669	7.428	335631	REC_END	n/a	n/a	n/a	-999	1	[0, 0, 0]	n/a	FR1	0	R1115T
273.097	0.0	343058	TRIAL	n/a	n/a	n/a	-999	2	[0, 0, 0]	n/a	FR1	0	R1115T
273.097	10.0	343058	COUNTDOWN_START	n/a	n/a	n/a	-999	2	[0, 0, 0]	n/a	FR1	0	R1115T
283.525	0.007	353486	COUNTDOWN_END	n/a	n/a	n/a	-999	2	[0, 0, 0]	n/a	FR1	0	R1115T
283.532	1.6	353493	ORIENT	n/a	n/a	n/a	-999	2	[0, 0, 0]	n/a	FR1	0	R1115T
285.933	1.6	355894	WORD	n/a	wordpools/wordpool_EN.txt	SOCK	1	2	[0, 0, 0]	n/a	FR1	0	R1115T
288.45	1.6	358410	WORD	n/a	wordpools/wordpool_EN.txt	LEG	2	2	[0, 0, 0]	n/a	FR1	0	R1115T
290.984	1.6	360944	WORD	n/a	wordpools/wordpool_EN.txt	TOY	3	2	[0, 0, 0]	n/a	FR1	0	R1115T
293.584	1.6	363544	WORD	n/a	wordpools/wordpool_EN.txt	BUSH	4	2	[0, 0, 0]	n/a	FR1	0	R1115T
296.001	1.6	365961	WORD	n/a	wordpools/wordpool_EN.txt	OAK	5	2	[0, 0, 0]	n/a	FR1	0	R1115T
298.518	1.6	368478	WORD	n/a	wordpools/wordpool_EN.txt	SHOE	6	2	[0, 0, 0]	n/a	FR1	0	R1115T
301.086	1.6	371046	WORD	n/a	wordpools/wordpool_EN.txt	ROAD	7	2	[0, 0, 0]	n/a	FR1	0	R1115T
303.703	1.6	373663	WORD	n/a	wordpools/wordpool_EN.txt	FOX	8	2	[0, 0, 0]	n/a	FR1	0	R1115T
306.22	1.6	376180	WORD	n/a	wordpools/wordpool_EN.txt	SEAT	9	2	[0, 0, 0]	n/a	FR1	0	R1115T
308.754	1.6	378713	WORD	n/a	wordpools/wordpool_EN.txt	SWAMP	10	2	[0, 0, 0]	n/a	FR1	0	R1115T
311.221	1.6	381180	WORD	n/a	wordpools/wordpool_EN.txt	FOOT	11	2	[0, 0, 0]	n/a	FR1	0	R1115T
313.653	1.6	383612	WORD	n/a	wordpools/wordpool_EN.txt	GRASS	12	2	[0, 0, 0]	n/a	FR1	0	R1115T
315.255	0.001	385214	DISTRACT_START	n/a	n/a	n/a	-999	2	[0, 0, 0]	n/a	FR1	0	R1115T
315.256	0.015	385215	START	n/a	n/a	n/a	-999	2	[-999, -999, -999]	n/a	FR1	0	R1115T
315.271	6.268	385230	PROB	6.237	n/a	n/a	-999	2	[4, 1, 1]	6.0	FR1	0	R1115T
321.539	3.801	391498	PROB	3.769	n/a	n/a	-999	2	[3, 6, 2]	11.0	FR1	0	R1115T
325.34	6.651	395299	PROB	6.624	n/a	n/a	-999	2	[4, 3, 8]	15.0	FR1	0	R1115T
331.991	13.125	401949	PROB	13.125	n/a	n/a	-999	2	[6, 9, 2]	17.0	FR1	0	R1115T
345.116	0.011	415074	STOP	n/a	n/a	n/a	-999	2	[-999, -999, -999]	n/a	FR1	0	R1115T
345.127	1.117	415085	DISTRACT_END	n/a	n/a	n/a	-999	2	[0, 0, 0]	n/a	FR1	0	R1115T
346.244	0.779	416202	REC_START	n/a	n/a	n/a	-999	2	[0, 0, 0]	n/a	FR1	0	R1115T
347.023	0.846	416980	REC_WORD	0.779	n/a	SOCK	-999	2	[0, 0, 0]	n/a	FR1	0	R1115T
347.869	1.069	417826	REC_WORD	1.625	n/a	LEG	-999	2	[0, 0, 0]	n/a	FR1	0	R1115T
348.938	0.676	418895	REC_WORD	2.694	n/a	TOY	-999	2	[0, 0, 0]	n/a	FR1	0	R1115T
349.614	26.644	419571	REC_WORD	3.37	n/a	BUSH	-999	2	[0, 0, 0]	n/a	FR1	0	R1115T
376.258	70.004	446214	REC_END	n/a	n/a	n/a	-999	2	[0, 0, 0]	n/a	FR1	0	R1115T
446.262	0.0	516215	TRIAL	n/a	n/a	n/a	-999	3	[0, 0, 0]	n/a	FR1	0	R1115T
446.262	10.0	516215	COUNTDOWN_START	n/a	n/a	n/a	-999	3	[0, 0, 0]	n/a	FR1	0	R1115T
456.69	0.007	526642	COUNTDOWN_END	n/a	n/a	n/a	-999	3	[0, 0, 0]	n/a	FR1	0	R1115T
456.697	1.6	526649	ORIENT	n/a	n/a	n/a	-999	3	[0, 0, 0]	n/a	FR1	0	R1115T
459.214	1.6	529166	WORD	n/a	wordpools/wordpool_EN.txt	RAKE	1	3	[0, 0, 0]	n/a	FR1	0	R1115T
461.781	1.6	531733	WORD	n/a	wordpools/wordpool_EN.txt	CROWN	2	3	[0, 0, 0]	n/a	FR1	0	R1115T
464.165	1.6	534117	WORD	n/a	wordpools/wordpool_EN.txt	TOOTH	3	3	[0, 0, 0]	n/a	FR1	0	R1115T
466.648	1.6	536600	WORD	n/a	wordpools/wordpool_EN.txt	TOE	4	3	[0, 0, 0]	n/a	FR1	0	R1115T
469.149	1.6	539100	WORD	n/a	wordpools/wordpool_EN.txt	CORN	5	3	[0, 0, 0]	n/a	FR1	0	R1115T
471.533	1.6	541484	WORD	n/a	wordpools/wordpool_EN.txt	GUARD	6	3	[0, 0, 0]	n/a	FR1	0	R1115T
473.917	1.6	543868	WORD	n/a	wordpools/wordpool_EN.txt	DESK	7	3	[0, 0, 0]	n/a	FR1	0	R1115T
476.534	1.6	546485	WORD	n/a	wordpools/wordpool_EN.txt	TEETH	8	3	[0, 0, 0]	n/a	FR1	0	R1115T
479.118	1.6	549069	WORD	n/a	wordpools/wordpool_EN.txt	TOOL	9	3	[0, 0, 0]	n/a	FR1	0	R1115T
481.685	1.6	551636	WORD	n/a	wordpools/wordpool_EN.txt	BRIDGE	10	3	[0, 0, 0]	n/a	FR1	0	R1115T
484.152	1.6	554103	WORD	n/a	wordpools/wordpool_EN.txt	WHEEL	11	3	[0, 0, 0]	n/a	FR1	0	R1115T
486.586	1.6	556537	WORD	n/a	wordpools/wordpool_EN.txt	CUBE	12	3	[0, 0, 0]	n/a	FR1	0	R1115T
488.203	0.001	558154	DISTRACT_START	n/a	n/a	n/a	-999	3	[0, 0, 0]	n/a	FR1	0	R1115T
488.204	0.016	558155	START	n/a	n/a	n/a	-999	3	[-999, -999, -999]	n/a	FR1	0	R1115T
488.22	12.052	558171	PROB	12.031	n/a	n/a	-999	3	[2, 7, 7]	11.0	FR1	0	R1115T
500.272	4.301	570222	PROB	4.268	n/a	n/a	-999	3	[5, 2, 3]	10.0	FR1	0	R1115T
504.573	4.798	574523	PROB	4.798	n/a	n/a	-999	3	[6, 5, 9]	20.0	FR1	0	R1115T
509.371	0.019	579321	STOP	n/a	n/a	n/a	-999	3	[-999, -999, -999]	n/a	FR1	0	R1115T
509.39	1.151	579340	DISTRACT_END	n/a	n/a	n/a	-999	3	[0, 0, 0]	n/a	FR1	0	R1115T
510.541	1.159	580490	REC_START	n/a	n/a	n/a	-999	3	[0, 0, 0]	n/a	FR1	0	R1115T
511.7	0.944	581649	REC_WORD	1.159	n/a	RAKE	-999	3	[0, 0, 0]	n/a	FR1	0	R1115T
512.644	1.508	582593	REC_WORD	2.103	n/a	CROWN	-999	3	[0, 0, 0]	n/a	FR1	0	R1115T
514.152	0.618	584101	REC_WORD	3.611	n/a	CORN	-999	3	[0, 0, 0]	n/a	FR1	0	R1115T
514.77	2.379	584719	REC_WORD	4.229	n/a	GUARD	-999	3	[0, 0, 0]	n/a	FR1	0	R1115T
517.149	1.18	587098	REC_WORD	6.608	n/a	TEETH	-999	3	[0, 0, 0]	n/a	FR1	0	R1115T
518.329	22.222	588278	REC_WORD	7.788	n/a	TOOTH	-999	3	[0, 0, 0]	n/a	FR1	0	R1115T
540.551	16.431	610499	REC_END	n/a	n/a	n/a	-999	3	[0, 0, 0]	n/a	FR1	0	R1115T
556.982	0.0	626929	TRIAL	n/a	n/a	n/a	-999	4	[0, 0, 0]	n/a	FR1	0	R1115T
556.982	10.0	626929	COUNTDOWN_START	n/a	n/a	n/a	-999	4	[0, 0, 0]	n/a	FR1	0	R1115T
567.41	0.007	637357	COUNTDOWN_END	n/a	n/a	n/a	-999	4	[0, 0, 0]	n/a	FR1	0	R1115T
567.417	1.6	637364	ORIENT	n/a	n/a	n/a	-999	4	[0, 0, 0]	n/a	FR1	0	R1115T
569.934	1.6	639881	WORD	n/a	wordpools/wordpool_EN.txt	JAR	1	4	[0, 0, 0]	n/a	FR1	0	R1115T
572.385	1.6	642331	WORD	n/a	wordpools/wordpool_EN.txt	STORM	2	4	[0, 0, 0]	n/a	FR1	0	R1115T
574.969	1.6	644915	WORD	n/a	wordpools/wordpool_EN.txt	OAR	3	4	[0, 0, 0]	n/a	FR1	0	R1115T
577.419	1.6	647365	WORD	n/a	wordpools/wordpool_EN.txt	STAIR	4	4	[0, 0, 0]	n/a	FR1	0	R1115T
580.053	1.6	649999	WORD	n/a	wordpools/wordpool_EN.txt	WORM	5	4	[0, 0, 0]	n/a	FR1	0	R1115T
582.652	1.6	652598	WORD	n/a	wordpools/wordpool_EN.txt	MOTH	6	4	[0, 0, 0]	n/a	FR1	0	R1115T
585.204	1.6	655150	WORD	n/a	wordpools/wordpool_EN.txt	SOAP	7	4	[0, 0, 0]	n/a	FR1	0	R1115T
587.821	1.6	657767	WORD	n/a	wordpools/wordpool_EN.txt	CLOTH	8	4	[0, 0, 0]	n/a	FR1	0	R1115T
590.305	1.6	660251	WORD	n/a	wordpools/wordpool_EN.txt	WEB	9	4	[0, 0, 0]	n/a	FR1	0	R1115T
592.872	1.6	662817	WORD	n/a	wordpools/wordpool_EN.txt	DIME	10	4	[0, 0, 0]	n/a	FR1	0	R1115T
595.289	1.6	665234	WORD	n/a	wordpools/wordpool_EN.txt	CRANE	11	4	[0, 0, 0]	n/a	FR1	0	R1115T
597.673	1.6	667618	WORD	n/a	wordpools/wordpool_EN.txt	STRAW	12	4	[0, 0, 0]	n/a	FR1	0	R1115T
599.29	0.001	669235	DISTRACT_START	n/a	n/a	n/a	-999	4	[0, 0, 0]	n/a	FR1	0	R1115T
599.291	0.015	669236	START	n/a	n/a	n/a	-999	4	[-999, -999, -999]	n/a	FR1	0	R1115T
599.306	5.518	669251	PROB	5.498	n/a	n/a	-999	4	[4, 6, 6]	16.0	FR1	0	R1115T
604.824	3.834	674769	PROB	3.803	n/a	n/a	-999	4	[3, 7, 7]	17.0	FR1	0	R1115T
608.658	4.551	678603	PROB	4.521	n/a	n/a	-999	4	[4, 2, 3]	9.0	FR1	0	R1115T
613.209	5.901	683153	PROB	5.867	n/a	n/a	-999	4	[4, 2, 2]	8.0	FR1	0	R1115T
619.11	5.253	689054	PROB	5.253	n/a	n/a	-999	4	[5, 5, 8]	18.0	FR1	0	R1115T
624.363	0.015	694307	STOP	n/a	n/a	n/a	-999	4	[-999, -999, -999]	n/a	FR1	0	R1115T
624.378	1.034	694322	DISTRACT_END	n/a	n/a	n/a	-999	4	[0, 0, 0]	n/a	FR1	0	R1115T
625.412	2.033	695356	REC_START	n/a	n/a	n/a	-999	4	[0, 0, 0]	n/a	FR1	0	R1115T
627.445	2.363	697389	REC_WORD	2.033	n/a	JAR	-999	4	[0, 0, 0]	n/a	FR1	0	R1115T
629.808	1.882	699752	REC_WORD	4.396	n/a	OAR	-999	4	[0, 0, 0]	n/a	FR1	0	R1115T
631.69	0.554	701634	REC_WORD	6.278	n/a	WORM	-999	4	[0, 0, 0]	n/a	FR1	0	R1115T
632.244	23.18	702187	REC_WORD	6.832	n/a	STAIR	-999	4	[0, 0, 0]	n/a	FR1	0	R1115T
655.424	49.818	725366	REC_END	n/a	n/a	n/a	-999	4	[0, 0, 0]	n/a	FR1	0	R1115T
705.242	10.0	775182	COUNTDOWN_START	n/a	n/a	n/a	-999	5	[0, 0, 0]	n/a	FR1	0	R1115T
705.243	10.427	775183	TRIAL	n/a	n/a	n/a	-999	5	[0, 0, 0]	n/a	FR1	0	R1115T
715.67	0.008	785609	COUNTDOWN_END	n/a	n/a	n/a	-999	5	[0, 0, 0]	n/a	FR1	0	R1115T
715.678	1.6	785617	ORIENT	n/a	n/a	n/a	-999	5	[0, 0, 0]	n/a	FR1	0	R1115T
718.211	1.6	788150	WORD	n/a	wordpools/wordpool_EN.txt	STICK	1	5	[0, 0, 0]	n/a	FR1	0	R1115T
720.595	1.6	790534	WORD	n/a	wordpools/wordpool_EN.txt	PEARL	2	5	[0, 0, 0]	n/a	FR1	0	R1115T
723.062	1.6	793001	WORD	n/a	wordpools/wordpool_EN.txt	NAIL	3	5	[0, 0, 0]	n/a	FR1	0	R1115T
725.529	1.6	795468	WORD	n/a	wordpools/wordpool_EN.txt	BEAK	4	5	[0, 0, 0]	n/a	FR1	0	R1115T
728.013	1.6	797952	WORD	n/a	wordpools/wordpool_EN.txt	SEAL	5	5	[0, 0, 0]	n/a	FR1	0	R1115T
730.397	1.6	800336	WORD	n/a	wordpools/wordpool_EN.txt	PIN	6	5	[0, 0, 0]	n/a	FR1	0	R1115T
732.847	1.6	802786	WORD	n/a	wordpools/wordpool_EN.txt	WOLF	7	5	[0, 0, 0]	n/a	FR1	0	R1115T
735.414	1.6	805352	WORD	n/a	wordpools/wordpool_EN.txt	HAND	8	5	[0, 0, 0]	n/a	FR1	0	R1115T
738.015	1.6	807953	WORD	n/a	wordpools/wordpool_EN.txt	BOX	9	5	[0, 0, 0]	n/a	FR1	0	R1115T
740.465	1.6	810403	WORD	n/a	wordpools/wordpool_EN.txt	CAVE	10	5	[0, 0, 0]	n/a	FR1	0	R1115T
743.049	1.6	812987	WORD	n/a	wordpools/wordpool_EN.txt	ZOO	11	5	[0, 0, 0]	n/a	FR1	0	R1115T
745.6	1.6	815538	WORD	n/a	wordpools/wordpool_EN.txt	CALF	12	5	[0, 0, 0]	n/a	FR1	0	R1115T
747.217	0.001	817155	DISTRACT_START	n/a	n/a	n/a	-999	5	[0, 0, 0]	n/a	FR1	0	R1115T
747.218	0.015	817156	START	n/a	n/a	n/a	-999	5	[-999, -999, -999]	n/a	FR1	0	R1115T
747.233	10.202	817171	PROB	10.178	n/a	n/a	-999	5	[3, 2, 9]	14.0	FR1	0	R1115T
757.435	4.051	827372	PROB	4.016	n/a	n/a	-999	5	[3, 7, 7]	17.0	FR1	0	R1115T
761.486	5.684	831423	PROB	5.654	n/a	n/a	-999	5	[5, 5, 8]	18.0	FR1	0	R1115T
767.17	2.505	837107	PROB	2.505	n/a	n/a	-999	5	[7, 3, 3]	13.0	FR1	0	R1115T
769.675	0.012	839612	STOP	n/a	n/a	n/a	-999	5	[-999, -999, -999]	n/a	FR1	0	R1115T
769.687	1.101	839624	DISTRACT_END	n/a	n/a	n/a	-999	5	[0, 0, 0]	n/a	FR1	0	R1115T
770.788	1.307	840725	REC_START	n/a	n/a	n/a	-999	5	[0, 0, 0]	n/a	FR1	0	R1115T
772.095	1.242	842032	REC_WORD	1.307	n/a	STICK	-999	5	[0, 0, 0]	n/a	FR1	0	R1115T
773.337	1.518	843274	REC_WORD	2.549	n/a	PEARL	-999	5	[0, 0, 0]	n/a	FR1	0	R1115T
774.855	0.703	844791	REC_WORD	4.067	n/a	WORM	-999	5	[0, 0, 0]	n/a	FR1	0	R1115T
775.558	2.019	845494	REC_WORD	4.77	n/a	BEAK	-999	5	[0, 0, 0]	n/a	FR1	0	R1115T
777.577	1.294	847513	REC_WORD	6.789	n/a	ZOO	-999	5	[0, 0, 0]	n/a	FR1	0	R1115T
778.871	21.934	848807	REC_WORD	8.083	n/a	CALF	-999	5	[0, 0, 0]	n/a	FR1	0	R1115T
800.805	3.905	870740	REC_END	n/a	n/a	n/a	-999	5	[0, 0, 0]	n/a	FR1	0	R1115T
804.71	0.0	874645	TRIAL	n/a	n/a	n/a	-999	6	[0, 0, 0]	n/a	FR1	0	R1115T
804.71	10.0	874645	COUNTDOWN_START	n/a	n/a	n/a	-999	6	[0, 0, 0]	n/a	FR1	0	R1115T
815.138	0.008	885072	COUNTDOWN_END	n/a	n/a	n/a	-999	6	[0, 0, 0]	n/a	FR1	0	R1115T
815.146	1.6	885080	ORIENT	n/a	n/a	n/a	-999	6	[0, 0, 0]	n/a	FR1	0	R1115T
817.579	1.6	887513	WORD	n/a	wordpools/wordpool_EN.txt	SPONGE	1	6	[0, 0, 0]	n/a	FR1	0	R1115T
820.197	1.6	890131	WORD	n/a	wordpools/wordpool_EN.txt	PIT	2	6	[0, 0, 0]	n/a	FR1	0	R1115T
822.764	1.6	892698	WORD	n/a	wordpools/wordpool_EN.txt	SNAIL	3	6	[0, 0, 0]	n/a	FR1	0	R1115T
825.231	1.6	895165	WORD	n/a	wordpools/wordpool_EN.txt	DEER	4	6	[0, 0, 0]	n/a	FR1	0	R1115T
827.798	1.6	897732	WORD	n/a	wordpools/wordpool_EN.txt	PALM	5	6	[0, 0, 0]	n/a	FR1	0	R1115T
830.332	1.6	900266	WORD	n/a	wordpools/wordpool_EN.txt	MUD	6	6	[0, 0, 0]	n/a	FR1	0	R1115T
832.865	1.6	902799	WORD	n/a	wordpools/wordpool_EN.txt	DART	7	6	[0, 0, 0]	n/a	FR1	0	R1115T
835.283	1.6	905216	WORD	n/a	wordpools/wordpool_EN.txt	TENT	8	6	[0, 0, 0]	n/a	FR1	0	R1115T
837.7	1.6	907633	WORD	n/a	wordpools/wordpool_EN.txt	FISH	9	6	[0, 0, 0]	n/a	FR1	0	R1115T
840.267	1.6	910200	WORD	n/a	wordpools/wordpool_EN.txt	SHRIMP	10	6	[0, 0, 0]	n/a	FR1	0	R1115T
842.767	1.6	912700	WORD	n/a	wordpools/wordpool_EN.txt	SNAKE	11	6	[0, 0, 0]	n/a	FR1	0	R1115T
845.168	1.6	915101	WORD	n/a	wordpools/wordpool_EN.txt	VINE	12	6	[0, 0, 0]	n/a	FR1	0	R1115T
846.785	0.001	916718	DISTRACT_START	n/a	n/a	n/a	-999	6	[0, 0, 0]	n/a	FR1	0	R1115T
846.786	0.015	916719	START	n/a	n/a	n/a	-999	6	[-999, -999, -999]	n/a	FR1	0	R1115T
846.801	9.919	916734	PROB	9.883	n/a	n/a	-999	6	[5, 5, 3]	13.0	FR1	0	R1115T
856.72	6.751	926652	PROB	6.724	n/a	n/a	-999	6	[2, 4, 1]	7.0	FR1	0	R1115T
863.471	7.437	933403	PROB	7.437	n/a	n/a	-999	6	[7, 1, 6]	14.0	FR1	0	R1115T
870.908	0.014	940840	STOP	n/a	n/a	n/a	-999	6	[-999, -999, -999]	n/a	FR1	0	R1115T
870.922	1.035	940854	DISTRACT_END	n/a	n/a	n/a	-999	6	[0, 0, 0]	n/a	FR1	0	R1115T
871.957	1.886	941889	REC_START	n/a	n/a	n/a	-999	6	[0, 0, 0]	n/a	FR1	0	R1115T
873.843	1.394	943775	REC_WORD	1.886	n/a	ZOO	-999	6	[0, 0, 0]	n/a	FR1	0	R1115T
875.237	1.564	945169	REC_WORD	3.28	n/a	PEARL	-999	6	[0, 0, 0]	n/a	FR1	0	R1115T
876.801	0.759	946732	REC_WORD	4.844	n/a	WORM	-999	6	[0, 0, 0]	n/a	FR1	0	R1115T
877.56	24.409	947491	REC_WORD	5.603	n/a	PIT	-999	6	[0, 0, 0]	n/a	FR1	0	R1115T
901.969	9.477	971899	REC_END	n/a	n/a	n/a	-999	6	[0, 0, 0]	n/a	FR1	0	R1115T
911.446	0.0	981376	TRIAL	n/a	n/a	n/a	-999	7	[0, 0, 0]	n/a	FR1	0	R1115T
911.446	10.0	981376	COUNTDOWN_START	n/a	n/a	n/a	-999	7	[0, 0, 0]	n/a	FR1	0	R1115T
921.874	0.008	991803	COUNTDOWN_END	n/a	n/a	n/a	-999	7	[0, 0, 0]	n/a	FR1	0	R1115T
921.882	1.6	991811	ORIENT	n/a	n/a	n/a	-999	7	[0, 0, 0]	n/a	FR1	0	R1115T
924.349	1.6	994278	WORD	n/a	wordpools/wordpool_EN.txt	PANTS	1	7	[0, 0, 0]	n/a	FR1	0	R1115T
926.966	1.6	996895	WORD	n/a	wordpools/wordpool_EN.txt	PEN	2	7	[0, 0, 0]	n/a	FR1	0	R1115T
929.466	1.6	999395	WORD	n/a	wordpools/wordpool_EN.txt	SHEEP	3	7	[0, 0, 0]	n/a	FR1	0	R1115T
931.967	1.6	1001896	WORD	n/a	wordpools/wordpool_EN.txt	BATH	4	7	[0, 0, 0]	n/a	FR1	0	R1115T
934.434	1.6	1004363	WORD	n/a	wordpools/wordpool_EN.txt	BED	5	7	[0, 0, 0]	n/a	FR1	0	R1115T
936.851	1.6	1006779	WORD	n/a	wordpools/wordpool_EN.txt	SMILE	6	7	[0, 0, 0]	n/a	FR1	0	R1115T
939.385	1.6	1009313	WORD	n/a	wordpools/wordpool_EN.txt	RIB	7	7	[0, 0, 0]	n/a	FR1	0	R1115T
941.952	1.6	1011880	WORD	n/a	wordpools/wordpool_EN.txt	FOAM	8	7	[0, 0, 0]	n/a	FR1	0	R1115T
944.419	1.6	1014347	WORD	n/a	wordpools/wordpool_EN.txt	PIG	9	7	[0, 0, 0]	n/a	FR1	0	R1115T
947.053	1.6	1016981	WORD	n/a	wordpools/wordpool_EN.txt	CROW	10	7	[0, 0, 0]	n/a	FR1	0	R1115T
949.503	1.6	1019431	WORD	n/a	wordpools/wordpool_EN.txt	THREAD	11	7	[0, 0, 0]	n/a	FR1	0	R1115T
951.954	1.6	1021882	WORD	n/a	wordpools/wordpool_EN.txt	TRAY	12	7	[0, 0, 0]	n/a	FR1	0	R1115T
953.571	0.001	1023499	DISTRACT_START	n/a	n/a	n/a	-999	7	[0, 0, 0]	n/a	FR1	0	R1115T
953.572	0.015	1023500	START	n/a	n/a	n/a	-999	7	[-999, -999, -999]	n/a	FR1	0	R1115T
953.587	11.086	1023515	PROB	11.056	n/a	n/a	-999	7	[1, 7, 2]	10.0	FR1	0	R1115T
964.673	12.571	1034600	PROB	12.571	n/a	n/a	-999	7	[6, 8, 9]	23.0	FR1	0	R1115T
977.244	0.014	1047171	STOP	n/a	n/a	n/a	-999	7	[-999, -999, -999]	n/a	FR1	0	R1115T
977.258	1.068	1047185	DISTRACT_END	n/a	n/a	n/a	-999	7	[0, 0, 0]	n/a	FR1	0	R1115T
978.326	6.266	1048252	REC_START	n/a	n/a	n/a	-999	7	[0, 0, 0]	n/a	FR1	0	R1115T
984.592	0.669	1054518	REC_WORD	6.266	n/a	PANTS	-999	7	[0, 0, 0]	n/a	FR1	0	R1115T
985.261	0.598	1055187	REC_WORD	6.935	n/a	PEN	-999	7	[0, 0, 0]	n/a	FR1	0	R1115T
985.859	0.813	1055785	REC_WORD	7.533	n/a	ZOO	-999	7	[0, 0, 0]	n/a	FR1	0	R1115T
986.672	21.666	1056598	REC_WORD	8.346	n/a	FOAM	-999	7	[0, 0, 0]	n/a	FR1	0	R1115T
1008.338	6.594	1078263	REC_END	n/a	n/a	n/a	-999	7	[0, 0, 0]	n/a	FR1	0	R1115T
1014.932	0.0	1084857	TRIAL	n/a	n/a	n/a	-999	8	[0, 0, 0]	n/a	FR1	0	R1115T
1014.932	10.0	1084857	COUNTDOWN_START	n/a	n/a	n/a	-999	8	[0, 0, 0]	n/a	FR1	0	R1115T
1025.36	0.007	1095284	COUNTDOWN_END	n/a	n/a	n/a	-999	8	[0, 0, 0]	n/a	FR1	0	R1115T
1025.367	1.6	1095291	ORIENT	n/a	n/a	n/a	-999	8	[0, 0, 0]	n/a	FR1	0	R1115T
1027.934	1.6	1097858	WORD	n/a	wordpools/wordpool_EN.txt	RUG	1	8	[0, 0, 0]	n/a	FR1	0	R1115T
1030.468	1.6	1100392	WORD	n/a	wordpools/wordpool_EN.txt	YARD	2	8	[0, 0, 0]	n/a	FR1	0	R1115T
1032.852	1.6	1102776	WORD	n/a	wordpools/wordpool_EN.txt	HOLE	3	8	[0, 0, 0]	n/a	FR1	0	R1115T
1035.386	1.6	1105310	WORD	n/a	wordpools/wordpool_EN.txt	WHALE	4	8	[0, 0, 0]	n/a	FR1	0	R1115T
1037.853	1.6	1107777	WORD	n/a	wordpools/wordpool_EN.txt	HILL	5	8	[0, 0, 0]	n/a	FR1	0	R1115T
1040.27	1.6	1110193	WORD	n/a	wordpools/wordpool_EN.txt	ROOF	6	8	[0, 0, 0]	n/a	FR1	0	R1115T
1042.787	1.6	1112710	WORD	n/a	wordpools/wordpool_EN.txt	ANT	7	8	[0, 0, 0]	n/a	FR1	0	R1115T
1045.187	1.6	1115110	WORD	n/a	wordpools/wordpool_EN.txt	CAGE	8	8	[0, 0, 0]	n/a	FR1	0	R1115T
1047.671	1.6	1117594	WORD	n/a	wordpools/wordpool_EN.txt	TOAD	9	8	[0, 0, 0]	n/a	FR1	0	R1115T
1050.222	1.6	1120145	WORD	n/a	wordpools/wordpool_EN.txt	MOUTH	10	8	[0, 0, 0]	n/a	FR1	0	R1115T
1052.839	1.6	1122762	WORD	n/a	wordpools/wordpool_EN.txt	MOLE	11	8	[0, 0, 0]	n/a	FR1	0	R1115T
1055.256	1.6	1125179	WORD	n/a	wordpools/wordpool_EN.txt	SHELL	12	8	[0, 0, 0]	n/a	FR1	0	R1115T
1056.873	0.001	1126796	DISTRACT_START	n/a	n/a	n/a	-999	8	[0, 0, 0]	n/a	FR1	0	R1115T
1056.874	0.016	1126797	START	n/a	n/a	n/a	-999	8	[-999, -999, -999]	n/a	FR1	0	R1115T
1056.89	7.684	1126813	PROB	7.65	n/a	n/a	-999	8	[8, 9, 1]	18.0	FR1	0	R1115T
1064.574	7.935	1134496	PROB	7.901	n/a	n/a	-999	8	[8, 6, 8]	22.0	FR1	0	R1115T
1072.509	10.111	1142431	PROB	10.111	n/a	n/a	-999	8	[8, 7, 3]	18.0	FR1	0	R1115T
1082.62	0.008	1152541	STOP	n/a	n/a	n/a	-999	8	[-999, -999, -999]	n/a	FR1	0	R1115T
1082.628	1.2	1152549	DISTRACT_END	n/a	n/a	n/a	-999	8	[0, 0, 0]	n/a	FR1	0	R1115T
1083.828	30.011	1153749	REC_START	n/a	n/a	n/a	-999	8	[0, 0, 0]	n/a	FR1	0	R1115T
1113.839	0.006	1183759	REC_WORD_VV	30.011	n/a	<>	-999	8	[0, 0, 0]	n/a	FR1	0	R1115T
1113.845	7.473	1183765	REC_END	n/a	n/a	n/a	-999	8	[0, 0, 0]	n/a	FR1	0	R1115T
1121.318	0.0	1191237	TRIAL	n/a	n/a	n/a	-999	9	[0, 0, 0]	n/a	FR1	0	R1115T
1121.318	10.0	1191237	COUNTDOWN_START	n/a	n/a	n/a	-999	9	[0, 0, 0]	n/a	FR1	0	R1115T
1131.746	0.007	1201665	COUNTDOWN_END	n/a	n/a	n/a	-999	9	[0, 0, 0]	n/a	FR1	0	R1115T
1131.753	1.6	1201672	ORIENT	n/a	n/a	n/a	-999	9	[0, 0, 0]	n/a	FR1	0	R1115T
1134.32	1.6	1204239	WORD	n/a	wordpools/wordpool_EN.txt	BEE	1	9	[0, 0, 0]	n/a	FR1	0	R1115T
1136.854	1.6	1206773	WORD	n/a	wordpools/wordpool_EN.txt	WOOD	2	9	[0, 0, 0]	n/a	FR1	0	R1115T
1139.254	1.6	1209173	WORD	n/a	wordpools/wordpool_EN.txt	ROOT	3	9	[0, 0, 0]	n/a	FR1	0	R1115T
1141.822	1.6	1211740	WORD	n/a	wordpools/wordpool_EN.txt	NOSE	4	9	[0, 0, 0]	n/a	FR1	0	R1115T
1144.305	1.6	1214223	WORD	n/a	wordpools/wordpool_EN.txt	CAT	5	9	[0, 0, 0]	n/a	FR1	0	R1115T
1146.756	1.6	1216674	WORD	n/a	wordpools/wordpool_EN.txt	SKUNK	6	9	[0, 0, 0]	n/a	FR1	0	R1115T
1149.34	1.6	1219258	WORD	n/a	wordpools/wordpool_EN.txt	BRANCH	7	9	[0, 0, 0]	n/a	FR1	0	R1115T
1151.79	1.6	1221708	WORD	n/a	wordpools/wordpool_EN.txt	FROG	8	9	[0, 0, 0]	n/a	FR1	0	R1115T
1154.274	1.6	1224192	WORD	n/a	wordpools/wordpool_EN.txt	FRUIT	9	9	[0, 0, 0]	n/a	FR1	0	R1115T
1156.741	1.6	1226659	WORD	n/a	wordpools/wordpool_EN.txt	STREET	10	9	[0, 0, 0]	n/a	FR1	0	R1115T
1159.308	1.6	1229226	WORD	n/a	wordpools/wordpool_EN.txt	STORE	11	9	[0, 0, 0]	n/a	FR1	0	R1115T
1161.759	1.6	1231676	WORD	n/a	wordpools/wordpool_EN.txt	CHEEK	12	9	[0, 0, 0]	n/a	FR1	0	R1115T
1163.376	0.001	1233293	DISTRACT_START	n/a	n/a	n/a	-999	9	[0, 0, 0]	n/a	FR1	0	R1115T
1163.377	0.015	1233294	START	n/a	n/a	n/a	-999	9	[-999, -999, -999]	n/a	FR1	0	R1115T
1163.392	6.135	1233309	PROB	6.108	n/a	n/a	-999	9	[8, 4, 3]	15.0	FR1	0	R1115T
1169.527	3.667	1239444	PROB	3.636	n/a	n/a	-999	9	[5, 1, 1]	7.0	FR1	0	R1115T
1173.194	2.834	1243111	PROB	2.809	n/a	n/a	-999	9	[2, 5, 5]	12.0	FR1	0	R1115T
1176.028	10.24	1245945	PROB	10.24	n/a	n/a	-999	9	[8, 9, 3]	20.0	FR1	0	R1115T
1186.268	0.012	1256184	STOP	n/a	n/a	n/a	-999	9	[-999, -999, -999]	n/a	FR1	0	R1115T
1186.28	1.201	1256196	DISTRACT_END	n/a	n/a	n/a	-999	9	[0, 0, 0]	n/a	FR1	0	R1115T
1187.481	1.908	1257397	REC_START	n/a	n/a	n/a	-999	9	[0, 0, 0]	n/a	FR1	0	R1115T
1189.389	0.82	1259305	REC_WORD	1.908	n/a	BEE	-999	9	[0, 0, 0]	n/a	FR1	0	R1115T
1190.209	1.643	1260125	REC_WORD	2.728	n/a	WOOD	-999	9	[0, 0, 0]	n/a	FR1	0	R1115T
1191.852	0.693	1261768	REC_WORD	4.371	n/a	ROOT	-999	9	[0, 0, 0]	n/a	FR1	0	R1115T
1192.545	2.026	1262461	REC_WORD	5.064	n/a	NOSE	-999	9	[0, 0, 0]	n/a	FR1	0	R1115T
1194.571	1.716	1264487	REC_WORD	7.09	n/a	SKUNK	-999	9	[0, 0, 0]	n/a	FR1	0	R1115T
1196.287	21.206	1266203	REC_WORD	8.806	n/a	BRANCH	-999	9	[0, 0, 0]	n/a	FR1	0	R1115T
1217.493	6.71	1287408	REC_END	n/a	n/a	n/a	-999	9	[0, 0, 0]	n/a	FR1	0	R1115T
1224.203	10.0	1294117	COUNTDOWN_START	n/a	n/a	n/a	-999	10	[0, 0, 0]	n/a	FR1	0	R1115T
1224.204	10.427	1294118	TRIAL	n/a	n/a	n/a	-999	10	[0, 0, 0]	n/a	FR1	0	R1115T
1234.631	0.007	1304545	COUNTDOWN_END	n/a	n/a	n/a	-999	10	[0, 0, 0]	n/a	FR1	0	R1115T
1234.638	1.6	1304552	ORIENT	n/a	n/a	n/a	-999	10	[0, 0, 0]	n/a	FR1	0	R1115T
1237.089	1.6	1307003	WORD	n/a	wordpools/wordpool_EN.txt	SUN	1	10	[0, 0, 0]	n/a	FR1	0	R1115T
1239.656	1.6	1309570	WORD	n/a	wordpools/wordpool_EN.txt	FILM	2	10	[0, 0, 0]	n/a	FR1	0	R1115T
1242.24	1.6	1312153	WORD	n/a	wordpools/wordpool_EN.txt	STAR	3	10	[0, 0, 0]	n/a	FR1	0	R1115T
1244.724	1.6	1314637	WORD	n/a	wordpools/wordpool_EN.txt	GLOVE	4	10	[0, 0, 0]	n/a	FR1	0	R1115T
1247.308	1.6	1317221	WORD	n/a	wordpools/wordpool_EN.txt	PLATE	5	10	[0, 0, 0]	n/a	FR1	0	R1115T
1249.741	1.6	1319654	WORD	n/a	wordpools/wordpool_EN.txt	PEACH	6	10	[0, 0, 0]	n/a	FR1	0	R1115T
1252.241	1.6	1322154	WORD	n/a	wordpools/wordpool_EN.txt	CLOUD	7	10	[0, 0, 0]	n/a	FR1	0	R1115T
1254.842	1.6	1324755	WORD	n/a	wordpools/wordpool_EN.txt	ARK	8	10	[0, 0, 0]	n/a	FR1	0	R1115T
1257.276	1.6	1327189	WORD	n/a	wordpools/wordpool_EN.txt	CLAY	9	10	[0, 0, 0]	n/a	FR1	0	R1115T
1259.843	1.6	1329756	WORD	n/a	wordpools/wordpool_EN.txt	EAR	10	10	[0, 0, 0]	n/a	FR1	0	R1115T
1262.444	1.6	1332356	WORD	n/a	wordpools/wordpool_EN.txt	WAVE	11	10	[0, 0, 0]	n/a	FR1	0	R1115T
1264.927	1.6	1334839	WORD	n/a	wordpools/wordpool_EN.txt	MOON	12	10	[0, 0, 0]	n/a	FR1	0	R1115T
1266.544	0.001	1336456	DISTRACT_START	n/a	n/a	n/a	-999	10	[0, 0, 0]	n/a	FR1	0	R1115T
1266.545	0.016	1336457	START	n/a	n/a	n/a	-999	10	[-999, -999, -999]	n/a	FR1	0	R1115T
1266.561	8.918	1336473	PROB	8.891	n/a	n/a	-999	10	[4, 2, 6]	12.0	FR1	0	R1115T
1275.479	16.421	1345391	PROB	16.421	n/a	n/a	-999	10	[5, 7, 9]	21.0	FR1	0	R1115T
1291.9	0.016	1361811	STOP	n/a	n/a	n/a	-999	10	[-999, -999, -999]	n/a	FR1	0	R1115T
1291.916	1.151	1361827	DISTRACT_END	n/a	n/a	n/a	-999	10	[0, 0, 0]	n/a	FR1	0	R1115T
1293.067	30.0	1362978	REC_START	n/a	n/a	n/a	-999	10	[0, 0, 0]	n/a	FR1	0	R1115T
1323.067	0.012	1392976	REC_WORD_VV	30.0	n/a	<>	-999	10	[0, 0, 0]	n/a	FR1	0	R1115T
1323.079	43.0	1392988	REC_END	n/a	n/a	n/a	-999	10	[0, 0, 0]	n/a	FR1	0	R1115T
1366.079	0.0	1435986	TRIAL	n/a	n/a	n/a	-999	11	[0, 0, 0]	n/a	FR1	0	R1115T
1366.079	10.0	1435986	COUNTDOWN_START	n/a	n/a	n/a	-999	11	[0, 0, 0]	n/a	FR1	0	R1115T
1376.507	0.007	1446414	COUNTDOWN_END	n/a	n/a	n/a	-999	11	[0, 0, 0]	n/a	FR1	0	R1115T
1376.514	1.6	1446421	ORIENT	n/a	n/a	n/a	-999	11	[0, 0, 0]	n/a	FR1	0	R1115T
1378.982	1.6	1448889	WORD	n/a	wordpools/wordpool_EN.txt	DOG	1	11	[0, 0, 0]	n/a	FR1	0	R1115T
1381.465	1.6	1451372	WORD	n/a	wordpools/wordpool_EN.txt	GOAT	2	11	[0, 0, 0]	n/a	FR1	0	R1115T
1384.049	1.6	1453956	WORD	n/a	wordpools/wordpool_EN.txt	HEN	3	11	[0, 0, 0]	n/a	FR1	0	R1115T
1386.516	1.6	1456422	WORD	n/a	wordpools/wordpool_EN.txt	DUCK	4	11	[0, 0, 0]	n/a	FR1	0	R1115T
1389.017	1.6	1458923	WORD	n/a	wordpools/wordpool_EN.txt	PET	5	11	[0, 0, 0]	n/a	FR1	0	R1115T
1391.617	1.6	1461523	WORD	n/a	wordpools/wordpool_EN.txt	SPOON	6	11	[0, 0, 0]	n/a	FR1	0	R1115T
1394.034	1.6	1463940	WORD	n/a	wordpools/wordpool_EN.txt	BLUSH	7	11	[0, 0, 0]	n/a	FR1	0	R1115T
1396.65	1.6	1466556	WORD	n/a	wordpools/wordpool_EN.txt	TRUCK	8	11	[0, 0, 0]	n/a	FR1	0	R1115T
1399.018	1.6	1468924	WORD	n/a	wordpools/wordpool_EN.txt	FLEA	9	11	[0, 0, 0]	n/a	FR1	0	R1115T
1401.452	1.6	1471358	WORD	n/a	wordpools/wordpool_EN.txt	JEEP	10	11	[0, 0, 0]	n/a	FR1	0	R1115T
1403.986	1.6	1473892	WORD	n/a	wordpools/wordpool_EN.txt	TOAST	11	11	[0, 0, 0]	n/a	FR1	0	R1115T
1406.52	1.6	1476425	WORD	n/a	wordpools/wordpool_EN.txt	RAT	12	11	[0, 0, 0]	n/a	FR1	0	R1115T
1408.137	0.001	1478042	DISTRACT_START	n/a	n/a	n/a	-999	11	[0, 0, 0]	n/a	FR1	0	R1115T
1408.138	0.016	1478043	START	n/a	n/a	n/a	-999	11	[-999, -999, -999]	n/a	FR1	0	R1115T
1408.154	11.435	1478059	PROB	11.41	n/a	n/a	-999	11	[3, 2, 4]	9.0	FR1	0	R1115T
1419.589	8.535	1489494	PROB	8.511	n/a	n/a	-999	11	[1, 9, 6]	16.0	FR1	0	R1115T
1428.124	15.463	1498028	PROB	15.463	n/a	n/a	-999	11	[1, 4, 6]	11.0	FR1	0	R1115T
1443.587	0.006	1513491	STOP	n/a	n/a	n/a	-999	11	[-999, -999, -999]	n/a	FR1	0	R1115T
1443.593	1.185	1513497	DISTRACT_END	n/a	n/a	n/a	-999	11	[0, 0, 0]	n/a	FR1	0	R1115T
1444.778	0.254	1514682	REC_START	n/a	n/a	n/a	-999	11	[0, 0, 0]	n/a	FR1	0	R1115T
1445.032	1.298	1514936	REC_WORD	0.254	n/a	DOG	-999	11	[0, 0, 0]	n/a	FR1	0	R1115T
1446.33	1.366	1516233	REC_WORD	1.552	n/a	GOAT	-999	11	[0, 0, 0]	n/a	FR1	0	R1115T
1447.696	1.705	1517599	REC_WORD	2.918	n/a	HEN	-999	11	[0, 0, 0]	n/a	FR1	0	R1115T
1449.401	1.76	1519304	REC_WORD	4.623	n/a	DUCK	-999	11	[0, 0, 0]	n/a	FR1	0	R1115T
1451.161	0.719	1521064	REC_WORD	6.383	n/a	TRUCK	-999	11	[0, 0, 0]	n/a	FR1	0	R1115T
1451.88	22.91	1521783	REC_WORD	7.102	n/a	FLEA	-999	11	[0, 0, 0]	n/a	FR1	0	R1115T
1474.79	2.809	1544692	REC_END	n/a	n/a	n/a	-999	11	[0, 0, 0]	n/a	FR1	0	R1115T
1477.599	10.0	1547501	COUNTDOWN_START	n/a	n/a	n/a	-999	12	[0, 0, 0]	n/a	FR1	0	R1115T
1477.6	10.427	1547502	TRIAL	n/a	n/a	n/a	-999	12	[0, 0, 0]	n/a	FR1	0	R1115T
1488.027	0.008	1557928	COUNTDOWN_END	n/a	n/a	n/a	-999	12	[0, 0, 0]	n/a	FR1	0	R1115T
1488.035	1.6	1557936	ORIENT	n/a	n/a	n/a	-999	12	[0, 0, 0]	n/a	FR1	0	R1115T
1490.518	1.6	1560419	WORD	n/a	wordpools/wordpool_EN.txt	MAP	1	12	[0, 0, 0]	n/a	FR1	0	R1115T
1493.086	1.6	1562987	WORD	n/a	wordpools/wordpool_EN.txt	GRAPE	2	12	[0, 0, 0]	n/a	FR1	0	R1115T
1495.603	1.6	1565504	WORD	n/a	wordpools/wordpool_EN.txt	HOSE	3	12	[0, 0, 0]	n/a	FR1	0	R1115T
1498.203	1.6	1568104	WORD	n/a	wordpools/wordpool_EN.txt	TRAIN	4	12	[0, 0, 0]	n/a	FR1	0	R1115T
1500.737	1.6	1570638	WORD	n/a	wordpools/wordpool_EN.txt	BOOK	5	12	[0, 0, 0]	n/a	FR1	0	R1115T
1503.354	1.6	1573255	WORD	n/a	wordpools/wordpool_EN.txt	TREE	6	12	[0, 0, 0]	n/a	FR1	0	R1115T
1505.871	1.6	1575772	WORD	n/a	wordpools/wordpool_EN.txt	RAIN	7	12	[0, 0, 0]	n/a	FR1	0	R1115T
1508.388	1.6	1578288	WORD	n/a	wordpools/wordpool_EN.txt	CAR	8	12	[0, 0, 0]	n/a	FR1	0	R1115T
1510.789	1.6	1580689	WORD	n/a	wordpools/wordpool_EN.txt	POLE	9	12	[0, 0, 0]	n/a	FR1	0	R1115T
1513.173	1.6	1583073	WORD	n/a	wordpools/wordpool_EN.txt	KEY	10	12	[0, 0, 0]	n/a	FR1	0	R1115T
1515.706	1.6	1585606	WORD	n/a	wordpools/wordpool_EN.txt	PEA	11	12	[0, 0, 0]	n/a	FR1	0	R1115T
1518.257	1.6	1588157	WORD	n/a	wordpools/wordpool_EN.txt	JAIL	12	12	[0, 0, 0]	n/a	FR1	0	R1115T
1519.874	0.001	1589774	DISTRACT_START	n/a	n/a	n/a	-999	12	[0, 0, 0]	n/a	FR1	0	R1115T
1519.875	0.015	1589775	START	n/a	n/a	n/a	-999	12	[-999, -999, -999]	n/a	FR1	0	R1115T
1519.89	6.118	1589790	PROB	6.089	n/a	n/a	-999	12	[7, 6, 8]	21.0	FR1	0	R1115T
1526.008	7.018	1595908	PROB	6.987	n/a	n/a	-999	12	[2, 7, 9]	18.0	FR1	0	R1115T
1533.026	5.118	1602925	PROB	5.081	n/a	n/a	-999	12	[5, 2, 4]	11.0	FR1	0	R1115T
1538.144	13.019	1608043	PROB	13.019	n/a	n/a	-999	12	[9, 4, 2]	15.0	FR1	0	R1115T
1551.163	0.017	1621061	STOP	n/a	n/a	n/a	-999	12	[-999, -999, -999]	n/a	FR1	0	R1115T
1551.18	1.067	1621078	DISTRACT_END	n/a	n/a	n/a	-999	12	[0, 0, 0]	n/a	FR1	0	R1115T
1552.247	1.123	1622145	REC_START	n/a	n/a	n/a	-999	12	[0, 0, 0]	n/a	FR1	0	R1115T
1553.37	1.993	1623268	REC_WORD	1.123	n/a	MAP	-999	12	[0, 0, 0]	n/a	FR1	0	R1115T
1555.363	1.901	1625261	REC_WORD	3.116	n/a	HOSE	-999	12	[0, 0, 0]	n/a	FR1	0	R1115T
1557.264	1.931	1627162	REC_WORD	5.017	n/a	TRAIN	-999	12	[0, 0, 0]	n/a	FR1	0	R1115T
1559.195	14.544	1629093	REC_WORD	6.948	n/a	TREE	-999	12	[0, 0, 0]	n/a	FR1	0	R1115T
1573.739	8.52	1643636	REC_WORD	21.492	n/a	PEA	-999	12	[0, 0, 0]	n/a	FR1	0	R1115T
1582.259	23.614	1652156	REC_END	n/a	n/a	n/a	-999	12	[0, 0, 0]	n/a	FR1	0	R1115T
1605.873	0.0	1675769	TRIAL	n/a	n/a	n/a	-999	13	[0, 0, 0]	n/a	FR1	0	R1115T
1605.873	10.0	1675769	COUNTDOWN_START	n/a	n/a	n/a	-999	13	[0, 0, 0]	n/a	FR1	0	R1115T
1616.301	0.007	1686196	COUNTDOWN_END	n/a	n/a	n/a	-999	13	[0, 0, 0]	n/a	FR1	0	R1115T
1616.308	1.6	1686203	ORIENT	n/a	n/a	n/a	-999	13	[0, 0, 0]	n/a	FR1	0	R1115T
1618.858	1.6	1688753	WORD	n/a	wordpools/wordpool_EN.txt	TANK	1	13	[0, 0, 0]	n/a	FR1	0	R1115T
1621.359	1.6	1691254	WORD	n/a	wordpools/wordpool_EN.txt	PLANT	2	13	[0, 0, 0]	n/a	FR1	0	R1115T
1623.926	1.6	1693821	WORD	n/a	wordpools/wordpool_EN.txt	JET	3	13	[0, 0, 0]	n/a	FR1	0	R1115T
1626.31	1.6	1696205	WORD	n/a	wordpools/wordpool_EN.txt	BEACH	4	13	[0, 0, 0]	n/a	FR1	0	R1115T
1628.927	1.6	1698821	WORD	n/a	wordpools/wordpool_EN.txt	VAN	5	13	[0, 0, 0]	n/a	FR1	0	R1115T
1631.527	1.6	1701421	WORD	n/a	wordpools/wordpool_EN.txt	WING	6	13	[0, 0, 0]	n/a	FR1	0	R1115T
1634.128	1.6	1704022	WORD	n/a	wordpools/wordpool_EN.txt	BOAT	7	13	[0, 0, 0]	n/a	FR1	0	R1115T
1636.512	1.6	1706406	WORD	n/a	wordpools/wordpool_EN.txt	SHARK	8	13	[0, 0, 0]	n/a	FR1	0	R1115T
1639.012	1.6	1708906	WORD	n/a	wordpools/wordpool_EN.txt	LAMP	9	13	[0, 0, 0]	n/a	FR1	0	R1115T
1641.596	1.6	1711490	WORD	n/a	wordpools/wordpool_EN.txt	CUP	10	13	[0, 0, 0]	n/a	FR1	0	R1115T
1644.18	1.6	1714074	WORD	n/a	wordpools/wordpool_EN.txt	FLAME	11	13	[0, 0, 0]	n/a	FR1	0	R1115T
1646.63	1.6	1716524	WORD	n/a	wordpools/wordpool_EN.txt	GLASS	12	13	[0, 0, 0]	n/a	FR1	0	R1115T
1648.247	0.001	1718141	DISTRACT_START	n/a	n/a	n/a	-999	13	[0, 0, 0]	n/a	FR1	0	R1115T
1648.248	0.016	1718142	START	n/a	n/a	n/a	-999	13	[-999, -999, -999]	n/a	FR1	0	R1115T
1648.264	11.969	1718158	PROB	11.948	n/a	n/a	-999	13	[8, 7, 4]	19.0	FR1	0	R1115T
1660.233	7.868	1730126	PROB	7.835	n/a	n/a	-999	13	[9, 6, 6]	21.0	FR1	0	R1115T
1668.101	4.727	1737994	PROB	4.727	n/a	n/a	-999	13	[9, 3, 2]	13.0	FR1	0	R1115T
1672.828	0.007	1742720	STOP	n/a	n/a	n/a	-999	13	[-999, -999, -999]	n/a	FR1	0	R1115T
1672.835	1.168	1742727	DISTRACT_END	n/a	n/a	n/a	-999	13	[0, 0, 0]	n/a	FR1	0	R1115T
1674.003	2.197	1743895	REC_START	n/a	n/a	n/a	-999	13	[0, 0, 0]	n/a	FR1	0	R1115T
1676.2	0.649	1746092	REC_WORD	2.197	n/a	TRAIN	-999	13	[0, 0, 0]	n/a	FR1	0	R1115T
1676.849	0.671	1746741	REC_WORD	2.846	n/a	HOSE	-999	13	[0, 0, 0]	n/a	FR1	0	R1115T
1677.52	1.13	1747412	REC_WORD	3.517	n/a	CAT	-999	13	[0, 0, 0]	n/a	FR1	0	R1115T
1678.65	16.254	1748542	REC_WORD	4.647	n/a	TREE	-999	13	[0, 0, 0]	n/a	FR1	0	R1115T
1694.904	9.111	1764795	REC_WORD	20.901	n/a	LAMP	-999	13	[0, 0, 0]	n/a	FR1	0	R1115T
1704.015	3.193	1773906	REC_END	n/a	n/a	n/a	-999	13	[0, 0, 0]	n/a	FR1	0	R1115T
1707.208	10.0	1777099	COUNTDOWN_START	n/a	n/a	n/a	-999	14	[0, 0, 0]	n/a	FR1	0	R1115T
1707.208	10.428	1777099	TRIAL	n/a	n/a	n/a	-999	14	[0, 0, 0]	n/a	FR1	0	R1115T
1717.636	0.006	1787526	COUNTDOWN_END	n/a	n/a	n/a	-999	14	[0, 0, 0]	n/a	FR1	0	R1115T
1717.642	1.6	1787532	ORIENT	n/a	n/a	n/a	-999	14	[0, 0, 0]	n/a	FR1	0	R1115T
1720.21	1.6	1790100	WORD	n/a	wordpools/wordpool_EN.txt	MAZE	1	14	[0, 0, 0]	n/a	FR1	0	R1115T
1722.643	1.6	1792533	WORD	n/a	wordpools/wordpool_EN.txt	FACE	2	14	[0, 0, 0]	n/a	FR1	0	R1115T
1725.178	1.6	1795068	WORD	n/a	wordpools/wordpool_EN.txt	VASE	3	14	[0, 0, 0]	n/a	FR1	0	R1115T
1727.628	1.6	1797518	WORD	n/a	wordpools/wordpool_EN.txt	DITCH	4	14	[0, 0, 0]	n/a	FR1	0	R1115T
1730.129	1.6	1800018	WORD	n/a	wordpools/wordpool_EN.txt	BAND	5	14	[0, 0, 0]	n/a	FR1	0	R1115T
1732.513	1.6	1802402	WORD	n/a	wordpools/wordpool_EN.txt	BALL	6	14	[0, 0, 0]	n/a	FR1	0	R1115T
1735.08	1.6	1804969	WORD	n/a	wordpools/wordpool_EN.txt	SQUARE	7	14	[0, 0, 0]	n/a	FR1	0	R1115T
1737.514	1.6	1807403	WORD	n/a	wordpools/wordpool_EN.txt	CHAIR	8	14	[0, 0, 0]	n/a	FR1	0	R1115T
1739.947	1.6	1809836	WORD	n/a	wordpools/wordpool_EN.txt	STRING	9	14	[0, 0, 0]	n/a	FR1	0	R1115T
1742.564	1.6	1812453	WORD	n/a	wordpools/wordpool_EN.txt	BOARD	10	14	[0, 0, 0]	n/a	FR1	0	R1115T
1745.148	1.6	1815037	WORD	n/a	wordpools/wordpool_EN.txt	SLUSH	11	14	[0, 0, 0]	n/a	FR1	0	R1115T
1747.765	1.6	1817654	WORD	n/a	wordpools/wordpool_EN.txt	BAT	12	14	[0, 0, 0]	n/a	FR1	0	R1115T
1749.382	0.001	1819271	DISTRACT_START	n/a	n/a	n/a	-999	14	[0, 0, 0]	n/a	FR1	0	R1115T
1749.383	0.016	1819272	START	n/a	n/a	n/a	-999	14	[-999, -999, -999]	n/a	FR1	0	R1115T
1749.399	13.052	1819288	PROB	13.021	n/a	n/a	-999	14	[6, 7, 5]	18.0	FR1	0	R1115T
1762.451	5.451	1832339	PROB	5.425	n/a	n/a	-999	14	[2, 6, 4]	12.0	FR1	0	R1115T
1767.902	6.085	1837790	PROB	6.085	n/a	n/a	-999	14	[2, 6, 6]	14.0	FR1	0	R1115T
1773.987	0.016	1843874	STOP	n/a	n/a	n/a	-999	14	[-999, -999, -999]	n/a	FR1	0	R1115T
1774.003	1.135	1843890	DISTRACT_END	n/a	n/a	n/a	-999	14	[0, 0, 0]	n/a	FR1	0	R1115T
1775.138	2.561	1845025	REC_START	n/a	n/a	n/a	-999	14	[0, 0, 0]	n/a	FR1	0	R1115T
1777.699	12.634	1847586	REC_WORD	2.561	n/a	MAZE	-999	14	[0, 0, 0]	n/a	FR1	0	R1115T
1790.333	0.562	1860220	REC_WORD	15.195	n/a	CHASE	-999	14	[0, 0, 0]	n/a	FR1	0	R1115T
1790.895	2.045	1860781	REC_WORD	15.757	n/a	FACE	-999	14	[0, 0, 0]	n/a	FR1	0	R1115T
1792.94	0.754	1862826	REC_WORD	17.802	n/a	SQUARE	-999	14	[0, 0, 0]	n/a	FR1	0	R1115T
1793.694	11.456	1863580	REC_WORD	18.556	n/a	CHAIR	-999	14	[0, 0, 0]	n/a	FR1	0	R1115T
1805.15	1487.563	1875036	REC_END	n/a	n/a	n/a	-999	14	[0, 0, 0]	n/a	FR1	0	R1115T
3292.713	0.0	3362526	TRIAL	n/a	n/a	n/a	-999	15	[0, 0, 0]	n/a	FR1	0	R1115T
3292.713	10.0	3362526	COUNTDOWN_START	n/a	n/a	n/a	-999	15	[0, 0, 0]	n/a	FR1	0	R1115T
3303.141	0.007	3372953	COUNTDOWN_END	n/a	n/a	n/a	-999	15	[0, 0, 0]	n/a	FR1	0	R1115T
3303.148	1.6	3372960	ORIENT	n/a	n/a	n/a	-999	15	[0, 0, 0]	n/a	FR1	0	R1115T
3305.565	1.6	3375377	WORD	n/a	wordpools/wordpool_EN.txt	PASTE	1	15	[0, 0, 0]	n/a	FR1	0	R1115T
3307.966	1.6	3377778	WORD	n/a	wordpools/wordpool_EN.txt	SUIT	2	15	[0, 0, 0]	n/a	FR1	0	R1115T
3310.399	1.6	3380211	WORD	n/a	wordpools/wordpool_EN.txt	THUMB	3	15	[0, 0, 0]	n/a	FR1	0	R1115T
3312.9	1.6	3382712	WORD	n/a	wordpools/wordpool_EN.txt	CHIEF	4	15	[0, 0, 0]	n/a	FR1	0	R1115T
3315.317	1.6	3385129	WORD	n/a	wordpools/wordpool_EN.txt	JUDGE	5	15	[0, 0, 0]	n/a	FR1	0	R1115T
3317.918	1.6	3387729	WORD	n/a	wordpools/wordpool_EN.txt	BANK	6	15	[0, 0, 0]	n/a	FR1	0	R1115T
3320.384	1.6	3390195	WORD	n/a	wordpools/wordpool_EN.txt	CLIFF	7	15	[0, 0, 0]	n/a	FR1	0	R1115T
3322.985	1.6	3392796	WORD	n/a	wordpools/wordpool_EN.txt	SPEAR	8	15	[0, 0, 0]	n/a	FR1	0	R1115T
3325.569	1.6	3395380	WORD	n/a	wordpools/wordpool_EN.txt	COIN	9	15	[0, 0, 0]	n/a	FR1	0	R1115T
3328.069	1.6	3397880	WORD	n/a	wordpools/wordpool_EN.txt	BEAN	10	15	[0, 0, 0]	n/a	FR1	0	R1115T
3330.503	1.6	3400314	WORD	n/a	wordpools/wordpool_EN.txt	RICE	11	15	[0, 0, 0]	n/a	FR1	0	R1115T
3332.904	1.6	3402715	WORD	n/a	wordpools/wordpool_EN.txt	MOOSE	12	15	[0, 0, 0]	n/a	FR1	0	R1115T
3334.52	0.001	3404331	DISTRACT_START	n/a	n/a	n/a	-999	15	[0, 0, 0]	n/a	FR1	0	R1115T
3334.521	0.016	3404332	START	n/a	n/a	n/a	-999	15	[-999, -999, -999]	n/a	FR1	0	R1115T
3334.537	12.619	3404348	PROB	12.587	n/a	n/a	-999	15	[4, 6, 7]	17.0	FR1	0	R1115T
3347.156	3.884	3416966	PROB	3.855	n/a	n/a	-999	15	[7, 5, 5]	17.0	FR1	0	R1115T
3351.04	4.14	3420850	PROB	4.14	n/a	n/a	-999	15	[2, 8, 6]	16.0	FR1	0	R1115T
3355.18	0.011	3424990	STOP	n/a	n/a	n/a	-999	15	[-999, -999, -999]	n/a	FR1	0	R1115T
3355.191	1.118	3425001	DISTRACT_END	n/a	n/a	n/a	-999	15	[0, 0, 0]	n/a	FR1	0	R1115T
3356.309	1.4	3426119	REC_START	n/a	n/a	n/a	-999	15	[0, 0, 0]	n/a	FR1	0	R1115T
3357.709	1.127	3427518	REC_WORD	1.4	n/a	PASTE	-999	15	[0, 0, 0]	n/a	FR1	0	R1115T
3358.836	1.326	3428645	REC_WORD	2.527	n/a	SUIT	-999	15	[0, 0, 0]	n/a	FR1	0	R1115T
3360.162	2.026	3429971	REC_WORD	3.853	n/a	THUMB	-999	15	[0, 0, 0]	n/a	FR1	0	R1115T
3362.188	5.666	3431997	REC_WORD	5.879	n/a	CHIEF	-999	15	[0, 0, 0]	n/a	FR1	0	R1115T
3367.854	1.408	3437663	REC_WORD	11.545	n/a	CLIFF	-999	15	[0, 0, 0]	n/a	FR1	0	R1115T
3369.262	17.059	3439071	REC_WORD	12.953	n/a	SQUARE	-999	15	[0, 0, 0]	n/a	FR1	0	R1115T
3386.321	6.343	3456129	REC_END	n/a	n/a	n/a	-999	15	[0, 0, 0]	n/a	FR1	0	R1115T
3392.664	10.0	3462472	COUNTDOWN_START	n/a	n/a	n/a	-999	16	[0, 0, 0]	n/a	FR1	0	R1115T
3392.665	10.427	3462473	TRIAL	n/a	n/a	n/a	-999	16	[0, 0, 0]	n/a	FR1	0	R1115T
3403.092	0.008	3472899	COUNTDOWN_END	n/a	n/a	n/a	-999	16	[0, 0, 0]	n/a	FR1	0	R1115T
3403.1	1.6	3472907	ORIENT	n/a	n/a	n/a	-999	16	[0, 0, 0]	n/a	FR1	0	R1115T
3405.684	1.6	3475491	WORD	n/a	wordpools/wordpool_EN.txt	COW	1	16	[0, 0, 0]	n/a	FR1	0	R1115T
3408.267	1.6	3478074	WORD	n/a	wordpools/wordpool_EN.txt	PHONE	2	16	[0, 0, 0]	n/a	FR1	0	R1115T
3410.734	1.6	3480541	WORD	n/a	wordpools/wordpool_EN.txt	BOY	3	16	[0, 0, 0]	n/a	FR1	0	R1115T
3413.185	1.6	3482992	WORD	n/a	wordpools/wordpool_EN.txt	PIE	4	16	[0, 0, 0]	n/a	FR1	0	R1115T
3415.735	1.6	3485542	WORD	n/a	wordpools/wordpool_EN.txt	BREAD	5	16	[0, 0, 0]	n/a	FR1	0	R1115T
3418.269	1.6	3488075	WORD	n/a	wordpools/wordpool_EN.txt	PURSE	6	16	[0, 0, 0]	n/a	FR1	0	R1115T
3420.853	1.6	3490659	WORD	n/a	wordpools/wordpool_EN.txt	WORLD	7	16	[0, 0, 0]	n/a	FR1	0	R1115T
3423.403	1.6	3493209	WORD	n/a	wordpools/wordpool_EN.txt	CLOCK	8	16	[0, 0, 0]	n/a	FR1	0	R1115T
3425.854	1.6	3495660	WORD	n/a	wordpools/wordpool_EN.txt	DRESS	9	16	[0, 0, 0]	n/a	FR1	0	R1115T
3428.404	1.6	3498210	WORD	n/a	wordpools/wordpool_EN.txt	SCHOOL	10	16	[0, 0, 0]	n/a	FR1	0	R1115T
3430.955	1.6	3500761	WORD	n/a	wordpools/wordpool_EN.txt	CHIN	11	16	[0, 0, 0]	n/a	FR1	0	R1115T
3433.439	1.6	3503245	WORD	n/a	wordpools/wordpool_EN.txt	FLOOR	12	16	[0, 0, 0]	n/a	FR1	0	R1115T
3435.055	0.001	3504861	DISTRACT_START	n/a	n/a	n/a	-999	16	[0, 0, 0]	n/a	FR1	0	R1115T
3435.056	0.016	3504862	START	n/a	n/a	n/a	-999	16	[-999, -999, -999]	n/a	FR1	0	R1115T
3435.072	7.685	3504878	PROB	7.66	n/a	n/a	-999	16	[6, 1, 9]	16.0	FR1	0	R1115T
3442.757	5.551	3512562	PROB	5.527	n/a	n/a	-999	16	[2, 8, 5]	15.0	FR1	0	R1115T
3448.308	5.451	3518113	PROB	5.424	n/a	n/a	-999	16	[2, 9, 4]	15.0	FR1	0	R1115T
3453.759	6.165	3523564	PROB	6.165	n/a	n/a	-999	16	[9, 5, 5]	19.0	FR1	0	R1115T
3459.924	0.019	3529728	STOP	n/a	n/a	n/a	-999	16	[-999, -999, -999]	n/a	FR1	0	R1115T
3459.943	1.185	3529747	DISTRACT_END	n/a	n/a	n/a	-999	16	[0, 0, 0]	n/a	FR1	0	R1115T
3461.128	1.143	3530932	REC_START	n/a	n/a	n/a	-999	16	[0, 0, 0]	n/a	FR1	0	R1115T
3462.271	0.851	3532075	REC_WORD	1.143	n/a	COW	-999	16	[0, 0, 0]	n/a	FR1	0	R1115T
3463.122	1.846	3532926	REC_WORD	1.994	n/a	PHONE	-999	16	[0, 0, 0]	n/a	FR1	0	R1115T
3464.968	0.675	3534772	REC_WORD	3.84	n/a	BONE	-999	16	[0, 0, 0]	n/a	FR1	0	R1115T
3465.643	25.497	3535447	REC_WORD	4.515	n/a	PIE	-999	16	[0, 0, 0]	n/a	FR1	0	R1115T
3491.14	3.676	3560943	REC_END	n/a	n/a	n/a	-999	16	[0, 0, 0]	n/a	FR1	0	R1115T
3494.816	10.0	3564619	COUNTDOWN_START	n/a	n/a	n/a	-999	17	[0, 0, 0]	n/a	FR1	0	R1115T
3494.817	10.427	3564620	TRIAL	n/a	n/a	n/a	-999	17	[0, 0, 0]	n/a	FR1	0	R1115T
3505.244	0.008	3575046	COUNTDOWN_END	n/a	n/a	n/a	-999	17	[0, 0, 0]	n/a	FR1	0	R1115T
3505.252	1.6	3575054	ORIENT	n/a	n/a	n/a	-999	17	[0, 0, 0]	n/a	FR1	0	R1115T
3507.651	1.6	3577453	WORD	n/a	wordpools/wordpool_EN.txt	JUICE	1	17	[0, 0, 0]	n/a	FR1	0	R1115T
3510.136	1.6	3579938	WORD	n/a	wordpools/wordpool_EN.txt	LAKE	2	17	[0, 0, 0]	n/a	FR1	0	R1115T
3512.52	1.6	3582322	WORD	n/a	wordpools/wordpool_EN.txt	SALT	3	17	[0, 0, 0]	n/a	FR1	0	R1115T
3515.12	1.6	3584922	WORD	n/a	wordpools/wordpool_EN.txt	MAIL	4	17	[0, 0, 0]	n/a	FR1	0	R1115T
3517.737	1.6	3587539	WORD	n/a	wordpools/wordpool_EN.txt	LAND	5	17	[0, 0, 0]	n/a	FR1	0	R1115T
3520.238	1.6	3590039	WORD	n/a	wordpools/wordpool_EN.txt	PLANE	6	17	[0, 0, 0]	n/a	FR1	0	R1115T
3522.705	1.6	3592506	WORD	n/a	wordpools/wordpool_EN.txt	SHIP	7	17	[0, 0, 0]	n/a	FR1	0	R1115T
3525.305	1.6	3595106	WORD	n/a	wordpools/wordpool_EN.txt	TRASH	8	17	[0, 0, 0]	n/a	FR1	0	R1115T
3527.889	1.6	3597690	WORD	n/a	wordpools/wordpool_EN.txt	NET	9	17	[0, 0, 0]	n/a	FR1	0	R1115T
3530.39	1.6	3600191	WORD	n/a	wordpools/wordpool_EN.txt	SMOKE	10	17	[0, 0, 0]	n/a	FR1	0	R1115T
3532.89	1.6	3602691	WORD	n/a	wordpools/wordpool_EN.txt	SHEET	11	17	[0, 0, 0]	n/a	FR1	0	R1115T
3535.507	1.6	3605308	WORD	n/a	wordpools/wordpool_EN.txt	APE	12	17	[0, 0, 0]	n/a	FR1	0	R1115T
3537.124	0.001	3606925	DISTRACT_START	n/a	n/a	n/a	-999	17	[0, 0, 0]	n/a	FR1	0	R1115T
3537.125	0.016	3606926	START	n/a	n/a	n/a	-999	17	[-999, -999, -999]	n/a	FR1	0	R1115T
3537.141	10.652	3606942	PROB	10.623	n/a	n/a	-999	17	[2, 7, 8]	17.0	FR1	0	R1115T
3547.793	5.617	3617593	PROB	5.587	n/a	n/a	-999	17	[9, 6, 1]	16.0	FR1	0	R1115T
3553.41	6.45	3623210	PROB	6.45	n/a	n/a	-999	17	[3, 2, 6]	11.0	FR1	0	R1115T
3559.86	0.018	3629659	STOP	n/a	n/a	n/a	-999	17	[-999, -999, -999]	n/a	FR1	0	R1115T
3559.878	1.084	3629677	DISTRACT_END	n/a	n/a	n/a	-999	17	[0, 0, 0]	n/a	FR1	0	R1115T
3560.962	1.014	3630761	REC_START	n/a	n/a	n/a	-999	17	[0, 0, 0]	n/a	FR1	0	R1115T
3561.976	0.616	3631775	REC_WORD	1.014	n/a	JUICE	-999	17	[0, 0, 0]	n/a	FR1	0	R1115T
3562.592	1.28	3632391	REC_WORD	1.63	n/a	LAKE	-999	17	[0, 0, 0]	n/a	FR1	0	R1115T
3563.872	1.29	3633671	REC_WORD	2.91	n/a	STRAW	-999	17	[0, 0, 0]	n/a	FR1	0	R1115T
3565.162	25.812	3634961	REC_WORD	4.2	n/a	MAIL	-999	17	[0, 0, 0]	n/a	FR1	0	R1115T
3590.974	16.713	3660772	REC_END	n/a	n/a	n/a	-999	17	[0, 0, 0]	n/a	FR1	0	R1115T
3607.687	10.0	3677484	COUNTDOWN_START	n/a	n/a	n/a	-999	18	[0, 0, 0]	n/a	FR1	0	R1115T
3607.687	10.428	3677484	TRIAL	n/a	n/a	n/a	-999	18	[0, 0, 0]	n/a	FR1	0	R1115T
3618.115	0.007	3687912	COUNTDOWN_END	n/a	n/a	n/a	-999	18	[0, 0, 0]	n/a	FR1	0	R1115T
3618.122	1.6	3687919	ORIENT	n/a	n/a	n/a	-999	18	[0, 0, 0]	n/a	FR1	0	R1115T
3620.673	1.6	3690470	WORD	n/a	wordpools/wordpool_EN.txt	DRUM	1	18	[0, 0, 0]	n/a	FR1	0	R1115T
3623.09	1.6	3692886	WORD	n/a	wordpools/wordpool_EN.txt	HEART	2	18	[0, 0, 0]	n/a	FR1	0	R1115T
3625.59	1.6	3695386	WORD	n/a	wordpools/wordpool_EN.txt	SWORD	3	18	[0, 0, 0]	n/a	FR1	0	R1115T
3628.207	1.6	3698003	WORD	n/a	wordpools/wordpool_EN.txt	BENCH	4	18	[0, 0, 0]	n/a	FR1	0	R1115T
3630.758	1.6	3700554	WORD	n/a	wordpools/wordpool_EN.txt	PIPE	5	18	[0, 0, 0]	n/a	FR1	0	R1115T
3633.358	1.6	3703154	WORD	n/a	wordpools/wordpool_EN.txt	FAN	6	18	[0, 0, 0]	n/a	FR1	0	R1115T
3635.809	1.6	3705605	WORD	n/a	wordpools/wordpool_EN.txt	COUCH	7	18	[0, 0, 0]	n/a	FR1	0	R1115T
3638.343	1.6	3708139	WORD	n/a	wordpools/wordpool_EN.txt	KITE	8	18	[0, 0, 0]	n/a	FR1	0	R1115T
3640.86	1.6	3710656	WORD	n/a	wordpools/wordpool_EN.txt	LIP	9	18	[0, 0, 0]	n/a	FR1	0	R1115T
3643.243	1.6	3713038	WORD	n/a	wordpools/wordpool_EN.txt	LAWN	10	18	[0, 0, 0]	n/a	FR1	0	R1115T
3645.744	1.6	3715539	WORD	n/a	wordpools/wordpool_EN.txt	FORK	11	18	[0, 0, 0]	n/a	FR1	0	R1115T
3648.278	1.6	3718073	WORD	n/a	wordpools/wordpool_EN.txt	AXE	12	18	[0, 0, 0]	n/a	FR1	0	R1115T
3649.895	0.001	3719690	DISTRACT_START	n/a	n/a	n/a	-999	18	[0, 0, 0]	n/a	FR1	0	R1115T
3649.896	0.015	3719691	START	n/a	n/a	n/a	-999	18	[-999, -999, -999]	n/a	FR1	0	R1115T
3649.911	4.851	3719706	PROB	4.829	n/a	n/a	-999	18	[9, 4, 3]	16.0	FR1	0	R1115T
3654.762	5.884	3724557	PROB	5.849	n/a	n/a	-999	18	[2, 9, 1]	12.0	FR1	0	R1115T
3660.646	7.619	3730441	PROB	7.598	n/a	n/a	-999	18	[9, 8, 5]	23.0	FR1	0	R1115T
3668.265	7.723	3738059	PROB	7.723	n/a	n/a	-999	18	[7, 7, 5]	19.0	FR1	0	R1115T
3675.988	0.011	3745782	STOP	n/a	n/a	n/a	-999	18	[-999, -999, -999]	n/a	FR1	0	R1115T
3675.999	1.218	3745793	DISTRACT_END	n/a	n/a	n/a	-999	18	[0, 0, 0]	n/a	FR1	0	R1115T
3677.217	0.876	3747011	REC_START	n/a	n/a	n/a	-999	18	[0, 0, 0]	n/a	FR1	0	R1115T
3678.093	0.648	3747887	REC_WORD	0.876	n/a	DRUM	-999	18	[0, 0, 0]	n/a	FR1	0	R1115T
3678.741	3.703	3748535	REC_WORD	1.524	n/a	HEART	-999	18	[0, 0, 0]	n/a	FR1	0	R1115T
3682.444	11.311	3752237	REC_WORD	5.227	n/a	CLOUD	-999	18	[0, 0, 0]	n/a	FR1	0	R1115T
3693.755	13.474	3763548	REC_WORD	16.538	n/a	PIPE	-999	18	[0, 0, 0]	n/a	FR1	0	R1115T
3707.229	7.594	3777021	REC_END	n/a	n/a	n/a	-999	18	[0, 0, 0]	n/a	FR1	0	R1115T
3714.823	0.0	3784615	TRIAL	n/a	n/a	n/a	-999	19	[0, 0, 0]	n/a	FR1	0	R1115T
3714.823	10.0	3784615	COUNTDOWN_START	n/a	n/a	n/a	-999	19	[0, 0, 0]	n/a	FR1	0	R1115T
3725.251	0.007	3795042	COUNTDOWN_END	n/a	n/a	n/a	-999	19	[0, 0, 0]	n/a	FR1	0	R1115T
3725.258	1.6	3795049	ORIENT	n/a	n/a	n/a	-999	19	[0, 0, 0]	n/a	FR1	0	R1115T
3727.709	1.6	3797500	WORD	n/a	wordpools/wordpool_EN.txt	LEAF	1	19	[0, 0, 0]	n/a	FR1	0	R1115T
3730.126	1.6	3799917	WORD	n/a	wordpools/wordpool_EN.txt	POOL	2	19	[0, 0, 0]	n/a	FR1	0	R1115T
3732.526	1.6	3802317	WORD	n/a	wordpools/wordpool_EN.txt	CART	3	19	[0, 0, 0]	n/a	FR1	0	R1115T
3735.027	1.6	3804818	WORD	n/a	wordpools/wordpool_EN.txt	BARN	4	19	[0, 0, 0]	n/a	FR1	0	R1115T
3737.477	1.6	3807268	WORD	n/a	wordpools/wordpool_EN.txt	STOVE	5	19	[0, 0, 0]	n/a	FR1	0	R1115T
3740.061	1.6	3809852	WORD	n/a	wordpools/wordpool_EN.txt	FENCE	6	19	[0, 0, 0]	n/a	FR1	0	R1115T
3742.495	1.6	3812286	WORD	n/a	wordpools/wordpool_EN.txt	HORSE	7	19	[0, 0, 0]	n/a	FR1	0	R1115T
3744.895	1.6	3814685	WORD	n/a	wordpools/wordpool_EN.txt	POND	8	19	[0, 0, 0]	n/a	FR1	0	R1115T
3747.496	1.6	3817286	WORD	n/a	wordpools/wordpool_EN.txt	HAWK	9	19	[0, 0, 0]	n/a	FR1	0	R1115T
3750.096	1.6	3819886	WORD	n/a	wordpools/wordpool_EN.txt	INK	10	19	[0, 0, 0]	n/a	FR1	0	R1115T
3752.713	1.6	3822503	WORD	n/a	wordpools/wordpool_EN.txt	NEST	11	19	[0, 0, 0]	n/a	FR1	0	R1115T
3755.131	1.6	3824921	WORD	n/a	wordpools/wordpool_EN.txt	FLUTE	12	19	[0, 0, 0]	n/a	FR1	0	R1115T
3756.747	0.001	3826537	DISTRACT_START	n/a	n/a	n/a	-999	19	[0, 0, 0]	n/a	FR1	0	R1115T
3756.748	0.016	3826538	START	n/a	n/a	n/a	-999	19	[-999, -999, -999]	n/a	FR1	0	R1115T
3756.764	16.253	3826554	PROB	16.224	n/a	n/a	-999	19	[5, 9, 5]	19.0	FR1	0	R1115T
3773.017	3.717	3842806	PROB	3.682	n/a	n/a	-999	19	[6, 3, 2]	11.0	FR1	0	R1115T
3776.734	4.19	3846523	PROB	4.19	n/a	n/a	-999	19	[3, 6, 3]	12.0	FR1	0	R1115T
3780.924	0.011	3850713	STOP	n/a	n/a	n/a	-999	19	[-999, -999, -999]	n/a	FR1	0	R1115T
3780.935	1.055	3850724	DISTRACT_END	n/a	n/a	n/a	-999	19	[0, 0, 0]	n/a	FR1	0	R1115T
3781.99	2.529	3851779	REC_START	n/a	n/a	n/a	-999	19	[0, 0, 0]	n/a	FR1	0	R1115T
3784.519	1.187	3854307	REC_WORD	2.529	n/a	LEAF	-999	19	[0, 0, 0]	n/a	FR1	0	R1115T
3785.706	2.801	3855494	REC_WORD	3.716	n/a	POOL	-999	19	[0, 0, 0]	n/a	FR1	0	R1115T
3788.507	0.946	3858295	REC_WORD	6.517	n/a	CART	-999	19	[0, 0, 0]	n/a	FR1	0	R1115T
3789.453	22.545	3859241	REC_WORD	7.463	n/a	POND	-999	19	[0, 0, 0]	n/a	FR1	0	R1115T
3811.998	15.896	3881785	REC_END	n/a	n/a	n/a	-999	19	[0, 0, 0]	n/a	FR1	0	R1115T
3827.894	0.0	3897680	TRIAL	n/a	n/a	n/a	-999	20	[0, 0, 0]	n/a	FR1	0	R1115T
3827.894	10.0	3897680	COUNTDOWN_START	n/a	n/a	n/a	-999	20	[0, 0, 0]	n/a	FR1	0	R1115T
3838.322	0.007	3908108	COUNTDOWN_END	n/a	n/a	n/a	-999	20	[0, 0, 0]	n/a	FR1	0	R1115T
3838.329	1.6	3908115	ORIENT	n/a	n/a	n/a	-999	20	[0, 0, 0]	n/a	FR1	0	R1115T
3840.929	1.6	3910715	WORD	n/a	wordpools/wordpool_EN.txt	MAT	1	20	[0, 0, 0]	n/a	FR1	0	R1115T
3843.497	1.6	3913283	WORD	n/a	wordpools/wordpool_EN.txt	FUR	2	20	[0, 0, 0]	n/a	FR1	0	R1115T
3845.98	1.6	3915765	WORD	n/a	wordpools/wordpool_EN.txt	SINK	3	20	[0, 0, 0]	n/a	FR1	0	R1115T
3848.364	1.6	3918149	WORD	n/a	wordpools/wordpool_EN.txt	TIE	4	20	[0, 0, 0]	n/a	FR1	0	R1115T
3850.948	1.6	3920733	WORD	n/a	wordpools/wordpool_EN.txt	CANE	5	20	[0, 0, 0]	n/a	FR1	0	R1115T
3853.448	1.6	3923233	WORD	n/a	wordpools/wordpool_EN.txt	BRUSH	6	20	[0, 0, 0]	n/a	FR1	0	R1115T
3855.899	1.6	3925684	WORD	n/a	wordpools/wordpool_EN.txt	EEL	7	20	[0, 0, 0]	n/a	FR1	0	R1115T
3858.366	1.6	3928151	WORD	n/a	wordpools/wordpool_EN.txt	STOOL	8	20	[0, 0, 0]	n/a	FR1	0	R1115T
3860.833	1.6	3930618	WORD	n/a	wordpools/wordpool_EN.txt	DOLL	9	20	[0, 0, 0]	n/a	FR1	0	R1115T
3863.417	1.6	3933202	WORD	n/a	wordpools/wordpool_EN.txt	BOOT	10	20	[0, 0, 0]	n/a	FR1	0	R1115T
3865.917	1.6	3935701	WORD	n/a	wordpools/wordpool_EN.txt	HAT	11	20	[0, 0, 0]	n/a	FR1	0	R1115T
3868.401	1.6	3938185	WORD	n/a	wordpools/wordpool_EN.txt	ARM	12	20	[0, 0, 0]	n/a	FR1	0	R1115T
3870.018	0.001	3939802	DISTRACT_START	n/a	n/a	n/a	-999	20	[0, 0, 0]	n/a	FR1	0	R1115T
3870.019	0.016	3939803	START	n/a	n/a	n/a	-999	20	[-999, -999, -999]	n/a	FR1	0	R1115T
3870.035	8.068	3939819	PROB	8.041	n/a	n/a	-999	20	[3, 5, 1]	9.0	FR1	0	R1115T
3878.103	7.468	3947887	PROB	7.444	n/a	n/a	-999	20	[2, 6, 9]	17.0	FR1	0	R1115T
3885.571	19.009	3955354	PROB	19.009	n/a	n/a	-999	20	[8, 7, 9]	24.0	FR1	0	R1115T
3904.58	0.011	3974363	STOP	n/a	n/a	n/a	-999	20	[-999, -999, -999]	n/a	FR1	0	R1115T
3904.591	1.118	3974374	DISTRACT_END	n/a	n/a	n/a	-999	20	[0, 0, 0]	n/a	FR1	0	R1115T
3905.709	3.854	3975491	REC_START	n/a	n/a	n/a	-999	20	[0, 0, 0]	n/a	FR1	0	R1115T
3909.563	0.686	3979345	REC_WORD	3.854	n/a	MAP	-999	20	[0, 0, 0]	n/a	FR1	0	R1115T
3910.249	12.925	3980031	REC_WORD	4.54	n/a	FUR	-999	20	[0, 0, 0]	n/a	FR1	0	R1115T
3923.174	2.791	3992956	REC_WORD	17.465	n/a	SINK	-999	20	[0, 0, 0]	n/a	FR1	0	R1115T
3925.965	9.756	3995746	REC_WORD	20.256	n/a	TIE	-999	20	[0, 0, 0]	n/a	FR1	0	R1115T
3935.721	18.846	4005502	REC_END	n/a	n/a	n/a	-999	20	[0, 0, 0]	n/a	FR1	0	R1115T
3954.567	0.0	4024347	TRIAL	n/a	n/a	n/a	-999	21	[0, 0, 0]	n/a	FR1	0	R1115T
3954.567	10.0	4024347	COUNTDOWN_START	n/a	n/a	n/a	-999	21	[0, 0, 0]	n/a	FR1	0	R1115T
3964.995	0.007	4034775	COUNTDOWN_END	n/a	n/a	n/a	-999	21	[0, 0, 0]	n/a	FR1	0	R1115T
3965.002	1.6	4034782	ORIENT	n/a	n/a	n/a	-999	21	[0, 0, 0]	n/a	FR1	0	R1115T
3967.586	1.6	4037365	WORD	n/a	wordpools/wordpool_EN.txt	CHALK	1	21	[0, 0, 0]	n/a	FR1	0	R1115T
3970.17	1.6	4039949	WORD	n/a	wordpools/wordpool_EN.txt	ICE	2	21	[0, 0, 0]	n/a	FR1	0	R1115T
3972.652	1.6	4042431	WORD	n/a	wordpools/wordpool_EN.txt	CONE	3	21	[0, 0, 0]	n/a	FR1	0	R1115T
3975.137	1.6	4044916	WORD	n/a	wordpools/wordpool_EN.txt	WEED	4	21	[0, 0, 0]	n/a	FR1	0	R1115T
3977.621	1.6	4047400	WORD	n/a	wordpools/wordpool_EN.txt	MULE	5	21	[0, 0, 0]	n/a	FR1	0	R1115T
3980.005	1.6	4049784	WORD	n/a	wordpools/wordpool_EN.txt	TAIL	6	21	[0, 0, 0]	n/a	FR1	0	R1115T
3982.605	1.6	4052384	WORD	n/a	wordpools/wordpool_EN.txt	SNOW	7	21	[0, 0, 0]	n/a	FR1	0	R1115T
3985.056	1.6	4054835	WORD	n/a	wordpools/wordpool_EN.txt	FOG	8	21	[0, 0, 0]	n/a	FR1	0	R1115T
3987.506	1.6	4057284	WORD	n/a	wordpools/wordpool_EN.txt	SHIELD	9	21	[0, 0, 0]	n/a	FR1	0	R1115T
3989.89	1.6	4059668	WORD	n/a	wordpools/wordpool_EN.txt	PARK	10	21	[0, 0, 0]	n/a	FR1	0	R1115T
3992.39	1.6	4062168	WORD	n/a	wordpools/wordpool_EN.txt	SIGN	11	21	[0, 0, 0]	n/a	FR1	0	R1115T
3994.874	1.6	4064652	WORD	n/a	wordpools/wordpool_EN.txt	SHIRT	12	21	[0, 0, 0]	n/a	FR1	0	R1115T
3996.491	0.001	4066269	DISTRACT_START	n/a	n/a	n/a	-999	21	[0, 0, 0]	n/a	FR1	0	R1115T
3996.492	0.016	4066270	START	n/a	n/a	n/a	-999	21	[-999, -999, -999]	n/a	FR1	0	R1115T
3996.508	13.786	4066286	PROB	13.759	n/a	n/a	-999	21	[4, 7, 3]	14.0	FR1	0	R1115T
4010.294	4.117	4080071	PROB	4.093	n/a	n/a	-999	21	[7, 5, 2]	14.0	FR1	0	R1115T
4014.411	4.625	4084188	PROB	4.625	n/a	n/a	-999	21	[6, 1, 2]	9.0	FR1	0	R1115T
4019.036	0.009	4088813	STOP	n/a	n/a	n/a	-999	21	[-999, -999, -999]	n/a	FR1	0	R1115T
4019.045	1.118	4088822	DISTRACT_END	n/a	n/a	n/a	-999	21	[0, 0, 0]	n/a	FR1	0	R1115T
4020.163	0.763	4089940	REC_START	n/a	n/a	n/a	-999	21	[0, 0, 0]	n/a	FR1	0	R1115T
4020.926	0.846	4090703	REC_WORD	0.763	n/a	CHALK	-999	21	[0, 0, 0]	n/a	FR1	0	R1115T
4021.772	1.309	4091549	REC_WORD	1.609	n/a	ICE	-999	21	[0, 0, 0]	n/a	FR1	0	R1115T
4023.081	0.985	4092858	REC_WORD	2.918	n/a	CONE	-999	21	[0, 0, 0]	n/a	FR1	0	R1115T
4024.066	2.532	4093843	REC_WORD	3.903	n/a	WEED	-999	21	[0, 0, 0]	n/a	FR1	0	R1115T
4026.598	1.302	4096375	REC_WORD	6.435	n/a	SNOW	-999	21	[0, 0, 0]	n/a	FR1	0	R1115T
4027.9	22.274	4097676	REC_WORD	7.737	n/a	FOG	-999	21	[0, 0, 0]	n/a	FR1	0	R1115T
4050.174	1.51	4119949	REC_END	n/a	n/a	n/a	-999	21	[0, 0, 0]	n/a	FR1	0	R1115T
4051.684	10.0	4121459	COUNTDOWN_START	n/a	n/a	n/a	-999	22	[0, 0, 0]	n/a	FR1	0	R1115T
4051.685	10.427	4121460	TRIAL	n/a	n/a	n/a	-999	22	[0, 0, 0]	n/a	FR1	0	R1115T
4062.112	0.008	4131887	COUNTDOWN_END	n/a	n/a	n/a	-999	22	[0, 0, 0]	n/a	FR1	0	R1115T
4062.12	1.6	4131895	ORIENT	n/a	n/a	n/a	-999	22	[0, 0, 0]	n/a	FR1	0	R1115T
4064.72	1.6	4134495	WORD	n/a	wordpools/wordpool_EN.txt	SKI	1	22	[0, 0, 0]	n/a	FR1	0	R1115T
4067.237	1.6	4137012	WORD	n/a	wordpools/wordpool_EN.txt	BIRD	2	22	[0, 0, 0]	n/a	FR1	0	R1115T
4069.738	1.6	4139512	WORD	n/a	wordpools/wordpool_EN.txt	DOOR	3	22	[0, 0, 0]	n/a	FR1	0	R1115T
4072.155	1.6	4141929	WORD	n/a	wordpools/wordpool_EN.txt	OWL	4	22	[0, 0, 0]	n/a	FR1	0	R1115T
4074.739	1.6	4144513	WORD	n/a	wordpools/wordpool_EN.txt	SOUP	5	22	[0, 0, 0]	n/a	FR1	0	R1115T
4077.373	1.6	4147147	WORD	n/a	wordpools/wordpool_EN.txt	STONE	6	22	[0, 0, 0]	n/a	FR1	0	R1115T
4079.973	1.6	4149747	WORD	n/a	wordpools/wordpool_EN.txt	MOUSE	7	22	[0, 0, 0]	n/a	FR1	0	R1115T
4082.373	1.6	4152147	WORD	n/a	wordpools/wordpool_EN.txt	CAKE	8	22	[0, 0, 0]	n/a	FR1	0	R1115T
4084.924	1.6	4154698	WORD	n/a	wordpools/wordpool_EN.txt	BROOM	9	22	[0, 0, 0]	n/a	FR1	0	R1115T
4087.491	1.6	4157265	WORD	n/a	wordpools/wordpool_EN.txt	SEED	10	22	[0, 0, 0]	n/a	FR1	0	R1115T
4089.908	1.6	4159681	WORD	n/a	wordpools/wordpool_EN.txt	GATE	11	22	[0, 0, 0]	n/a	FR1	0	R1115T
4092.292	1.6	4162065	WORD	n/a	wordpools/wordpool_EN.txt	WAND	12	22	[0, 0, 0]	n/a	FR1	0	R1115T
4093.909	0.001	4163682	DISTRACT_START	n/a	n/a	n/a	-999	22	[0, 0, 0]	n/a	FR1	0	R1115T
4093.91	0.016	4163683	START	n/a	n/a	n/a	-999	22	[-999, -999, -999]	n/a	FR1	0	R1115T
4093.926	7.384	4163699	PROB	7.35	n/a	n/a	-999	22	[8, 4, 5]	17.0	FR1	0	R1115T
4101.31	6.135	4171083	PROB	6.101	n/a	n/a	-999	22	[6, 3, 9]	17.0	FR1	0	R1115T
4107.445	7.359	4177218	PROB	7.359	n/a	n/a	-999	22	[8, 5, 5]	18.0	FR1	0	R1115T
4114.804	0.009	4184576	STOP	n/a	n/a	n/a	-999	22	[-999, -999, -999]	n/a	FR1	0	R1115T
4114.813	1.051	4184585	DISTRACT_END	n/a	n/a	n/a	-999	22	[0, 0, 0]	n/a	FR1	0	R1115T
4115.864	0.5	4185636	REC_START	n/a	n/a	n/a	-999	22	[0, 0, 0]	n/a	FR1	0	R1115T
4116.364	1.062	4186136	REC_WORD	0.5	n/a	SKI	-999	22	[0, 0, 0]	n/a	FR1	0	R1115T
4117.426	1.93	4187198	REC_WORD	1.562	n/a	BIRD	-999	22	[0, 0, 0]	n/a	FR1	0	R1115T
4119.356	0.601	4189128	REC_WORD	3.492	n/a	DOOR	-999	22	[0, 0, 0]	n/a	FR1	0	R1115T
4119.957	3.102	4189729	REC_WORD	4.093	n/a	OWL	-999	22	[0, 0, 0]	n/a	FR1	0	R1115T
4123.059	22.817	4192831	REC_WORD	7.195	n/a	CAKE	-999	22	[0, 0, 0]	n/a	FR1	0	R1115T
4145.876	2.326	4215647	REC_END	n/a	n/a	n/a	-999	22	[0, 0, 0]	n/a	FR1	0	R1115T
4148.202	0.0	4217973	TRIAL	n/a	n/a	n/a	-999	23	[0, 0, 0]	n/a	FR1	0	R1115T
4148.202	10.0	4217973	COUNTDOWN_START	n/a	n/a	n/a	-999	23	[0, 0, 0]	n/a	FR1	0	R1115T
4158.63	0.007	4228400	COUNTDOWN_END	n/a	n/a	n/a	-999	23	[0, 0, 0]	n/a	FR1	0	R1115T
4158.637	1.6	4228407	ORIENT	n/a	n/a	n/a	-999	23	[0, 0, 0]	n/a	FR1	0	R1115T
4161.171	1.6	4230941	WORD	n/a	wordpools/wordpool_EN.txt	BRICK	1	23	[0, 0, 0]	n/a	FR1	0	R1115T
4163.572	1.6	4233342	WORD	n/a	wordpools/wordpool_EN.txt	CORD	2	23	[0, 0, 0]	n/a	FR1	0	R1115T
4165.989	1.6	4235759	WORD	n/a	wordpools/wordpool_EN.txt	BADGE	3	23	[0, 0, 0]	n/a	FR1	0	R1115T
4168.556	1.6	4238326	WORD	n/a	wordpools/wordpool_EN.txt	CASH	4	23	[0, 0, 0]	n/a	FR1	0	R1115T
4170.956	1.6	4240725	WORD	n/a	wordpools/wordpool_EN.txt	STEM	5	23	[0, 0, 0]	n/a	FR1	0	R1115T
4173.44	1.6	4243209	WORD	n/a	wordpools/wordpool_EN.txt	BEAR	6	23	[0, 0, 0]	n/a	FR1	0	R1115T
4175.957	1.6	4245726	WORD	n/a	wordpools/wordpool_EN.txt	BOMB	7	23	[0, 0, 0]	n/a	FR1	0	R1115T
4178.358	1.6	4248127	WORD	n/a	wordpools/wordpool_EN.txt	CLOWN	8	23	[0, 0, 0]	n/a	FR1	0	R1115T
4180.758	1.6	4250527	WORD	n/a	wordpools/wordpool_EN.txt	SPARK	9	23	[0, 0, 0]	n/a	FR1	0	R1115T
4183.375	1.6	4253144	WORD	n/a	wordpools/wordpool_EN.txt	GOLD	10	23	[0, 0, 0]	n/a	FR1	0	R1115T
4185.992	1.6	4255761	WORD	n/a	wordpools/wordpool_EN.txt	FUDGE	11	23	[0, 0, 0]	n/a	FR1	0	R1115T
4188.626	1.6	4258395	WORD	n/a	wordpools/wordpool_EN.txt	ROCK	12	23	[0, 0, 0]	n/a	FR1	0	R1115T
4190.243	0.001	4260011	DISTRACT_START	n/a	n/a	n/a	-999	23	[0, 0, 0]	n/a	FR1	0	R1115T
4190.244	0.016	4260012	START	n/a	n/a	n/a	-999	23	[-999, -999, -999]	n/a	FR1	0	R1115T
4190.26	12.552	4260028	PROB	12.52	n/a	n/a	-999	23	[8, 9, 3]	20.0	FR1	0	R1115T
4202.812	9.151	4272580	PROB	9.151	n/a	n/a	-999	23	[6, 7, 5]	21.0	FR1	0	R1115T
4211.963	0.017	4281730	STOP	n/a	n/a	n/a	-999	23	[-999, -999, -999]	n/a	FR1	0	R1115T
4211.98	1.084	4281747	DISTRACT_END	n/a	n/a	n/a	-999	23	[0, 0, 0]	n/a	FR1	0	R1115T
4213.064	1.473	4282831	REC_START	n/a	n/a	n/a	-999	23	[0, 0, 0]	n/a	FR1	0	R1115T
4214.537	0.66	4284304	REC_WORD	1.473	n/a	BRICK	-999	23	[0, 0, 0]	n/a	FR1	0	R1115T
4215.197	1.598	4284964	REC_WORD	2.133	n/a	CORD	-999	23	[0, 0, 0]	n/a	FR1	0	R1115T
4216.795	0.873	4286562	REC_WORD	3.731	n/a	BADGE	-999	23	[0, 0, 0]	n/a	FR1	0	R1115T
4217.668	2.214	4287435	REC_WORD	4.604	n/a	CASH	-999	23	[0, 0, 0]	n/a	FR1	0	R1115T
4219.882	0.824	4289649	REC_WORD	6.818	n/a	BOMB	-999	23	[0, 0, 0]	n/a	FR1	0	R1115T
4220.706	1.72	4290473	REC_WORD	7.642	n/a	CLOWN	-999	23	[0, 0, 0]	n/a	FR1	0	R1115T
4222.426	20.654	4292193	REC_WORD	9.362	n/a	FUDGE	-999	23	[0, 0, 0]	n/a	FR1	0	R1115T
4243.08	1.69	4312846	REC_END	n/a	n/a	n/a	-999	23	[0, 0, 0]	n/a	FR1	0	R1115T
4244.77	10.0	4314536	COUNTDOWN_START	n/a	n/a	n/a	-999	24	[0, 0, 0]	n/a	FR1	0	R1115T
4244.77	10.428	4314536	TRIAL	n/a	n/a	n/a	-999	24	[0, 0, 0]	n/a	FR1	0	R1115T
4255.198	0.007	4324963	COUNTDOWN_END	n/a	n/a	n/a	-999	24	[0, 0, 0]	n/a	FR1	0	R1115T
4255.205	1.6	4324970	ORIENT	n/a	n/a	n/a	-999	24	[0, 0, 0]	n/a	FR1	0	R1115T
4257.755	1.6	4327520	WORD	n/a	wordpools/wordpool_EN.txt	CAPE	1	24	[0, 0, 0]	n/a	FR1	0	R1115T
4260.289	1.6	4330054	WORD	n/a	wordpools/wordpool_EN.txt	ROPE	2	24	[0, 0, 0]	n/a	FR1	0	R1115T
4262.79	1.6	4332555	WORD	n/a	wordpools/wordpool_EN.txt	DOCK	3	24	[0, 0, 0]	n/a	FR1	0	R1115T
4265.407	1.6	4335172	WORD	n/a	wordpools/wordpool_EN.txt	FORT	4	24	[0, 0, 0]	n/a	FR1	0	R1115T
4267.957	1.6	4337722	WORD	n/a	wordpools/wordpool_EN.txt	STEAM	5	24	[0, 0, 0]	n/a	FR1	0	R1115T
4270.491	1.6	4340256	WORD	n/a	wordpools/wordpool_EN.txt	SAIL	6	24	[0, 0, 0]	n/a	FR1	0	R1115T
4273.042	1.6	4342806	WORD	n/a	wordpools/wordpool_EN.txt	SLIME	7	24	[0, 0, 0]	n/a	FR1	0	R1115T
4275.442	1.6	4345206	WORD	n/a	wordpools/wordpool_EN.txt	HOOK	8	24	[0, 0, 0]	n/a	FR1	0	R1115T
4278.026	1.6	4347790	WORD	n/a	wordpools/wordpool_EN.txt	PRINCE	9	24	[0, 0, 0]	n/a	FR1	0	R1115T
4280.626	1.6	4350390	WORD	n/a	wordpools/wordpool_EN.txt	FLAG	10	24	[0, 0, 0]	n/a	FR1	0	R1115T
4283.177	1.6	4352941	WORD	n/a	wordpools/wordpool_EN.txt	SEA	11	24	[0, 0, 0]	n/a	FR1	0	R1115T
4285.727	1.6	4355491	WORD	n/a	wordpools/wordpool_EN.txt	HORN	12	24	[0, 0, 0]	n/a	FR1	0	R1115T
4287.344	0.001	4357108	DISTRACT_START	n/a	n/a	n/a	-999	24	[0, 0, 0]	n/a	FR1	0	R1115T
4287.345	0.016	4357109	START	n/a	n/a	n/a	-999	24	[-999, -999, -999]	n/a	FR1	0	R1115T
4287.361	12.435	4357125	PROB	12.403	n/a	n/a	-999	24	[2, 7, 4]	13.0	FR1	0	R1115T
4299.796	9.359	4369559	PROB	9.359	n/a	n/a	-999	24	[2, 4, 7]	13.0	FR1	0	R1115T
4309.155	0.01	4378918	STOP	n/a	n/a	n/a	-999	24	[-999, -999, -999]	n/a	FR1	0	R1115T
4309.165	1.034	4378928	DISTRACT_END	n/a	n/a	n/a	-999	24	[0, 0, 0]	n/a	FR1	0	R1115T
4310.199	1.351	4379962	REC_START	n/a	n/a	n/a	-999	24	[0, 0, 0]	n/a	FR1	0	R1115T
4311.55	1.725	4381313	REC_WORD	1.351	n/a	CAPE	-999	24	[0, 0, 0]	n/a	FR1	0	R1115T
4313.275	1.724	4383037	REC_WORD	3.076	n/a	ROPE	-999	24	[0, 0, 0]	n/a	FR1	0	R1115T
4314.999	1.792	4384761	REC_WORD	4.8	n/a	DOCK	-999	24	[0, 0, 0]	n/a	FR1	0	R1115T
4316.791	4.252	4386553	REC_WORD	6.592	n/a	FORK	-999	24	[0, 0, 0]	n/a	FR1	0	R1115T
4321.043	1.979	4390805	REC_WORD	10.844	n/a	ROOM	-999	24	[0, 0, 0]	n/a	FR1	0	R1115T
4323.022	17.188	4392784	REC_WORD	12.823	n/a	CLOWN	-999	24	[0, 0, 0]	n/a	FR1	0	R1115T
4340.21	1.994	4409971	REC_END	n/a	n/a	n/a	-999	24	[0, 0, 0]	n/a	FR1	0	R1115T
4342.204	0.0	4411965	TRIAL	n/a	n/a	n/a	-999	25	[0, 0, 0]	n/a	FR1	0	R1115T
4342.204	10.0	4411965	COUNTDOWN_START	n/a	n/a	n/a	-999	25	[0, 0, 0]	n/a	FR1	0	R1115T
4352.632	0.007	4422393	COUNTDOWN_END	n/a	n/a	n/a	-999	25	[0, 0, 0]	n/a	FR1	0	R1115T
4352.639	1.6	4422400	ORIENT	n/a	n/a	n/a	-999	25	[0, 0, 0]	n/a	FR1	0	R1115T
4355.173	1.6	4424933	WORD	n/a	wordpools/wordpool_EN.txt	LOCK	1	25	[0, 0, 0]	n/a	FR1	0	R1115T
4357.557	1.6	4427317	WORD	n/a	wordpools/wordpool_EN.txt	VEST	2	25	[0, 0, 0]	n/a	FR1	0	R1115T
4360.074	1.6	4429834	WORD	n/a	wordpools/wordpool_EN.txt	HOUSE	3	25	[0, 0, 0]	n/a	FR1	0	R1115T
4362.458	1.6	4432218	WORD	n/a	wordpools/wordpool_EN.txt	ROOM	4	25	[0, 0, 0]	n/a	FR1	0	R1115T
4364.925	1.6	4434685	WORD	n/a	wordpools/wordpool_EN.txt	LAMB	5	25	[0, 0, 0]	n/a	FR1	0	R1115T
4367.359	1.6	4437119	WORD	n/a	wordpools/wordpool_EN.txt	ROSE	6	25	[0, 0, 0]	n/a	FR1	0	R1115T
4369.859	1.6	4439619	WORD	n/a	wordpools/wordpool_EN.txt	SKY	7	25	[0, 0, 0]	n/a	FR1	0	R1115T
4372.376	1.6	4442136	WORD	n/a	wordpools/wordpool_EN.txt	MUG	8	25	[0, 0, 0]	n/a	FR1	0	R1115T
4374.793	1.6	4444552	WORD	n/a	wordpools/wordpool_EN.txt	WALL	9	25	[0, 0, 0]	n/a	FR1	0	R1115T
4377.227	1.6	4446986	WORD	n/a	wordpools/wordpool_EN.txt	TEA	10	25	[0, 0, 0]	n/a	FR1	0	R1115T
4379.744	1.6	4449503	WORD	n/a	wordpools/wordpool_EN.txt	HOOF	11	25	[0, 0, 0]	n/a	FR1	0	R1115T
4382.178	1.6	4451937	WORD	n/a	wordpools/wordpool_EN.txt	BOWL	12	25	[0, 0, 0]	n/a	FR1	0	R1115T
4383.795	0.001	4453554	DISTRACT_START	n/a	n/a	n/a	-999	25	[0, 0, 0]	n/a	FR1	0	R1115T
4383.796	0.016	4453555	START	n/a	n/a	n/a	-999	25	[-999, -999, -999]	n/a	FR1	0	R1115T
4383.812	10.402	4453571	PROB	10.376	n/a	n/a	-999	25	[3, 2, 9]	14.0	FR1	0	R1115T
4394.214	4.517	4463972	PROB	4.494	n/a	n/a	-999	25	[3, 5, 6]	14.0	FR1	0	R1115T
4398.731	4.684	4468489	PROB	4.649	n/a	n/a	-999	25	[8, 2, 8]	18.0	FR1	0	R1115T
4403.415	9.045	4473173	PROB	9.045	n/a	n/a	-999	25	[5, 8, 3]	16.0	FR1	0	R1115T
4412.46	0.007	4482218	STOP	n/a	n/a	n/a	-999	25	[-999, -999, -999]	n/a	FR1	0	R1115T
4412.467	1.084	4482225	DISTRACT_END	n/a	n/a	n/a	-999	25	[0, 0, 0]	n/a	FR1	0	R1115T
4413.551	7.179	4483309	REC_START	n/a	n/a	n/a	-999	25	[0, 0, 0]	n/a	FR1	0	R1115T
4420.73	0.783	4490487	REC_WORD	7.179	n/a	LOCK	-999	25	[0, 0, 0]	n/a	FR1	0	R1115T
4421.513	2.048	4491270	REC_WORD	7.962	n/a	VEST	-999	25	[0, 0, 0]	n/a	FR1	0	R1115T
4423.561	0.495	4493318	REC_WORD	10.01	n/a	CLOWN	-999	25	[0, 0, 0]	n/a	FR1	0	R1115T
4424.056	19.507	4493813	REC_WORD	10.505	n/a	ROOM	-999	25	[0, 0, 0]	n/a	FR1	0	R1115T
4443.563	7.145	4513319	REC_END	n/a	n/a	n/a	-999	25	[0, 0, 0]	n/a	FR1	0	R1115T
4450.708	0.0	4520464	SESS_END	n/a	n/a	n/a	-999	25	[0, 0, 0]	n/a	FR1	0	R1115T
