onset	duration	sample	trial_type	response_time	stim_file	item_name	serialpos	list	test	answer	experiment	session	subject
0.0	28.985	-1	SESS_START	n/a	n/a	n/a	-999	-999	[0, 0, 0]	n/a	FR1	0	R1176M
28.985	10.0	-1	COUNTDOWN_START	n/a	n/a	n/a	-999	-999	[0, 0, 0]	n/a	FR1	0	R1176M
39.413	3.509	-1	COUNTDOWN_END	n/a	n/a	n/a	-999	-999	[0, 0, 0]	n/a	FR1	0	R1176M
42.922	1.6	-1	PRACTICE_WORD	n/a	n/a	WATCH	1	-1	[0, 0, 0]	n/a	FR1	0	R1176M
45.373	1.6	-1	PRACTICE_WORD	n/a	n/a	COTTON	2	-1	[0, 0, 0]	n/a	FR1	0	R1176M
47.907	1.6	-1	PRACTICE_WORD	n/a	n/a	IRON	3	-1	[0, 0, 0]	n/a	FR1	0	R1176M
50.49	1.6	-1	PRACTICE_WORD	n/a	n/a	CAMEL	4	-1	[0, 0, 0]	n/a	FR1	0	R1176M
52.958	1.6	-1	PRACTICE_WORD	n/a	n/a	FLOOD	5	-1	[0, 0, 0]	n/a	FR1	0	R1176M
55.575	1.6	-1	PRACTICE_WORD	n/a	n/a	TONGUE	6	-1	[0, 0, 0]	n/a	FR1	0	R1176M
58.141	1.6	-1	PRACTICE_WORD	n/a	n/a	CHEST	7	-1	[0, 0, 0]	n/a	FR1	0	R1176M
60.509	1.6	-1	PRACTICE_WORD	n/a	n/a	RING	8	-1	[0, 0, 0]	n/a	FR1	0	R1176M
63.092	1.6	-1	PRACTICE_WORD	n/a	n/a	BEAM	9	-1	[0, 0, 0]	n/a	FR1	0	R1176M
65.644	1.6	-1	PRACTICE_WORD	n/a	n/a	RHINO	10	-1	[0, 0, 0]	n/a	FR1	0	R1176M
68.026	1.6	-1	PRACTICE_WORD	n/a	n/a	ATTIC	11	-1	[0, 0, 0]	n/a	FR1	0	R1176M
70.461	1.6	-1	PRACTICE_WORD	n/a	n/a	WAGON	12	-1	[0, 0, 0]	n/a	FR1	0	R1176M
72.077	0.0	-1	PRACTICE_DISTRACT_START	n/a	n/a	n/a	-999	-1	[0, 0, 0]	n/a	FR1	0	R1176M
72.077	0.016	-1	START	n/a	n/a	n/a	-999	-1	[-999, -999, -999]	n/a	FR1	0	R1176M
72.093	7.203	-1	PROB	7.174	n/a	n/a	-999	-1	[5, 6, 3]	14.0	FR1	0	R1176M
79.296	8.784	-1	PROB	8.755	n/a	n/a	-999	-1	[7, 8, 8]	24.0	FR1	0	R1176M
88.08	9.227	-1	PROB	9.227	n/a	n/a	-999	-1	[5, 3, 6]	14.0	FR1	0	R1176M
97.307	0.009	-1	STOP	n/a	n/a	n/a	-999	-1	[-999, -999, -999]	n/a	FR1	0	R1176M
97.316	0.701	-1	PRACTICE_DISTRACT_END	n/a	n/a	n/a	-999	-1	[0, 0, 0]	n/a	FR1	0	R1176M
98.017	30.516	-1	PRACTICE_REC_START	n/a	n/a	n/a	-999	-1	[0, 0, 0]	n/a	FR1	0	R1176M
128.533	29.395	2273	PRACTICE_REC_END	n/a	n/a	n/a	-999	-1	[0, 0, 0]	n/a	FR1	0	R1176M
157.928	0.0	16969	TRIAL	n/a	n/a	n/a	-999	1	[0, 0, 0]	n/a	FR1	0	R1176M
157.928	10.0	16969	COUNTDOWN_START	n/a	n/a	n/a	-999	1	[0, 0, 0]	n/a	FR1	0	R1176M
168.356	0.007	22182	COUNTDOWN_END	n/a	n/a	n/a	-999	1	[0, 0, 0]	n/a	FR1	0	R1176M
168.363	1.6	22186	ORIENT	n/a	n/a	n/a	-999	1	[0, 0, 0]	n/a	FR1	0	R1176M
170.897	1.6	23453	WORD	n/a	wordpools/wordpool_EN.txt	DUCK	1	1	[0, 0, 0]	n/a	FR1	0	R1176M
173.298	1.6	24653	WORD	n/a	wordpools/wordpool_EN.txt	ZOO	2	1	[0, 0, 0]	n/a	FR1	0	R1176M
175.781	1.6	25894	WORD	n/a	wordpools/wordpool_EN.txt	SOUP	3	1	[0, 0, 0]	n/a	FR1	0	R1176M
178.164	1.6	27086	WORD	n/a	wordpools/wordpool_EN.txt	CLAY	4	1	[0, 0, 0]	n/a	FR1	0	R1176M
180.566	1.6	28287	WORD	n/a	wordpools/wordpool_EN.txt	MOUSE	5	1	[0, 0, 0]	n/a	FR1	0	R1176M
182.966	1.6	29486	WORD	n/a	wordpools/wordpool_EN.txt	SKUNK	6	1	[0, 0, 0]	n/a	FR1	0	R1176M
185.417	1.6	30712	WORD	n/a	wordpools/wordpool_EN.txt	ANT	7	1	[0, 0, 0]	n/a	FR1	0	R1176M
188.033	1.6	32020	WORD	n/a	wordpools/wordpool_EN.txt	MOOSE	8	1	[0, 0, 0]	n/a	FR1	0	R1176M
190.484	1.6	33245	WORD	n/a	wordpools/wordpool_EN.txt	ROCK	9	1	[0, 0, 0]	n/a	FR1	0	R1176M
192.935	1.6	34470	WORD	n/a	wordpools/wordpool_EN.txt	SPONGE	10	1	[0, 0, 0]	n/a	FR1	0	R1176M
195.352	1.6	35679	WORD	n/a	wordpools/wordpool_EN.txt	TENT	11	1	[0, 0, 0]	n/a	FR1	0	R1176M
197.752	1.6	36879	WORD	n/a	wordpools/wordpool_EN.txt	SNAKE	12	1	[0, 0, 0]	n/a	FR1	0	R1176M
199.369	0.001	37687	DISTRACT_START	n/a	n/a	n/a	-999	1	[0, 0, 0]	n/a	FR1	0	R1176M
199.37	0.016	37688	START	n/a	n/a	n/a	-999	1	[-999, -999, -999]	n/a	FR1	0	R1176M
199.386	4.317	37696	PROB	4.29	n/a	n/a	-999	1	[3, 2, 7]	12.0	FR1	0	R1176M
203.703	6.202	39854	PROB	6.172	n/a	n/a	-999	1	[4, 5, 4]	13.0	FR1	0	R1176M
209.905	5.734	42955	PROB	5.699	n/a	n/a	-999	1	[5, 6, 6]	13.0	FR1	0	R1176M
215.639	3.741	45821	PROB	3.741	n/a	n/a	-999	1	[1, 6, 8]	14.0	FR1	0	R1176M
219.38	0.01	47692	STOP	n/a	n/a	n/a	-999	1	[-999, -999, -999]	n/a	FR1	0	R1176M
219.39	1.205	47697	DISTRACT_END	n/a	n/a	n/a	-999	1	[0, 0, 0]	n/a	FR1	0	R1176M
220.595	2.858	48299	REC_START	n/a	n/a	n/a	-999	1	[0, 0, 0]	n/a	FR1	0	R1176M
223.453	0.788	49728	REC_WORD	2.858	n/a	DUCK	-999	1	[0, 0, 0]	n/a	FR1	0	R1176M
224.241	14.299	50122	REC_WORD	3.646	n/a	ZOO	-999	1	[0, 0, 0]	n/a	FR1	0	R1176M
238.54	9.516	57271	REC_WORD	17.945	n/a	ANT	-999	1	[0, 0, 0]	n/a	FR1	0	R1176M
248.056	2.545	62028	REC_WORD	27.461	n/a	SOUP	-999	1	[0, 0, 0]	n/a	FR1	0	R1176M
250.601	726.634	63300	REC_END	n/a	n/a	n/a	-999	1	[0, 0, 0]	n/a	FR1	0	R1176M
977.235	0.0	426580	TRIAL	n/a	n/a	n/a	-999	2	[0, 0, 0]	n/a	FR1	0	R1176M
977.235	10.0	426580	COUNTDOWN_START	n/a	n/a	n/a	-999	2	[0, 0, 0]	n/a	FR1	0	R1176M
987.663	0.008	431793	COUNTDOWN_END	n/a	n/a	n/a	-999	2	[0, 0, 0]	n/a	FR1	0	R1176M
987.671	1.6	431797	ORIENT	n/a	n/a	n/a	-999	2	[0, 0, 0]	n/a	FR1	0	R1176M
990.22	1.6	433072	WORD	n/a	wordpools/wordpool_EN.txt	EAR	1	2	[0, 0, 0]	n/a	FR1	0	R1176M
992.739	1.6	434331	WORD	n/a	wordpools/wordpool_EN.txt	HOUSE	2	2	[0, 0, 0]	n/a	FR1	0	R1176M
995.306	1.6	435614	WORD	n/a	wordpools/wordpool_EN.txt	DOOR	3	2	[0, 0, 0]	n/a	FR1	0	R1176M
997.773	1.6	436848	WORD	n/a	wordpools/wordpool_EN.txt	STREET	4	2	[0, 0, 0]	n/a	FR1	0	R1176M
1000.189	1.6	438056	WORD	n/a	wordpools/wordpool_EN.txt	DIME	5	2	[0, 0, 0]	n/a	FR1	0	R1176M
1002.741	1.6	439331	WORD	n/a	wordpools/wordpool_EN.txt	BED	6	2	[0, 0, 0]	n/a	FR1	0	R1176M
1005.223	1.6	440572	WORD	n/a	wordpools/wordpool_EN.txt	CAKE	7	2	[0, 0, 0]	n/a	FR1	0	R1176M
1007.725	1.6	441823	WORD	n/a	wordpools/wordpool_EN.txt	CART	8	2	[0, 0, 0]	n/a	FR1	0	R1176M
1010.208	1.6	443065	WORD	n/a	wordpools/wordpool_EN.txt	FENCE	9	2	[0, 0, 0]	n/a	FR1	0	R1176M
1012.826	1.6	444373	WORD	n/a	wordpools/wordpool_EN.txt	CUP	10	2	[0, 0, 0]	n/a	FR1	0	R1176M
1015.275	1.6	445598	WORD	n/a	wordpools/wordpool_EN.txt	SLUSH	11	2	[0, 0, 0]	n/a	FR1	0	R1176M
1017.827	1.6	446874	WORD	n/a	wordpools/wordpool_EN.txt	STAIR	12	2	[0, 0, 0]	n/a	FR1	0	R1176M
1019.444	0.001	447682	DISTRACT_START	n/a	n/a	n/a	-999	2	[0, 0, 0]	n/a	FR1	0	R1176M
1019.445	0.016	447683	START	n/a	n/a	n/a	-999	2	[-999, -999, -999]	n/a	FR1	0	R1176M
1019.461	3.967	447691	PROB	3.942	n/a	n/a	-999	2	[2, 8, 8]	18.0	FR1	0	R1176M
1023.428	4.583	449674	PROB	4.551	n/a	n/a	-999	2	[7, 7, 4]	18.0	FR1	0	R1176M
1028.011	5.902	451965	PROB	5.872	n/a	n/a	-999	2	[5, 8, 6]	7.0	FR1	0	R1176M
1033.913	3.951	454916	PROB	3.915	n/a	n/a	-999	2	[6, 9, 6]	21.0	FR1	0	R1176M
1037.864	4.932	456891	PROB	4.932	n/a	n/a	-999	2	[4, 8, 6]	18.0	FR1	0	R1176M
1042.796	0.019	459357	STOP	n/a	n/a	n/a	-999	2	[-999, -999, -999]	n/a	FR1	0	R1176M
1042.815	1.216	459366	DISTRACT_END	n/a	n/a	n/a	-999	2	[0, 0, 0]	n/a	FR1	0	R1176M
1044.031	2.138	459974	REC_START	n/a	n/a	n/a	-999	2	[0, 0, 0]	n/a	FR1	0	R1176M
1046.169	1.56	461043	REC_WORD	2.138	n/a	EAR	-999	2	[0, 0, 0]	n/a	FR1	0	R1176M
1047.729	1.461	461823	REC_WORD	3.698	n/a	HOUSE	-999	2	[0, 0, 0]	n/a	FR1	0	R1176M
1049.19	2.372	462554	REC_WORD	5.159	n/a	DOOR	-999	2	[0, 0, 0]	n/a	FR1	0	R1176M
1051.562	2.782	463739	REC_WORD	7.531	n/a	BED	-999	2	[0, 0, 0]	n/a	FR1	0	R1176M
1054.344	2.0	465130	REC_WORD	10.313	n/a	CART	-999	2	[0, 0, 0]	n/a	FR1	0	R1176M
1056.344	5.989	466130	REC_WORD	12.313	n/a	STAIR	-999	2	[0, 0, 0]	n/a	FR1	0	R1176M
1062.333	11.71	469124	REC_WORD	18.302	n/a	STREET	-999	2	[0, 0, 0]	n/a	FR1	0	R1176M
1074.043	29.099	474979	REC_END	n/a	n/a	n/a	-999	2	[0, 0, 0]	n/a	FR1	0	R1176M
1103.142	10.0	489527	COUNTDOWN_START	n/a	n/a	n/a	-999	3	[0, 0, 0]	n/a	FR1	0	R1176M
1103.143	10.427	489527	TRIAL	n/a	n/a	n/a	-999	3	[0, 0, 0]	n/a	FR1	0	R1176M
1113.57	0.009	494740	COUNTDOWN_END	n/a	n/a	n/a	-999	3	[0, 0, 0]	n/a	FR1	0	R1176M
1113.579	1.6	494745	ORIENT	n/a	n/a	n/a	-999	3	[0, 0, 0]	n/a	FR1	0	R1176M
1116.162	1.6	496036	WORD	n/a	wordpools/wordpool_EN.txt	STONE	1	3	[0, 0, 0]	n/a	FR1	0	R1176M
1118.596	1.6	497253	WORD	n/a	wordpools/wordpool_EN.txt	FOAM	2	3	[0, 0, 0]	n/a	FR1	0	R1176M
1121.079	1.6	498494	WORD	n/a	wordpools/wordpool_EN.txt	CUBE	3	3	[0, 0, 0]	n/a	FR1	0	R1176M
1123.531	1.6	499720	WORD	n/a	wordpools/wordpool_EN.txt	BEACH	4	3	[0, 0, 0]	n/a	FR1	0	R1176M
1126.113	1.6	501011	WORD	n/a	wordpools/wordpool_EN.txt	ROOF	5	3	[0, 0, 0]	n/a	FR1	0	R1176M
1128.565	1.6	502237	WORD	n/a	wordpools/wordpool_EN.txt	CAVE	6	3	[0, 0, 0]	n/a	FR1	0	R1176M
1131.131	1.6	503520	WORD	n/a	wordpools/wordpool_EN.txt	WEB	7	3	[0, 0, 0]	n/a	FR1	0	R1176M
1133.516	1.6	504712	WORD	n/a	wordpools/wordpool_EN.txt	HOLE	8	3	[0, 0, 0]	n/a	FR1	0	R1176M
1136.065	1.6	505987	WORD	n/a	wordpools/wordpool_EN.txt	BUSH	9	3	[0, 0, 0]	n/a	FR1	0	R1176M
1138.634	1.6	507271	WORD	n/a	wordpools/wordpool_EN.txt	SNAIL	10	3	[0, 0, 0]	n/a	FR1	0	R1176M
1141.033	1.6	508470	WORD	n/a	wordpools/wordpool_EN.txt	LAKE	11	3	[0, 0, 0]	n/a	FR1	0	R1176M
1143.584	1.6	509746	WORD	n/a	wordpools/wordpool_EN.txt	SPEAR	12	3	[0, 0, 0]	n/a	FR1	0	R1176M
1145.2	0.001	510554	DISTRACT_START	n/a	n/a	n/a	-999	3	[0, 0, 0]	n/a	FR1	0	R1176M
1145.201	0.016	510554	START	n/a	n/a	n/a	-999	3	[-999, -999, -999]	n/a	FR1	0	R1176M
1145.217	5.801	510562	PROB	5.778	n/a	n/a	-999	3	[8, 1, 8]	17.0	FR1	0	R1176M
1151.018	2.618	513462	PROB	2.585	n/a	n/a	-999	3	[2, 2, 8]	12.0	FR1	0	R1176M
1153.636	3.701	514771	PROB	3.68	n/a	n/a	-999	3	[4, 2, 7]	12.0	FR1	0	R1176M
1157.337	6.151	516621	PROB	6.123	n/a	n/a	-999	3	[5, 3, 6]	12.0	FR1	0	R1176M
1163.488	3.484	519697	PROB	3.484	n/a	n/a	-999	3	[5, 5, 6]	16.0	FR1	0	R1176M
1166.972	0.016	521438	STOP	n/a	n/a	n/a	-999	3	[-999, -999, -999]	n/a	FR1	0	R1176M
1166.988	1.134	521446	DISTRACT_END	n/a	n/a	n/a	-999	3	[0, 0, 0]	n/a	FR1	0	R1176M
1168.122	1.935	522013	REC_START	n/a	n/a	n/a	-999	3	[0, 0, 0]	n/a	FR1	0	R1176M
1170.057	1.627	522981	REC_WORD	1.935	n/a	STONE	-999	3	[0, 0, 0]	n/a	FR1	0	R1176M
1171.684	1.678	523794	REC_WORD	3.562	n/a	BEACH	-999	3	[0, 0, 0]	n/a	FR1	0	R1176M
1173.362	4.538	524633	REC_WORD	5.24	n/a	CAVE	-999	3	[0, 0, 0]	n/a	FR1	0	R1176M
1177.9	8.258	526902	REC_WORD	9.778	n/a	BED	-999	3	[0, 0, 0]	n/a	FR1	0	R1176M
1186.158	4.162	531030	REC_WORD	18.036	n/a	WEB	-999	3	[0, 0, 0]	n/a	FR1	0	R1176M
1190.32	7.364	533111	REC_WORD	22.198	n/a	SNAIL	-999	3	[0, 0, 0]	n/a	FR1	0	R1176M
1197.684	0.452	536793	REC_WORD	29.562	n/a	ROOF	-999	3	[0, 0, 0]	n/a	FR1	0	R1176M
1198.136	19.862	537019	REC_END	n/a	n/a	n/a	-999	3	[0, 0, 0]	n/a	FR1	0	R1176M
1217.998	10.0	546949	COUNTDOWN_START	n/a	n/a	n/a	-999	4	[0, 0, 0]	n/a	FR1	0	R1176M
1217.998	10.428	546949	TRIAL	n/a	n/a	n/a	-999	4	[0, 0, 0]	n/a	FR1	0	R1176M
1228.426	0.008	552162	COUNTDOWN_END	n/a	n/a	n/a	-999	4	[0, 0, 0]	n/a	FR1	0	R1176M
1228.434	1.6	552166	ORIENT	n/a	n/a	n/a	-999	4	[0, 0, 0]	n/a	FR1	0	R1176M
1230.984	1.6	553441	WORD	n/a	wordpools/wordpool_EN.txt	BRICK	1	4	[0, 0, 0]	n/a	FR1	0	R1176M
1233.552	1.6	554725	WORD	n/a	wordpools/wordpool_EN.txt	POLE	2	4	[0, 0, 0]	n/a	FR1	0	R1176M
1236.018	1.6	555958	WORD	n/a	wordpools/wordpool_EN.txt	JAIL	3	4	[0, 0, 0]	n/a	FR1	0	R1176M
1238.569	1.6	557233	WORD	n/a	wordpools/wordpool_EN.txt	MAP	4	4	[0, 0, 0]	n/a	FR1	0	R1176M
1241.052	1.6	558475	WORD	n/a	wordpools/wordpool_EN.txt	MOON	5	4	[0, 0, 0]	n/a	FR1	0	R1176M
1243.587	1.6	559742	WORD	n/a	wordpools/wordpool_EN.txt	CORD	6	4	[0, 0, 0]	n/a	FR1	0	R1176M
1246.07	1.6	560983	WORD	n/a	wordpools/wordpool_EN.txt	BOMB	7	4	[0, 0, 0]	n/a	FR1	0	R1176M
1248.671	1.6	562284	WORD	n/a	wordpools/wordpool_EN.txt	OAR	8	4	[0, 0, 0]	n/a	FR1	0	R1176M
1251.138	1.6	563517	WORD	n/a	wordpools/wordpool_EN.txt	STAR	9	4	[0, 0, 0]	n/a	FR1	0	R1176M
1253.722	1.6	564809	WORD	n/a	wordpools/wordpool_EN.txt	STEM	10	4	[0, 0, 0]	n/a	FR1	0	R1176M
1256.272	1.6	566084	WORD	n/a	wordpools/wordpool_EN.txt	BAT	11	4	[0, 0, 0]	n/a	FR1	0	R1176M
1258.79	1.6	567343	WORD	n/a	wordpools/wordpool_EN.txt	TOOTH	12	4	[0, 0, 0]	n/a	FR1	0	R1176M
1260.407	0.001	568151	DISTRACT_START	n/a	n/a	n/a	-999	4	[0, 0, 0]	n/a	FR1	0	R1176M
1260.408	0.016	568152	START	n/a	n/a	n/a	-999	4	[-999, -999, -999]	n/a	FR1	0	R1176M
1260.424	3.417	568160	PROB	3.388	n/a	n/a	-999	4	[4, 6, 4]	14.0	FR1	0	R1176M
1263.841	3.517	569868	PROB	3.491	n/a	n/a	-999	4	[7, 4, 7]	14.0	FR1	0	R1176M
1267.358	4.7	571626	PROB	4.676	n/a	n/a	-999	4	[4, 7, 1]	11.0	FR1	0	R1176M
1272.058	2.352	573976	PROB	2.33	n/a	n/a	-999	4	[4, 7, 3]	14.0	FR1	0	R1176M
1274.41	3.384	575152	PROB	3.361	n/a	n/a	-999	4	[6, 9, 1]	16.0	FR1	0	R1176M
1277.794	3.61	576844	PROB	3.61	n/a	n/a	-999	4	[8, 2, 7]	17.0	FR1	0	R1176M
1281.404	0.007	578649	STOP	n/a	n/a	n/a	-999	4	[-999, -999, -999]	n/a	FR1	0	R1176M
1281.411	1.217	578652	DISTRACT_END	n/a	n/a	n/a	-999	4	[0, 0, 0]	n/a	FR1	0	R1176M
1282.628	1.213	579260	REC_START	n/a	n/a	n/a	-999	4	[0, 0, 0]	n/a	FR1	0	R1176M
1283.841	1.531	579867	REC_WORD	1.213	n/a	STONE	-999	4	[0, 0, 0]	n/a	FR1	0	R1176M
1285.372	1.221	580632	REC_WORD	2.744	n/a	MOON	-999	4	[0, 0, 0]	n/a	FR1	0	R1176M
1286.593	1.566	581243	REC_WORD	3.965	n/a	JAIL	-999	4	[0, 0, 0]	n/a	FR1	0	R1176M
1288.159	3.957	582026	REC_WORD	5.531	n/a	STAR	-999	4	[0, 0, 0]	n/a	FR1	0	R1176M
1292.116	20.523	584004	REC_WORD	9.488	n/a	TOOTH	-999	4	[0, 0, 0]	n/a	FR1	0	R1176M
1312.639	47.62	594264	REC_END	n/a	n/a	n/a	-999	4	[0, 0, 0]	n/a	FR1	0	R1176M
1360.259	0.0	618072	TRIAL	n/a	n/a	n/a	-999	5	[0, 0, 0]	n/a	FR1	0	R1176M
1360.259	10.0	618072	COUNTDOWN_START	n/a	n/a	n/a	-999	5	[0, 0, 0]	n/a	FR1	0	R1176M
1370.687	0.008	623285	COUNTDOWN_END	n/a	n/a	n/a	-999	5	[0, 0, 0]	n/a	FR1	0	R1176M
1370.695	1.6	623289	ORIENT	n/a	n/a	n/a	-999	5	[0, 0, 0]	n/a	FR1	0	R1176M
1373.295	1.6	624589	WORD	n/a	wordpools/wordpool_EN.txt	STEAM	1	5	[0, 0, 0]	n/a	FR1	0	R1176M
1375.863	1.6	625873	WORD	n/a	wordpools/wordpool_EN.txt	SIGN	2	5	[0, 0, 0]	n/a	FR1	0	R1176M
1378.446	1.6	627164	WORD	n/a	wordpools/wordpool_EN.txt	WHALE	3	5	[0, 0, 0]	n/a	FR1	0	R1176M
1380.914	1.6	628398	WORD	n/a	wordpools/wordpool_EN.txt	SHIELD	4	5	[0, 0, 0]	n/a	FR1	0	R1176M
1383.431	1.6	629657	WORD	n/a	wordpools/wordpool_EN.txt	ICE	5	5	[0, 0, 0]	n/a	FR1	0	R1176M
1385.98	1.6	630931	WORD	n/a	wordpools/wordpool_EN.txt	CROW	6	5	[0, 0, 0]	n/a	FR1	0	R1176M
1388.565	1.6	632223	WORD	n/a	wordpools/wordpool_EN.txt	AXE	7	5	[0, 0, 0]	n/a	FR1	0	R1176M
1391.015	1.6	633448	WORD	n/a	wordpools/wordpool_EN.txt	JEEP	8	5	[0, 0, 0]	n/a	FR1	0	R1176M
1393.533	1.6	634707	WORD	n/a	wordpools/wordpool_EN.txt	SPRING	9	5	[0, 0, 0]	n/a	FR1	0	R1176M
1396.116	1.6	635999	WORD	n/a	wordpools/wordpool_EN.txt	SLEEVE	10	5	[0, 0, 0]	n/a	FR1	0	R1176M
1398.717	1.6	637299	WORD	n/a	wordpools/wordpool_EN.txt	GEESE	11	5	[0, 0, 0]	n/a	FR1	0	R1176M
1401.2	1.6	638540	WORD	n/a	wordpools/wordpool_EN.txt	GATE	12	5	[0, 0, 0]	n/a	FR1	0	R1176M
1402.818	0.001	639349	DISTRACT_START	n/a	n/a	n/a	-999	5	[0, 0, 0]	n/a	FR1	0	R1176M
1402.819	0.015	639350	START	n/a	n/a	n/a	-999	5	[-999, -999, -999]	n/a	FR1	0	R1176M
1402.834	9.952	639357	PROB	9.922	n/a	n/a	-999	5	[5, 8, 9]	21.0	FR1	0	R1176M
1412.786	5.852	644333	PROB	5.825	n/a	n/a	-999	5	[4, 9, 3]	14.0	FR1	0	R1176M
1418.638	6.061	647258	PROB	6.061	n/a	n/a	-999	5	[7, 5, 7]	19.0	FR1	0	R1176M
1424.699	0.006	650289	STOP	n/a	n/a	n/a	-999	5	[-999, -999, -999]	n/a	FR1	0	R1176M
1424.705	1.018	650292	DISTRACT_END	n/a	n/a	n/a	-999	5	[0, 0, 0]	n/a	FR1	0	R1176M
1425.723	2.845	650801	REC_START	n/a	n/a	n/a	-999	5	[0, 0, 0]	n/a	FR1	0	R1176M
1428.568	1.59	652223	REC_WORD	2.845	n/a	STEAM	-999	5	[0, 0, 0]	n/a	FR1	0	R1176M
1430.158	2.437	653018	REC_WORD	4.435	n/a	WHALE	-999	5	[0, 0, 0]	n/a	FR1	0	R1176M
1432.595	23.138	654236	REC_WORD	6.872	n/a	JAIL	-999	5	[0, 0, 0]	n/a	FR1	0	R1176M
1455.733	51.755	665804	REC_END	n/a	n/a	n/a	-999	5	[0, 0, 0]	n/a	FR1	0	R1176M
1507.488	0.0	691679	TRIAL	n/a	n/a	n/a	-999	6	[0, 0, 0]	n/a	FR1	0	R1176M
1507.488	10.0	691679	COUNTDOWN_START	n/a	n/a	n/a	-999	6	[0, 0, 0]	n/a	FR1	0	R1176M
1517.916	0.007	696892	COUNTDOWN_END	n/a	n/a	n/a	-999	6	[0, 0, 0]	n/a	FR1	0	R1176M
1517.923	1.6	696896	ORIENT	n/a	n/a	n/a	-999	6	[0, 0, 0]	n/a	FR1	0	R1176M
1520.34	1.6	698104	WORD	n/a	wordpools/wordpool_EN.txt	BADGE	1	6	[0, 0, 0]	n/a	FR1	0	R1176M
1522.741	1.6	699305	WORD	n/a	wordpools/wordpool_EN.txt	JUDGE	2	6	[0, 0, 0]	n/a	FR1	0	R1176M
1525.308	1.6	700588	WORD	n/a	wordpools/wordpool_EN.txt	BOOK	3	6	[0, 0, 0]	n/a	FR1	0	R1176M
1527.808	1.6	701838	WORD	n/a	wordpools/wordpool_EN.txt	PIG	4	6	[0, 0, 0]	n/a	FR1	0	R1176M
1530.225	1.6	703046	WORD	n/a	wordpools/wordpool_EN.txt	PLANE	5	6	[0, 0, 0]	n/a	FR1	0	R1176M
1532.743	1.6	704305	WORD	n/a	wordpools/wordpool_EN.txt	SHEET	6	6	[0, 0, 0]	n/a	FR1	0	R1176M
1535.226	1.6	705546	WORD	n/a	wordpools/wordpool_EN.txt	CAR	7	6	[0, 0, 0]	n/a	FR1	0	R1176M
1537.844	1.6	706855	WORD	n/a	wordpools/wordpool_EN.txt	SMOKE	8	6	[0, 0, 0]	n/a	FR1	0	R1176M
1540.277	1.6	708072	WORD	n/a	wordpools/wordpool_EN.txt	SHEEP	9	6	[0, 0, 0]	n/a	FR1	0	R1176M
1542.861	1.6	709363	WORD	n/a	wordpools/wordpool_EN.txt	WAVE	10	6	[0, 0, 0]	n/a	FR1	0	R1176M
1545.445	1.6	710655	WORD	n/a	wordpools/wordpool_EN.txt	ARK	11	6	[0, 0, 0]	n/a	FR1	0	R1176M
1547.912	1.6	711889	WORD	n/a	wordpools/wordpool_EN.txt	JET	12	6	[0, 0, 0]	n/a	FR1	0	R1176M
1549.529	0.001	712697	DISTRACT_START	n/a	n/a	n/a	-999	6	[0, 0, 0]	n/a	FR1	0	R1176M
1549.53	0.016	712698	START	n/a	n/a	n/a	-999	6	[-999, -999, -999]	n/a	FR1	0	R1176M
1549.546	4.318	712706	PROB	4.29	n/a	n/a	-999	6	[6, 2, 7]	15.0	FR1	0	R1176M
1553.864	3.1	714864	PROB	3.076	n/a	n/a	-999	6	[7, 3, 9]	19.0	FR1	0	R1176M
1556.964	3.601	716414	PROB	3.576	n/a	n/a	-999	6	[4, 5, 3]	12.0	FR1	0	R1176M
1560.565	2.4	718215	PROB	2.366	n/a	n/a	-999	6	[4, 3, 7]	14.0	FR1	0	R1176M
1562.965	5.117	719414	PROB	5.093	n/a	n/a	-999	6	[5, 8, 4]	15.0	FR1	0	R1176M
1568.082	3.346	721973	PROB	3.346	n/a	n/a	-999	6	[7, 9, 5]	21.0	FR1	0	R1176M
1571.428	0.006	723645	STOP	n/a	n/a	n/a	-999	6	[-999, -999, -999]	n/a	FR1	0	R1176M
1571.434	1.101	723648	DISTRACT_END	n/a	n/a	n/a	-999	6	[0, 0, 0]	n/a	FR1	0	R1176M
1572.535	3.172	724199	REC_START	n/a	n/a	n/a	-999	6	[0, 0, 0]	n/a	FR1	0	R1176M
1575.707	0.889	725785	REC_WORD	3.172	n/a	BADGE	-999	6	[0, 0, 0]	n/a	FR1	0	R1176M
1576.596	1.529	726229	REC_WORD	4.061	n/a	JUDGE	-999	6	[0, 0, 0]	n/a	FR1	0	R1176M
1578.125	2.988	726994	REC_WORD	5.59	n/a	PIG	-999	6	[0, 0, 0]	n/a	FR1	0	R1176M
1581.113	21.432	728487	REC_WORD	8.578	n/a	BOOK	-999	6	[0, 0, 0]	n/a	FR1	0	R1176M
1602.545	20.849	739202	REC_END	n/a	n/a	n/a	-999	6	[0, 0, 0]	n/a	FR1	0	R1176M
1623.394	0.0	749626	TRIAL	n/a	n/a	n/a	-999	7	[0, 0, 0]	n/a	FR1	0	R1176M
1623.394	10.0	749626	COUNTDOWN_START	n/a	n/a	n/a	-999	7	[0, 0, 0]	n/a	FR1	0	R1176M
1633.822	0.007	754839	COUNTDOWN_END	n/a	n/a	n/a	-999	7	[0, 0, 0]	n/a	FR1	0	R1176M
1633.829	1.6	754843	ORIENT	n/a	n/a	n/a	-999	7	[0, 0, 0]	n/a	FR1	0	R1176M
1636.279	1.6	756068	WORD	n/a	wordpools/wordpool_EN.txt	HAWK	1	7	[0, 0, 0]	n/a	FR1	0	R1176M
1638.847	1.6	757352	WORD	n/a	wordpools/wordpool_EN.txt	BEE	2	7	[0, 0, 0]	n/a	FR1	0	R1176M
1641.33	1.6	758593	WORD	n/a	wordpools/wordpool_EN.txt	SEAT	3	7	[0, 0, 0]	n/a	FR1	0	R1176M
1643.798	1.6	759827	WORD	n/a	wordpools/wordpool_EN.txt	CORN	4	7	[0, 0, 0]	n/a	FR1	0	R1176M
1646.365	1.6	761110	WORD	n/a	wordpools/wordpool_EN.txt	COW	5	7	[0, 0, 0]	n/a	FR1	0	R1176M
1648.998	1.6	762426	WORD	n/a	wordpools/wordpool_EN.txt	BARN	6	7	[0, 0, 0]	n/a	FR1	0	R1176M
1651.533	1.6	763694	WORD	n/a	wordpools/wordpool_EN.txt	OWL	7	7	[0, 0, 0]	n/a	FR1	0	R1176M
1653.999	1.6	764927	WORD	n/a	wordpools/wordpool_EN.txt	PET	8	7	[0, 0, 0]	n/a	FR1	0	R1176M
1656.417	1.6	766136	WORD	n/a	wordpools/wordpool_EN.txt	LAMB	9	7	[0, 0, 0]	n/a	FR1	0	R1176M
1658.817	1.6	767335	WORD	n/a	wordpools/wordpool_EN.txt	SKY	10	7	[0, 0, 0]	n/a	FR1	0	R1176M
1661.401	1.6	768627	WORD	n/a	wordpools/wordpool_EN.txt	FLEA	11	7	[0, 0, 0]	n/a	FR1	0	R1176M
1663.835	1.6	769844	WORD	n/a	wordpools/wordpool_EN.txt	EEL	12	7	[0, 0, 0]	n/a	FR1	0	R1176M
1665.452	0.001	770653	DISTRACT_START	n/a	n/a	n/a	-999	7	[0, 0, 0]	n/a	FR1	0	R1176M
1665.453	0.015	770653	START	n/a	n/a	n/a	-999	7	[-999, -999, -999]	n/a	FR1	0	R1176M
1665.468	3.168	770661	PROB	3.144	n/a	n/a	-999	7	[2, 1, 1]	4.0	FR1	0	R1176M
1668.636	4.2	772244	PROB	4.175	n/a	n/a	-999	7	[1, 7, 6]	14.0	FR1	0	R1176M
1672.836	4.651	774344	PROB	4.631	n/a	n/a	-999	7	[9, 5, 7]	21.0	FR1	0	R1176M
1677.487	2.968	776670	PROB	2.941	n/a	n/a	-999	7	[5, 7, 3]	15.0	FR1	0	R1176M
1680.455	3.234	778153	PROB	3.205	n/a	n/a	-999	7	[8, 3, 9]	20.0	FR1	0	R1176M
1683.689	4.035	779770	PROB	4.035	n/a	n/a	-999	7	[7, 8, 9]	24.0	FR1	0	R1176M
1687.724	0.016	781787	STOP	n/a	n/a	n/a	-999	7	[-999, -999, -999]	n/a	FR1	0	R1176M
1687.74	1.184	781795	DISTRACT_END	n/a	n/a	n/a	-999	7	[0, 0, 0]	n/a	FR1	0	R1176M
1688.924	2.8	782387	REC_START	n/a	n/a	n/a	-999	7	[0, 0, 0]	n/a	FR1	0	R1176M
1691.724	2.566	783787	REC_WORD	2.8	n/a	HAWK	-999	7	[0, 0, 0]	n/a	FR1	0	R1176M
1694.29	6.251	785070	REC_WORD	5.366	n/a	COW	-999	7	[0, 0, 0]	n/a	FR1	0	R1176M
1700.541	18.393	788195	REC_WORD	11.617	n/a	OWL	-999	7	[0, 0, 0]	n/a	FR1	0	R1176M
1718.934	12.196	797391	REC_END	n/a	n/a	n/a	-999	7	[0, 0, 0]	n/a	FR1	0	R1176M
1731.13	0.0	803488	TRIAL	n/a	n/a	n/a	-999	8	[0, 0, 0]	n/a	FR1	0	R1176M
1731.13	10.0	803488	COUNTDOWN_START	n/a	n/a	n/a	-999	8	[0, 0, 0]	n/a	FR1	0	R1176M
1741.558	0.008	808702	COUNTDOWN_END	n/a	n/a	n/a	-999	8	[0, 0, 0]	n/a	FR1	0	R1176M
1741.566	1.6	808706	ORIENT	n/a	n/a	n/a	-999	8	[0, 0, 0]	n/a	FR1	0	R1176M
1744.066	1.6	809956	WORD	n/a	wordpools/wordpool_EN.txt	SCHOOL	1	8	[0, 0, 0]	n/a	FR1	0	R1176M
1746.434	1.6	811139	WORD	n/a	wordpools/wordpool_EN.txt	PIN	2	8	[0, 0, 0]	n/a	FR1	0	R1176M
1748.834	1.6	812339	WORD	n/a	wordpools/wordpool_EN.txt	CLOCK	3	8	[0, 0, 0]	n/a	FR1	0	R1176M
1751.435	1.6	813640	WORD	n/a	wordpools/wordpool_EN.txt	FLAG	4	8	[0, 0, 0]	n/a	FR1	0	R1176M
1753.886	1.6	814865	WORD	n/a	wordpools/wordpool_EN.txt	THUMB	5	8	[0, 0, 0]	n/a	FR1	0	R1176M
1756.486	1.6	816165	WORD	n/a	wordpools/wordpool_EN.txt	BOY	6	8	[0, 0, 0]	n/a	FR1	0	R1176M
1759.019	1.6	817431	WORD	n/a	wordpools/wordpool_EN.txt	WORLD	7	8	[0, 0, 0]	n/a	FR1	0	R1176M
1761.487	1.6	818665	WORD	n/a	wordpools/wordpool_EN.txt	DESK	8	8	[0, 0, 0]	n/a	FR1	0	R1176M
1764.086	1.6	819965	WORD	n/a	wordpools/wordpool_EN.txt	BRIDGE	9	8	[0, 0, 0]	n/a	FR1	0	R1176M
1766.555	1.6	821199	WORD	n/a	wordpools/wordpool_EN.txt	THREAD	10	8	[0, 0, 0]	n/a	FR1	0	R1176M
1769.087	1.6	822465	WORD	n/a	wordpools/wordpool_EN.txt	INK	11	8	[0, 0, 0]	n/a	FR1	0	R1176M
1771.539	1.6	823691	WORD	n/a	wordpools/wordpool_EN.txt	POOL	12	8	[0, 0, 0]	n/a	FR1	0	R1176M
1773.155	0.001	824499	DISTRACT_START	n/a	n/a	n/a	-999	8	[0, 0, 0]	n/a	FR1	0	R1176M
1773.156	0.016	824499	START	n/a	n/a	n/a	-999	8	[-999, -999, -999]	n/a	FR1	0	R1176M
1773.172	3.568	824507	PROB	3.544	n/a	n/a	-999	8	[1, 5, 4]	10.0	FR1	0	R1176M
1776.74	2.717	826291	PROB	2.696	n/a	n/a	-999	8	[4, 6, 2]	12.0	FR1	0	R1176M
1779.457	3.084	827649	PROB	3.058	n/a	n/a	-999	8	[5, 9, 5]	23.0	FR1	0	R1176M
1782.541	2.733	829191	PROB	2.702	n/a	n/a	-999	8	[9, 7, 1]	17.0	FR1	0	R1176M
1785.274	2.318	830557	PROB	2.282	n/a	n/a	-999	8	[3, 7, 3]	13.0	FR1	0	R1176M
1787.592	3.951	831716	PROB	3.923	n/a	n/a	-999	8	[4, 3, 4]	11.0	FR1	0	R1176M
1791.543	2.085	833692	PROB	2.085	n/a	n/a	-999	8	[6, 2, 4]	12.0	FR1	0	R1176M
1793.628	0.015	834734	STOP	n/a	n/a	n/a	-999	8	[-999, -999, -999]	n/a	FR1	0	R1176M
1793.643	1.068	834741	DISTRACT_END	n/a	n/a	n/a	-999	8	[0, 0, 0]	n/a	FR1	0	R1176M
1794.711	1.257	835275	REC_START	n/a	n/a	n/a	-999	8	[0, 0, 0]	n/a	FR1	0	R1176M
1795.968	1.468	835904	REC_WORD	1.257	n/a	SCHOOL	-999	8	[0, 0, 0]	n/a	FR1	0	R1176M
1797.436	1.733	836638	REC_WORD	2.725	n/a	BOY	-999	8	[0, 0, 0]	n/a	FR1	0	R1176M
1799.169	25.552	837504	REC_WORD	4.458	n/a	INK	-999	8	[0, 0, 0]	n/a	FR1	0	R1176M
1824.721	36.619	850279	REC_END	n/a	n/a	n/a	-999	8	[0, 0, 0]	n/a	FR1	0	R1176M
1861.34	0.0	868586	TRIAL	n/a	n/a	n/a	-999	9	[0, 0, 0]	n/a	FR1	0	R1176M
1861.34	10.0	868586	COUNTDOWN_START	n/a	n/a	n/a	-999	9	[0, 0, 0]	n/a	FR1	0	R1176M
1871.768	0.007	873800	COUNTDOWN_END	n/a	n/a	n/a	-999	9	[0, 0, 0]	n/a	FR1	0	R1176M
1871.775	1.6	873803	ORIENT	n/a	n/a	n/a	-999	9	[0, 0, 0]	n/a	FR1	0	R1176M
1874.309	1.6	875070	WORD	n/a	wordpools/wordpool_EN.txt	SEAL	1	9	[0, 0, 0]	n/a	FR1	0	R1176M
1876.926	1.6	876379	WORD	n/a	wordpools/wordpool_EN.txt	GOLD	2	9	[0, 0, 0]	n/a	FR1	0	R1176M
1879.51	1.6	877671	WORD	n/a	wordpools/wordpool_EN.txt	GUARD	3	9	[0, 0, 0]	n/a	FR1	0	R1176M
1881.977	1.6	878904	WORD	n/a	wordpools/wordpool_EN.txt	NAIL	4	9	[0, 0, 0]	n/a	FR1	0	R1176M
1884.361	1.6	880096	WORD	n/a	wordpools/wordpool_EN.txt	SQUARE	5	9	[0, 0, 0]	n/a	FR1	0	R1176M
1886.794	1.6	881312	WORD	n/a	wordpools/wordpool_EN.txt	CAPE	6	9	[0, 0, 0]	n/a	FR1	0	R1176M
1889.295	1.6	882563	WORD	n/a	wordpools/wordpool_EN.txt	TOOL	7	9	[0, 0, 0]	n/a	FR1	0	R1176M
1891.762	1.6	883796	WORD	n/a	wordpools/wordpool_EN.txt	CROWN	8	9	[0, 0, 0]	n/a	FR1	0	R1176M
1894.278	1.6	885054	WORD	n/a	wordpools/wordpool_EN.txt	SWORD	9	9	[0, 0, 0]	n/a	FR1	0	R1176M
1896.813	1.6	886321	WORD	n/a	wordpools/wordpool_EN.txt	HAND	10	9	[0, 0, 0]	n/a	FR1	0	R1176M
1899.279	1.6	887554	WORD	n/a	wordpools/wordpool_EN.txt	BLUSH	11	9	[0, 0, 0]	n/a	FR1	0	R1176M
1901.697	1.6	888763	WORD	n/a	wordpools/wordpool_EN.txt	PIT	12	9	[0, 0, 0]	n/a	FR1	0	R1176M
1903.314	0.001	889571	DISTRACT_START	n/a	n/a	n/a	-999	9	[0, 0, 0]	n/a	FR1	0	R1176M
1903.315	0.016	889572	START	n/a	n/a	n/a	-999	9	[-999, -999, -999]	n/a	FR1	0	R1176M
1903.331	4.7	889580	PROB	4.679	n/a	n/a	-999	9	[7, 7, 4]	18.0	FR1	0	R1176M
1908.031	5.569	891930	PROB	5.532	n/a	n/a	-999	9	[2, 6, 6]	14.0	FR1	0	R1176M
1913.6	3.1	894714	PROB	3.075	n/a	n/a	-999	9	[4, 3, 9]	16.0	FR1	0	R1176M
1916.7	3.583	896264	PROB	3.551	n/a	n/a	-999	9	[3, 8, 9]	20.0	FR1	0	R1176M
1920.283	2.368	898055	PROB	2.345	n/a	n/a	-999	9	[7, 2, 8]	17.0	FR1	0	R1176M
1922.651	2.289	899239	PROB	2.289	n/a	n/a	-999	9	[1, 9, 6]	16.0	FR1	0	R1176M
1924.94	0.012	900383	STOP	n/a	n/a	n/a	-999	9	[-999, -999, -999]	n/a	FR1	0	R1176M
1924.952	1.066	900389	DISTRACT_END	n/a	n/a	n/a	-999	9	[0, 0, 0]	n/a	FR1	0	R1176M
1926.018	1.571	900922	REC_START	n/a	n/a	n/a	-999	9	[0, 0, 0]	n/a	FR1	0	R1176M
1927.589	1.401	901708	REC_WORD	1.571	n/a	SEAL	-999	9	[0, 0, 0]	n/a	FR1	0	R1176M
1928.99	8.127	902408	REC_WORD	2.972	n/a	GOLD	-999	9	[0, 0, 0]	n/a	FR1	0	R1176M
1937.117	7.481	906471	REC_WORD	11.099	n/a	TOOTH	-999	9	[0, 0, 0]	n/a	FR1	0	R1176M
1944.598	11.434	910211	REC_WORD	18.58	n/a	SAW	-999	9	[0, 0, 0]	n/a	FR1	0	R1176M
1956.032	27.298	915928	REC_END	n/a	n/a	n/a	-999	9	[0, 0, 0]	n/a	FR1	0	R1176M
1983.33	0.0	929575	TRIAL	n/a	n/a	n/a	-999	10	[0, 0, 0]	n/a	FR1	0	R1176M
1983.33	10.0	929575	COUNTDOWN_START	n/a	n/a	n/a	-999	10	[0, 0, 0]	n/a	FR1	0	R1176M
1993.758	0.007	934789	COUNTDOWN_END	n/a	n/a	n/a	-999	10	[0, 0, 0]	n/a	FR1	0	R1176M
1993.765	1.6	934792	ORIENT	n/a	n/a	n/a	-999	10	[0, 0, 0]	n/a	FR1	0	R1176M
1996.332	1.6	936075	WORD	n/a	wordpools/wordpool_EN.txt	TRAY	1	10	[0, 0, 0]	n/a	FR1	0	R1176M
1998.749	1.6	937284	WORD	n/a	wordpools/wordpool_EN.txt	SPOON	2	10	[0, 0, 0]	n/a	FR1	0	R1176M
2001.367	1.6	938593	WORD	n/a	wordpools/wordpool_EN.txt	TIE	3	10	[0, 0, 0]	n/a	FR1	0	R1176M
2003.867	1.6	939843	WORD	n/a	wordpools/wordpool_EN.txt	FROG	4	10	[0, 0, 0]	n/a	FR1	0	R1176M
2006.401	1.6	941109	WORD	n/a	wordpools/wordpool_EN.txt	SMILE	5	10	[0, 0, 0]	n/a	FR1	0	R1176M
2008.984	1.6	942401	WORD	n/a	wordpools/wordpool_EN.txt	FORK	6	10	[0, 0, 0]	n/a	FR1	0	R1176M
2011.435	1.6	943626	WORD	n/a	wordpools/wordpool_EN.txt	VEST	7	10	[0, 0, 0]	n/a	FR1	0	R1176M
2013.919	1.6	944868	WORD	n/a	wordpools/wordpool_EN.txt	ARM	8	10	[0, 0, 0]	n/a	FR1	0	R1176M
2016.503	1.6	946160	WORD	n/a	wordpools/wordpool_EN.txt	BREAD	9	10	[0, 0, 0]	n/a	FR1	0	R1176M
2019.036	1.6	947426	WORD	n/a	wordpools/wordpool_EN.txt	GOAT	10	10	[0, 0, 0]	n/a	FR1	0	R1176M
2021.554	1.6	948685	WORD	n/a	wordpools/wordpool_EN.txt	PIE	11	10	[0, 0, 0]	n/a	FR1	0	R1176M
2024.087	1.6	949952	WORD	n/a	wordpools/wordpool_EN.txt	STEAK	12	10	[0, 0, 0]	n/a	FR1	0	R1176M
2025.688	0.001	950752	DISTRACT_START	n/a	n/a	n/a	-999	10	[0, 0, 0]	n/a	FR1	0	R1176M
2025.689	0.016	950752	START	n/a	n/a	n/a	-999	10	[-999, -999, -999]	n/a	FR1	0	R1176M
2025.705	2.967	950760	PROB	2.931	n/a	n/a	-999	10	[9, 1, 1]	11.0	FR1	0	R1176M
2028.672	4.616	952244	PROB	4.587	n/a	n/a	-999	10	[3, 5, 8]	13.0	FR1	0	R1176M
2033.288	2.535	954552	PROB	2.5	n/a	n/a	-999	10	[1, 3, 7]	11.0	FR1	0	R1176M
2035.823	4.101	955819	PROB	4.076	n/a	n/a	-999	10	[6, 2, 9]	17.0	FR1	0	R1176M
2039.924	3.384	957869	PROB	3.35	n/a	n/a	-999	10	[3, 6, 8]	14.0	FR1	0	R1176M
2043.308	2.959	959561	PROB	2.959	n/a	n/a	-999	10	[9, 3, 3]	15.0	FR1	0	R1176M
2046.267	0.007	961040	STOP	n/a	n/a	n/a	-999	10	[-999, -999, -999]	n/a	FR1	0	R1176M
2046.274	1.069	961044	DISTRACT_END	n/a	n/a	n/a	-999	10	[0, 0, 0]	n/a	FR1	0	R1176M
2047.343	1.53	961578	REC_START	n/a	n/a	n/a	-999	10	[0, 0, 0]	n/a	FR1	0	R1176M
2048.873	1.056	962343	REC_WORD	1.53	n/a	TRAY	-999	10	[0, 0, 0]	n/a	FR1	0	R1176M
2049.929	1.781	962871	REC_WORD	2.586	n/a	SPOON	-999	10	[0, 0, 0]	n/a	FR1	0	R1176M
2051.71	1.295	963762	REC_WORD	4.367	n/a	TIE	-999	10	[0, 0, 0]	n/a	FR1	0	R1176M
2053.005	2.308	964409	REC_WORD	5.662	n/a	FROG	-999	10	[0, 0, 0]	n/a	FR1	0	R1176M
2055.313	22.041	965563	REC_WORD	7.97	n/a	SMILE	-999	10	[0, 0, 0]	n/a	FR1	0	R1176M
2077.354	9.212	976582	REC_END	n/a	n/a	n/a	-999	10	[0, 0, 0]	n/a	FR1	0	R1176M
2086.566	0.0	981188	TRIAL	n/a	n/a	n/a	-999	11	[0, 0, 0]	n/a	FR1	0	R1176M
2086.566	10.0	981188	COUNTDOWN_START	n/a	n/a	n/a	-999	11	[0, 0, 0]	n/a	FR1	0	R1176M
2096.994	0.007	986401	COUNTDOWN_END	n/a	n/a	n/a	-999	11	[0, 0, 0]	n/a	FR1	0	R1176M
2097.001	1.6	986405	ORIENT	n/a	n/a	n/a	-999	11	[0, 0, 0]	n/a	FR1	0	R1176M
2099.586	1.6	987697	WORD	n/a	wordpools/wordpool_EN.txt	HILL	1	11	[0, 0, 0]	n/a	FR1	0	R1176M
2102.068	1.6	988938	WORD	n/a	wordpools/wordpool_EN.txt	CLOUD	2	11	[0, 0, 0]	n/a	FR1	0	R1176M
2104.553	1.6	990180	WORD	n/a	wordpools/wordpool_EN.txt	SHOE	3	11	[0, 0, 0]	n/a	FR1	0	R1176M
2107.169	1.6	991488	WORD	n/a	wordpools/wordpool_EN.txt	BOX	4	11	[0, 0, 0]	n/a	FR1	0	R1176M
2109.771	1.6	992789	WORD	n/a	wordpools/wordpool_EN.txt	RICE	5	11	[0, 0, 0]	n/a	FR1	0	R1176M
2112.254	1.6	994030	WORD	n/a	wordpools/wordpool_EN.txt	TOAST	6	11	[0, 0, 0]	n/a	FR1	0	R1176M
2114.855	1.6	995331	WORD	n/a	wordpools/wordpool_EN.txt	RAIN	7	11	[0, 0, 0]	n/a	FR1	0	R1176M
2117.372	1.6	996589	WORD	n/a	wordpools/wordpool_EN.txt	ELF	8	11	[0, 0, 0]	n/a	FR1	0	R1176M
2119.823	1.6	997815	WORD	n/a	wordpools/wordpool_EN.txt	FILM	9	11	[0, 0, 0]	n/a	FR1	0	R1176M
2122.307	1.6	999056	WORD	n/a	wordpools/wordpool_EN.txt	CHIN	10	11	[0, 0, 0]	n/a	FR1	0	R1176M
2124.924	1.6	1000365	WORD	n/a	wordpools/wordpool_EN.txt	SWAMP	11	11	[0, 0, 0]	n/a	FR1	0	R1176M
2127.524	1.6	1001665	WORD	n/a	wordpools/wordpool_EN.txt	SALT	12	11	[0, 0, 0]	n/a	FR1	0	R1176M
2129.14	0.001	1002473	DISTRACT_START	n/a	n/a	n/a	-999	11	[0, 0, 0]	n/a	FR1	0	R1176M
2129.141	0.016	1002473	START	n/a	n/a	n/a	-999	11	[-999, -999, -999]	n/a	FR1	0	R1176M
2129.157	4.285	1002481	PROB	4.255	n/a	n/a	-999	11	[6, 1, 5]	12.0	FR1	0	R1176M
2133.442	4.767	1004623	PROB	4.737	n/a	n/a	-999	11	[8, 7, 4]	13.0	FR1	0	R1176M
2138.209	1.85	1007007	PROB	1.825	n/a	n/a	-999	11	[2, 4, 6]	12.0	FR1	0	R1176M
2140.059	4.769	1007932	PROB	4.737	n/a	n/a	-999	11	[1, 7, 7]	15.0	FR1	0	R1176M
2144.828	3.383	1010316	PROB	3.359	n/a	n/a	-999	11	[2, 2, 3]	8.0	FR1	0	R1176M
2148.211	3.336	1012007	PROB	3.336	n/a	n/a	-999	11	[8, 5, 1]	14.0	FR1	0	R1176M
2151.547	0.015	1013675	STOP	n/a	n/a	n/a	-999	11	[-999, -999, -999]	n/a	FR1	0	R1176M
2151.562	1.118	1013682	DISTRACT_END	n/a	n/a	n/a	-999	11	[0, 0, 0]	n/a	FR1	0	R1176M
2152.68	1.592	1014241	REC_START	n/a	n/a	n/a	-999	11	[0, 0, 0]	n/a	FR1	0	R1176M
2154.272	1.225	1015037	REC_WORD	1.592	n/a	HILL	-999	11	[0, 0, 0]	n/a	FR1	0	R1176M
2155.497	1.543	1015650	REC_WORD	2.817	n/a	SHOE	-999	11	[0, 0, 0]	n/a	FR1	0	R1176M
2157.04	2.001	1016421	REC_WORD	4.36	n/a	CLOUD	-999	11	[0, 0, 0]	n/a	FR1	0	R1176M
2159.041	2.468	1017422	REC_WORD	6.361	n/a	BOX	-999	11	[0, 0, 0]	n/a	FR1	0	R1176M
2161.509	13.509	1018655	REC_WORD	8.829	n/a	SWEAT	-999	11	[0, 0, 0]	n/a	FR1	0	R1176M
2175.018	7.672	1025409	REC_WORD	22.338	n/a	RICE	-999	11	[0, 0, 0]	n/a	FR1	0	R1176M
2182.69	39.953	1029245	REC_END	n/a	n/a	n/a	-999	11	[0, 0, 0]	n/a	FR1	0	R1176M
2222.643	0.0	1049219	TRIAL	n/a	n/a	n/a	-999	12	[0, 0, 0]	n/a	FR1	0	R1176M
2222.643	10.0	1049219	COUNTDOWN_START	n/a	n/a	n/a	-999	12	[0, 0, 0]	n/a	FR1	0	R1176M
2233.071	0.006	1054433	COUNTDOWN_END	n/a	n/a	n/a	-999	12	[0, 0, 0]	n/a	FR1	0	R1176M
2233.077	1.6	1054436	ORIENT	n/a	n/a	n/a	-999	12	[0, 0, 0]	n/a	FR1	0	R1176M
2235.479	1.6	1055637	WORD	n/a	wordpools/wordpool_EN.txt	SUN	1	12	[0, 0, 0]	n/a	FR1	0	R1176M
2237.896	1.6	1056845	WORD	n/a	wordpools/wordpool_EN.txt	TOAD	2	12	[0, 0, 0]	n/a	FR1	0	R1176M
2240.329	1.6	1058061	WORD	n/a	wordpools/wordpool_EN.txt	SEA	3	12	[0, 0, 0]	n/a	FR1	0	R1176M
2242.947	1.6	1059370	WORD	n/a	wordpools/wordpool_EN.txt	SNOW	4	12	[0, 0, 0]	n/a	FR1	0	R1176M
2245.397	1.6	1060595	WORD	n/a	wordpools/wordpool_EN.txt	WOLF	5	12	[0, 0, 0]	n/a	FR1	0	R1176M
2247.997	1.6	1061895	WORD	n/a	wordpools/wordpool_EN.txt	SHIP	6	12	[0, 0, 0]	n/a	FR1	0	R1176M
2250.515	1.6	1063154	WORD	n/a	wordpools/wordpool_EN.txt	RIB	7	12	[0, 0, 0]	n/a	FR1	0	R1176M
2253.064	1.6	1064428	WORD	n/a	wordpools/wordpool_EN.txt	MOLE	8	12	[0, 0, 0]	n/a	FR1	0	R1176M
2255.582	1.6	1065687	WORD	n/a	wordpools/wordpool_EN.txt	MOTH	9	12	[0, 0, 0]	n/a	FR1	0	R1176M
2258.115	1.6	1066953	WORD	n/a	wordpools/wordpool_EN.txt	TEETH	10	12	[0, 0, 0]	n/a	FR1	0	R1176M
2260.617	1.6	1068204	WORD	n/a	wordpools/wordpool_EN.txt	FOX	11	12	[0, 0, 0]	n/a	FR1	0	R1176M
2263.066	1.6	1069429	WORD	n/a	wordpools/wordpool_EN.txt	BEAR	12	12	[0, 0, 0]	n/a	FR1	0	R1176M
2264.684	0.001	1070238	DISTRACT_START	n/a	n/a	n/a	-999	12	[0, 0, 0]	n/a	FR1	0	R1176M
2264.685	0.016	1070238	START	n/a	n/a	n/a	-999	12	[-999, -999, -999]	n/a	FR1	0	R1176M
2264.701	2.734	1070246	PROB	2.703	n/a	n/a	-999	12	[1, 6, 4]	11.0	FR1	0	R1176M
2267.435	3.599	1071613	PROB	3.568	n/a	n/a	-999	12	[5, 1, 4]	10.0	FR1	0	R1176M
2271.034	3.885	1073412	PROB	3.85	n/a	n/a	-999	12	[2, 9, 2]	13.0	FR1	0	R1176M
2274.919	2.417	1075355	PROB	2.388	n/a	n/a	-999	12	[5, 1, 2]	8.0	FR1	0	R1176M
2277.336	2.201	1076563	PROB	2.179	n/a	n/a	-999	12	[3, 6, 4]	13.0	FR1	0	R1176M
2279.537	2.784	1077663	PROB	2.762	n/a	n/a	-999	12	[1, 9, 6]	16.0	FR1	0	R1176M
2282.321	3.962	1079055	PROB	3.962	n/a	n/a	-999	12	[8, 9, 8]	25.0	FR1	0	R1176M
2286.283	0.004	1081036	STOP	n/a	n/a	n/a	-999	12	[-999, -999, -999]	n/a	FR1	0	R1176M
2286.287	1.036	1081038	DISTRACT_END	n/a	n/a	n/a	-999	12	[0, 0, 0]	n/a	FR1	0	R1176M
2287.323	1.73	1081556	REC_START	n/a	n/a	n/a	-999	12	[0, 0, 0]	n/a	FR1	0	R1176M
2289.053	1.245	1082421	REC_WORD	1.73	n/a	SUN	-999	12	[0, 0, 0]	n/a	FR1	0	R1176M
2290.298	2.968	1083043	REC_WORD	2.975	n/a	SNOW	-999	12	[0, 0, 0]	n/a	FR1	0	R1176M
2293.266	1.045	1084527	REC_WORD	5.943	n/a	BEAR	-999	12	[0, 0, 0]	n/a	FR1	0	R1176M
2294.311	23.022	1085050	REC_WORD	6.988	n/a	FOX	-999	12	[0, 0, 0]	n/a	FR1	0	R1176M
2317.333	19.265	1096559	REC_END	n/a	n/a	n/a	-999	12	[0, 0, 0]	n/a	FR1	0	R1176M
2336.598	0.0	1106191	TRIAL	n/a	n/a	n/a	-999	13	[0, 0, 0]	n/a	FR1	0	R1176M
2336.598	10.0	1106191	COUNTDOWN_START	n/a	n/a	n/a	-999	13	[0, 0, 0]	n/a	FR1	0	R1176M
2347.026	0.006	1111404	COUNTDOWN_END	n/a	n/a	n/a	-999	13	[0, 0, 0]	n/a	FR1	0	R1176M
2347.032	1.6	1111407	ORIENT	n/a	n/a	n/a	-999	13	[0, 0, 0]	n/a	FR1	0	R1176M
2349.45	1.6	1112616	WORD	n/a	wordpools/wordpool_EN.txt	BALL	1	13	[0, 0, 0]	n/a	FR1	0	R1176M
2352.05	1.6	1113916	WORD	n/a	wordpools/wordpool_EN.txt	GLOVE	2	13	[0, 0, 0]	n/a	FR1	0	R1176M
2354.485	1.6	1115133	WORD	n/a	wordpools/wordpool_EN.txt	DRUM	3	13	[0, 0, 0]	n/a	FR1	0	R1176M
2356.902	1.6	1116342	WORD	n/a	wordpools/wordpool_EN.txt	PALM	4	13	[0, 0, 0]	n/a	FR1	0	R1176M
2359.319	1.6	1117550	WORD	n/a	wordpools/wordpool_EN.txt	PLATE	5	13	[0, 0, 0]	n/a	FR1	0	R1176M
2361.72	1.6	1118751	WORD	n/a	wordpools/wordpool_EN.txt	PRINCE	6	13	[0, 0, 0]	n/a	FR1	0	R1176M
2364.186	1.6	1119983	WORD	n/a	wordpools/wordpool_EN.txt	CHAIR	7	13	[0, 0, 0]	n/a	FR1	0	R1176M
2366.721	1.6	1121251	WORD	n/a	wordpools/wordpool_EN.txt	NET	8	13	[0, 0, 0]	n/a	FR1	0	R1176M
2369.103	1.6	1122442	WORD	n/a	wordpools/wordpool_EN.txt	TREE	9	13	[0, 0, 0]	n/a	FR1	0	R1176M
2371.688	1.6	1123734	WORD	n/a	wordpools/wordpool_EN.txt	VASE	10	13	[0, 0, 0]	n/a	FR1	0	R1176M
2374.221	1.6	1125000	WORD	n/a	wordpools/wordpool_EN.txt	SHARK	11	13	[0, 0, 0]	n/a	FR1	0	R1176M
2376.589	1.6	1126184	WORD	n/a	wordpools/wordpool_EN.txt	COIN	12	13	[0, 0, 0]	n/a	FR1	0	R1176M
2378.205	0.001	1126992	DISTRACT_START	n/a	n/a	n/a	-999	13	[0, 0, 0]	n/a	FR1	0	R1176M
2378.206	0.016	1126993	START	n/a	n/a	n/a	-999	13	[-999, -999, -999]	n/a	FR1	0	R1176M
2378.222	7.202	1127001	PROB	7.173	n/a	n/a	-999	13	[2, 4, 4]	10.0	FR1	0	R1176M
2385.424	1.984	1130601	PROB	1.948	n/a	n/a	-999	13	[2, 2, 8]	12.0	FR1	0	R1176M
2387.408	3.883	1131593	PROB	3.85	n/a	n/a	-999	13	[6, 3, 6]	15.0	FR1	0	R1176M
2391.291	4.552	1133535	PROB	4.528	n/a	n/a	-999	13	[9, 6, 4]	21.0	FR1	0	R1176M
2395.843	3.833	1135810	PROB	3.833	n/a	n/a	-999	13	[6, 1, 9]	16.0	FR1	0	R1176M
2399.676	0.017	1137727	STOP	n/a	n/a	n/a	-999	13	[-999, -999, -999]	n/a	FR1	0	R1176M
2399.693	1.135	1137735	DISTRACT_END	n/a	n/a	n/a	-999	13	[0, 0, 0]	n/a	FR1	0	R1176M
2400.828	4.233	1138303	REC_START	n/a	n/a	n/a	-999	13	[0, 0, 0]	n/a	FR1	0	R1176M
2405.061	1.316	1140419	REC_WORD	4.233	n/a	BALL	-999	13	[0, 0, 0]	n/a	FR1	0	R1176M
2406.377	1.294	1141077	REC_WORD	5.549	n/a	GLOVE	-999	13	[0, 0, 0]	n/a	FR1	0	R1176M
2407.671	1.632	1141724	REC_WORD	6.843	n/a	PRINCE	-999	13	[0, 0, 0]	n/a	FR1	0	R1176M
2409.303	21.535	1142540	REC_WORD	8.475	n/a	TREE	-999	13	[0, 0, 0]	n/a	FR1	0	R1176M
2430.838	4.979	1153306	REC_END	n/a	n/a	n/a	-999	13	[0, 0, 0]	n/a	FR1	0	R1176M
2435.817	0.0	1155795	TRIAL	n/a	n/a	n/a	-999	14	[0, 0, 0]	n/a	FR1	0	R1176M
2435.817	10.0	1155795	COUNTDOWN_START	n/a	n/a	n/a	-999	14	[0, 0, 0]	n/a	FR1	0	R1176M
2446.245	0.007	1161009	COUNTDOWN_END	n/a	n/a	n/a	-999	14	[0, 0, 0]	n/a	FR1	0	R1176M
2446.252	1.6	1161012	ORIENT	n/a	n/a	n/a	-999	14	[0, 0, 0]	n/a	FR1	0	R1176M
2448.753	1.6	1162263	WORD	n/a	wordpools/wordpool_EN.txt	MUG	1	14	[0, 0, 0]	n/a	FR1	0	R1176M
2451.269	1.6	1163520	WORD	n/a	wordpools/wordpool_EN.txt	TRUCK	2	14	[0, 0, 0]	n/a	FR1	0	R1176M
2453.721	1.6	1164746	WORD	n/a	wordpools/wordpool_EN.txt	STOOL	3	14	[0, 0, 0]	n/a	FR1	0	R1176M
2456.187	1.6	1165979	WORD	n/a	wordpools/wordpool_EN.txt	PURSE	4	14	[0, 0, 0]	n/a	FR1	0	R1176M
2458.622	1.6	1167197	WORD	n/a	wordpools/wordpool_EN.txt	SHELL	5	14	[0, 0, 0]	n/a	FR1	0	R1176M
2461.054	1.6	1168412	WORD	n/a	wordpools/wordpool_EN.txt	PEARL	6	14	[0, 0, 0]	n/a	FR1	0	R1176M
2463.523	1.6	1169647	WORD	n/a	wordpools/wordpool_EN.txt	MAZE	7	14	[0, 0, 0]	n/a	FR1	0	R1176M
2465.989	1.6	1170880	WORD	n/a	wordpools/wordpool_EN.txt	FLOOR	8	14	[0, 0, 0]	n/a	FR1	0	R1176M
2468.373	1.6	1172072	WORD	n/a	wordpools/wordpool_EN.txt	VAN	9	14	[0, 0, 0]	n/a	FR1	0	R1176M
2470.99	1.6	1173380	WORD	n/a	wordpools/wordpool_EN.txt	HOOK	10	14	[0, 0, 0]	n/a	FR1	0	R1176M
2473.374	1.6	1174572	WORD	n/a	wordpools/wordpool_EN.txt	PEA	11	14	[0, 0, 0]	n/a	FR1	0	R1176M
2475.758	1.6	1175764	WORD	n/a	wordpools/wordpool_EN.txt	CLOWN	12	14	[0, 0, 0]	n/a	FR1	0	R1176M
2477.375	0.001	1176572	DISTRACT_START	n/a	n/a	n/a	-999	14	[0, 0, 0]	n/a	FR1	0	R1176M
2477.376	0.016	1176573	START	n/a	n/a	n/a	-999	14	[-999, -999, -999]	n/a	FR1	0	R1176M
2477.392	3.9	1176581	PROB	3.867	n/a	n/a	-999	14	[9, 2, 7]	18.0	FR1	0	R1176M
2481.292	3.085	1178530	PROB	3.056	n/a	n/a	-999	14	[4, 1, 5]	10.0	FR1	0	R1176M
2484.377	2.749	1180073	PROB	2.714	n/a	n/a	-999	14	[7, 8, 1]	16.0	FR1	0	R1176M
2487.126	2.452	1181447	PROB	2.421	n/a	n/a	-999	14	[3, 9, 1]	13.0	FR1	0	R1176M
2489.578	4.533	1182673	PROB	4.505	n/a	n/a	-999	14	[6, 1, 7]	14.0	FR1	0	R1176M
2494.111	3.549	1184939	PROB	3.549	n/a	n/a	-999	14	[9, 5, 4]	18.0	FR1	0	R1176M
2497.66	0.019	1186714	STOP	n/a	n/a	n/a	-999	14	[-999, -999, -999]	n/a	FR1	0	R1176M
2497.679	1.184	1186723	DISTRACT_END	n/a	n/a	n/a	-999	14	[0, 0, 0]	n/a	FR1	0	R1176M
2498.863	2.994	1187315	REC_START	n/a	n/a	n/a	-999	14	[0, 0, 0]	n/a	FR1	0	R1176M
2501.857	1.921	1188812	REC_WORD	2.994	n/a	TRUCK	-999	14	[0, 0, 0]	n/a	FR1	0	R1176M
2503.778	0.96	1189772	REC_WORD	4.915	n/a	PURSE	-999	14	[0, 0, 0]	n/a	FR1	0	R1176M
2504.738	24.139	1190252	REC_WORD	5.875	n/a	PEARL	-999	14	[0, 0, 0]	n/a	FR1	0	R1176M
2528.877	8.043	1202320	REC_END	n/a	n/a	n/a	-999	14	[0, 0, 0]	n/a	FR1	0	R1176M
2536.92	0.0	1206342	TRIAL	n/a	n/a	n/a	-999	15	[0, 0, 0]	n/a	FR1	0	R1176M
2536.92	10.0	1206342	COUNTDOWN_START	n/a	n/a	n/a	-999	15	[0, 0, 0]	n/a	FR1	0	R1176M
2547.348	0.007	1211555	COUNTDOWN_END	n/a	n/a	n/a	-999	15	[0, 0, 0]	n/a	FR1	0	R1176M
2547.355	1.6	1211558	ORIENT	n/a	n/a	n/a	-999	15	[0, 0, 0]	n/a	FR1	0	R1176M
2549.889	1.6	1212825	WORD	n/a	wordpools/wordpool_EN.txt	SOAP	1	15	[0, 0, 0]	n/a	FR1	0	R1176M
2552.406	1.6	1214084	WORD	n/a	wordpools/wordpool_EN.txt	GRAPE	2	15	[0, 0, 0]	n/a	FR1	0	R1176M
2554.823	1.6	1215292	WORD	n/a	wordpools/wordpool_EN.txt	FLUTE	3	15	[0, 0, 0]	n/a	FR1	0	R1176M
2557.407	1.6	1216584	WORD	n/a	wordpools/wordpool_EN.txt	BENCH	4	15	[0, 0, 0]	n/a	FR1	0	R1176M
2560.023	1.6	1217892	WORD	n/a	wordpools/wordpool_EN.txt	FAN	5	15	[0, 0, 0]	n/a	FR1	0	R1176M
2562.542	1.6	1219151	WORD	n/a	wordpools/wordpool_EN.txt	JUICE	6	15	[0, 0, 0]	n/a	FR1	0	R1176M
2565.074	1.6	1220417	WORD	n/a	wordpools/wordpool_EN.txt	FRUIT	7	15	[0, 0, 0]	n/a	FR1	0	R1176M
2567.509	1.6	1221634	WORD	n/a	wordpools/wordpool_EN.txt	COUCH	8	15	[0, 0, 0]	n/a	FR1	0	R1176M
2569.91	1.6	1222835	WORD	n/a	wordpools/wordpool_EN.txt	GLASS	9	15	[0, 0, 0]	n/a	FR1	0	R1176M
2572.344	1.6	1224052	WORD	n/a	wordpools/wordpool_EN.txt	BOWL	10	15	[0, 0, 0]	n/a	FR1	0	R1176M
2574.777	1.6	1225268	WORD	n/a	wordpools/wordpool_EN.txt	BOOT	11	15	[0, 0, 0]	n/a	FR1	0	R1176M
2577.243	1.6	1226501	WORD	n/a	wordpools/wordpool_EN.txt	CANE	12	15	[0, 0, 0]	n/a	FR1	0	R1176M
2578.845	0.001	1227302	DISTRACT_START	n/a	n/a	n/a	-999	15	[0, 0, 0]	n/a	FR1	0	R1176M
2578.846	0.015	1227302	START	n/a	n/a	n/a	-999	15	[-999, -999, -999]	n/a	FR1	0	R1176M
2578.861	5.15	1227310	PROB	5.125	n/a	n/a	-999	15	[4, 2, 5]	10.0	FR1	0	R1176M
2584.011	3.852	1229885	PROB	3.825	n/a	n/a	-999	15	[7, 4, 5]	17.0	FR1	0	R1176M
2587.863	5.068	1231810	PROB	5.045	n/a	n/a	-999	15	[8, 7, 6]	25.0	FR1	0	R1176M
2592.931	7.664	1234344	PROB	7.664	n/a	n/a	-999	15	[4, 8, 1]	15.0	FR1	0	R1176M
2600.595	0.004	1238176	STOP	n/a	n/a	n/a	-999	15	[-999, -999, -999]	n/a	FR1	0	R1176M
2600.599	1.184	1238178	DISTRACT_END	n/a	n/a	n/a	-999	15	[0, 0, 0]	n/a	FR1	0	R1176M
2601.783	17.315	1238770	REC_START	n/a	n/a	n/a	-999	15	[0, 0, 0]	n/a	FR1	0	R1176M
2619.098	9.539	1247426	REC_WORD	17.315	n/a	SOUP	-999	15	[0, 0, 0]	n/a	FR1	0	R1176M
2628.637	3.156	1252195	REC_WORD	26.854	n/a	BOWL	-999	15	[0, 0, 0]	n/a	FR1	0	R1176M
2631.793	33.702	1253773	REC_END	n/a	n/a	n/a	-999	15	[0, 0, 0]	n/a	FR1	0	R1176M
2665.495	0.0	1270622	TRIAL	n/a	n/a	n/a	-999	16	[0, 0, 0]	n/a	FR1	0	R1176M
2665.495	10.0	1270622	COUNTDOWN_START	n/a	n/a	n/a	-999	16	[0, 0, 0]	n/a	FR1	0	R1176M
2675.923	0.007	1275836	COUNTDOWN_END	n/a	n/a	n/a	-999	16	[0, 0, 0]	n/a	FR1	0	R1176M
2675.93	1.6	1275839	ORIENT	n/a	n/a	n/a	-999	16	[0, 0, 0]	n/a	FR1	0	R1176M
2678.347	1.6	1277048	WORD	n/a	wordpools/wordpool_EN.txt	BRUSH	1	16	[0, 0, 0]	n/a	FR1	0	R1176M
2680.748	1.6	1278248	WORD	n/a	wordpools/wordpool_EN.txt	FLAME	2	16	[0, 0, 0]	n/a	FR1	0	R1176M
2683.315	1.6	1279531	WORD	n/a	wordpools/wordpool_EN.txt	STICK	3	16	[0, 0, 0]	n/a	FR1	0	R1176M
2685.832	1.6	1280790	WORD	n/a	wordpools/wordpool_EN.txt	ROSE	4	16	[0, 0, 0]	n/a	FR1	0	R1176M
2688.366	1.6	1282057	WORD	n/a	wordpools/wordpool_EN.txt	POND	5	16	[0, 0, 0]	n/a	FR1	0	R1176M
2690.966	1.6	1283357	WORD	n/a	wordpools/wordpool_EN.txt	PARK	6	16	[0, 0, 0]	n/a	FR1	0	R1176M
2693.534	1.6	1284640	WORD	n/a	wordpools/wordpool_EN.txt	SLIME	7	16	[0, 0, 0]	n/a	FR1	0	R1176M
2696.016	1.6	1285881	WORD	n/a	wordpools/wordpool_EN.txt	DEER	8	16	[0, 0, 0]	n/a	FR1	0	R1176M
2698.585	1.6	1287166	WORD	n/a	wordpools/wordpool_EN.txt	LIP	9	16	[0, 0, 0]	n/a	FR1	0	R1176M
2701.151	1.6	1288448	WORD	n/a	wordpools/wordpool_EN.txt	MAT	10	16	[0, 0, 0]	n/a	FR1	0	R1176M
2703.752	1.6	1289749	WORD	n/a	wordpools/wordpool_EN.txt	CLIFF	11	16	[0, 0, 0]	n/a	FR1	0	R1176M
2706.152	1.6	1290949	WORD	n/a	wordpools/wordpool_EN.txt	JAR	12	16	[0, 0, 0]	n/a	FR1	0	R1176M
2707.77	0.001	1291758	DISTRACT_START	n/a	n/a	n/a	-999	16	[0, 0, 0]	n/a	FR1	0	R1176M
2707.771	0.016	1291758	START	n/a	n/a	n/a	-999	16	[-999, -999, -999]	n/a	FR1	0	R1176M
2707.787	6.5	1291766	PROB	6.479	n/a	n/a	-999	16	[3, 5, 9]	16.0	FR1	0	R1176M
2714.287	2.983	1295016	PROB	2.956	n/a	n/a	-999	16	[7, 5, 7]	19.0	FR1	0	R1176M
2717.27	2.635	1296507	PROB	2.614	n/a	n/a	-999	16	[2, 5, 7]	14.0	FR1	0	R1176M
2719.905	3.233	1297825	PROB	3.202	n/a	n/a	-999	16	[5, 8, 8]	21.0	FR1	0	R1176M
2723.138	2.418	1299441	PROB	2.393	n/a	n/a	-999	16	[4, 4, 4]	12.0	FR1	0	R1176M
2725.556	4.888	1300650	PROB	4.888	n/a	n/a	-999	16	[6, 2, 1]	9.0	FR1	0	R1176M
2730.444	0.013	1303093	STOP	n/a	n/a	n/a	-999	16	[-999, -999, -999]	n/a	FR1	0	R1176M
2730.457	1.201	1303100	DISTRACT_END	n/a	n/a	n/a	-999	16	[0, 0, 0]	n/a	FR1	0	R1176M
2731.658	3.895	1303700	REC_START	n/a	n/a	n/a	-999	16	[0, 0, 0]	n/a	FR1	0	R1176M
2735.553	0.715	1305648	REC_WORD	3.895	n/a	BRUSH	-999	16	[0, 0, 0]	n/a	FR1	0	R1176M
2736.268	1.164	1306005	REC_WORD	4.61	n/a	ROSE	-999	16	[0, 0, 0]	n/a	FR1	0	R1176M
2737.432	24.24	1306587	REC_WORD	5.774	n/a	STICK	-999	16	[0, 0, 0]	n/a	FR1	0	R1176M
2761.672	19.578	1318706	REC_END	n/a	n/a	n/a	-999	16	[0, 0, 0]	n/a	FR1	0	R1176M
2781.25	10.0	1328494	COUNTDOWN_START	n/a	n/a	n/a	-999	17	[0, 0, 0]	n/a	FR1	0	R1176M
2781.25	10.428	1328494	TRIAL	n/a	n/a	n/a	-999	17	[0, 0, 0]	n/a	FR1	0	R1176M
2791.678	0.008	1333707	COUNTDOWN_END	n/a	n/a	n/a	-999	17	[0, 0, 0]	n/a	FR1	0	R1176M
2791.686	1.6	1333711	ORIENT	n/a	n/a	n/a	-999	17	[0, 0, 0]	n/a	FR1	0	R1176M
2794.135	1.6	1334936	WORD	n/a	wordpools/wordpool_EN.txt	BLOOM	1	17	[0, 0, 0]	n/a	FR1	0	R1176M
2796.537	1.6	1336137	WORD	n/a	wordpools/wordpool_EN.txt	BROOM	2	17	[0, 0, 0]	n/a	FR1	0	R1176M
2799.003	1.6	1337369	WORD	n/a	wordpools/wordpool_EN.txt	BRANCH	3	17	[0, 0, 0]	n/a	FR1	0	R1176M
2801.554	1.6	1338645	WORD	n/a	wordpools/wordpool_EN.txt	ROAD	4	17	[0, 0, 0]	n/a	FR1	0	R1176M
2804.087	1.6	1339911	WORD	n/a	wordpools/wordpool_EN.txt	OAK	5	17	[0, 0, 0]	n/a	FR1	0	R1176M
2806.689	1.6	1341212	WORD	n/a	wordpools/wordpool_EN.txt	GRASS	6	17	[0, 0, 0]	n/a	FR1	0	R1176M
2809.288	1.6	1342511	WORD	n/a	wordpools/wordpool_EN.txt	VINE	7	17	[0, 0, 0]	n/a	FR1	0	R1176M
2811.756	1.6	1343745	WORD	n/a	wordpools/wordpool_EN.txt	STRAW	8	17	[0, 0, 0]	n/a	FR1	0	R1176M
2814.139	1.6	1344937	WORD	n/a	wordpools/wordpool_EN.txt	ROPE	9	17	[0, 0, 0]	n/a	FR1	0	R1176M
2816.591	1.6	1346163	WORD	n/a	wordpools/wordpool_EN.txt	PANTS	10	17	[0, 0, 0]	n/a	FR1	0	R1176M
2818.975	1.6	1347354	WORD	n/a	wordpools/wordpool_EN.txt	PEACH	11	17	[0, 0, 0]	n/a	FR1	0	R1176M
2821.525	1.6	1348629	WORD	n/a	wordpools/wordpool_EN.txt	WEED	12	17	[0, 0, 0]	n/a	FR1	0	R1176M
2823.141	0.001	1349437	DISTRACT_START	n/a	n/a	n/a	-999	17	[0, 0, 0]	n/a	FR1	0	R1176M
2823.142	0.016	1349438	START	n/a	n/a	n/a	-999	17	[-999, -999, -999]	n/a	FR1	0	R1176M
2823.158	4.768	1349446	PROB	4.734	n/a	n/a	-999	17	[4, 5, 9]	18.0	FR1	0	R1176M
2827.926	2.467	1351829	PROB	2.437	n/a	n/a	-999	17	[1, 7, 9]	17.0	FR1	0	R1176M
2830.393	3.918	1353063	PROB	3.882	n/a	n/a	-999	17	[7, 5, 2]	13.0	FR1	0	R1176M
2834.311	3.484	1355022	PROB	3.452	n/a	n/a	-999	17	[4, 7, 5]	17.0	FR1	0	R1176M
2837.795	3.266	1356763	PROB	3.239	n/a	n/a	-999	17	[2, 6, 7]	14.0	FR1	0	R1176M
2841.061	3.599	1358396	PROB	3.599	n/a	n/a	-999	17	[1, 2, 8]	11.0	FR1	0	R1176M
2844.66	0.019	1360196	STOP	n/a	n/a	n/a	-999	17	[-999, -999, -999]	n/a	FR1	0	R1176M
2844.679	1.118	1360205	DISTRACT_END	n/a	n/a	n/a	-999	17	[0, 0, 0]	n/a	FR1	0	R1176M
2845.797	1.397	1360764	REC_START	n/a	n/a	n/a	-999	17	[0, 0, 0]	n/a	FR1	0	R1176M
2847.194	1.209	1361462	REC_WORD	1.397	n/a	BLOOM	-999	17	[0, 0, 0]	n/a	FR1	0	R1176M
2848.403	4.903	1362067	REC_WORD	2.606	n/a	BROOM	-999	17	[0, 0, 0]	n/a	FR1	0	R1176M
2853.306	0.718	1364518	REC_WORD	7.509	n/a	GRASS	-999	17	[0, 0, 0]	n/a	FR1	0	R1176M
2854.024	4.317	1364877	REC_WORD	8.227	n/a	STRAW	-999	17	[0, 0, 0]	n/a	FR1	0	R1176M
2858.341	17.466	1367035	REC_WORD	12.544	n/a	BRANCH	-999	17	[0, 0, 0]	n/a	FR1	0	R1176M
2875.807	6.896	1375767	REC_END	n/a	n/a	n/a	-999	17	[0, 0, 0]	n/a	FR1	0	R1176M
2882.703	10.0	1379215	COUNTDOWN_START	n/a	n/a	n/a	-999	18	[0, 0, 0]	n/a	FR1	0	R1176M
2882.704	10.427	1379216	TRIAL	n/a	n/a	n/a	-999	18	[0, 0, 0]	n/a	FR1	0	R1176M
2893.131	0.007	1384429	COUNTDOWN_END	n/a	n/a	n/a	-999	18	[0, 0, 0]	n/a	FR1	0	R1176M
2893.138	1.6	1384432	ORIENT	n/a	n/a	n/a	-999	18	[0, 0, 0]	n/a	FR1	0	R1176M
2895.772	1.6	1385749	WORD	n/a	wordpools/wordpool_EN.txt	PIPE	1	18	[0, 0, 0]	n/a	FR1	0	R1176M
2898.205	1.6	1386965	WORD	n/a	wordpools/wordpool_EN.txt	STRING	2	18	[0, 0, 0]	n/a	FR1	0	R1176M
2900.64	1.6	1388183	WORD	n/a	wordpools/wordpool_EN.txt	ROOM	3	18	[0, 0, 0]	n/a	FR1	0	R1176M
2903.023	1.6	1389374	WORD	n/a	wordpools/wordpool_EN.txt	DART	4	18	[0, 0, 0]	n/a	FR1	0	R1176M
2905.641	1.6	1390683	WORD	n/a	wordpools/wordpool_EN.txt	BAND	5	18	[0, 0, 0]	n/a	FR1	0	R1176M
2908.191	1.6	1391958	WORD	n/a	wordpools/wordpool_EN.txt	CHEEK	6	18	[0, 0, 0]	n/a	FR1	0	R1176M
2910.759	1.6	1393242	WORD	n/a	wordpools/wordpool_EN.txt	NEST	7	18	[0, 0, 0]	n/a	FR1	0	R1176M
2913.359	1.6	1394542	WORD	n/a	wordpools/wordpool_EN.txt	HAT	8	18	[0, 0, 0]	n/a	FR1	0	R1176M
2915.743	1.6	1395733	WORD	n/a	wordpools/wordpool_EN.txt	DOLL	9	18	[0, 0, 0]	n/a	FR1	0	R1176M
2918.36	1.6	1397042	WORD	n/a	wordpools/wordpool_EN.txt	BIRD	10	18	[0, 0, 0]	n/a	FR1	0	R1176M
2920.894	1.6	1398309	WORD	n/a	wordpools/wordpool_EN.txt	CRANE	11	18	[0, 0, 0]	n/a	FR1	0	R1176M
2923.311	1.6	1399517	WORD	n/a	wordpools/wordpool_EN.txt	TAIL	12	18	[0, 0, 0]	n/a	FR1	0	R1176M
2924.928	0.001	1400325	DISTRACT_START	n/a	n/a	n/a	-999	18	[0, 0, 0]	n/a	FR1	0	R1176M
2924.929	0.016	1400326	START	n/a	n/a	n/a	-999	18	[-999, -999, -999]	n/a	FR1	0	R1176M
2924.945	2.9	1400334	PROB	2.866	n/a	n/a	-999	18	[7, 7, 3]	13.0	FR1	0	R1176M
2927.845	2.417	1401784	PROB	2.382	n/a	n/a	-999	18	[5, 9, 2]	16.0	FR1	0	R1176M
2930.262	3.085	1402992	PROB	3.053	n/a	n/a	-999	18	[7, 4, 3]	14.0	FR1	0	R1176M
2933.347	3.384	1404534	PROB	3.361	n/a	n/a	-999	18	[7, 1, 6]	14.0	FR1	0	R1176M
2936.731	4.549	1406226	PROB	4.52	n/a	n/a	-999	18	[9, 3, 5]	17.0	FR1	0	R1176M
2941.28	4.251	1408501	PROB	4.251	n/a	n/a	-999	18	[8, 1, 7]	16.0	FR1	0	R1176M
2945.531	0.018	1410626	STOP	n/a	n/a	n/a	-999	18	[-999, -999, -999]	n/a	FR1	0	R1176M
2945.549	1.067	1410635	DISTRACT_END	n/a	n/a	n/a	-999	18	[0, 0, 0]	n/a	FR1	0	R1176M
2946.616	1.52	1411168	REC_START	n/a	n/a	n/a	-999	18	[0, 0, 0]	n/a	FR1	0	R1176M
2948.136	0.646	1411928	REC_WORD	1.52	n/a	PIPE	-999	18	[0, 0, 0]	n/a	FR1	0	R1176M
2948.782	1.507	1412251	REC_WORD	2.166	n/a	STRING	-999	18	[0, 0, 0]	n/a	FR1	0	R1176M
2950.289	2.83	1413005	REC_WORD	3.673	n/a	ROOM	-999	18	[0, 0, 0]	n/a	FR1	0	R1176M
2953.119	6.245	1414419	REC_WORD	6.503	n/a	BIRD	-999	18	[0, 0, 0]	n/a	FR1	0	R1176M
2959.364	6.826	1417542	REC_WORD	12.748	n/a	CRANE	-999	18	[0, 0, 0]	n/a	FR1	0	R1176M
2966.19	10.44	1420954	REC_WORD	19.574	n/a	HAT	-999	18	[0, 0, 0]	n/a	FR1	0	R1176M
2976.63	42.667	1426174	REC_END	n/a	n/a	n/a	-999	18	[0, 0, 0]	n/a	FR1	0	R1176M
3019.297	0.0	1447505	TRIAL	n/a	n/a	n/a	-999	19	[0, 0, 0]	n/a	FR1	0	R1176M
3019.297	10.0	1447505	COUNTDOWN_START	n/a	n/a	n/a	-999	19	[0, 0, 0]	n/a	FR1	0	R1176M
3029.725	0.007	1452718	COUNTDOWN_END	n/a	n/a	n/a	-999	19	[0, 0, 0]	n/a	FR1	0	R1176M
3029.732	1.6	1452722	ORIENT	n/a	n/a	n/a	-999	19	[0, 0, 0]	n/a	FR1	0	R1176M
3032.316	1.6	1454014	WORD	n/a	wordpools/wordpool_EN.txt	MULE	1	19	[0, 0, 0]	n/a	FR1	0	R1176M
3034.733	1.6	1455222	WORD	n/a	wordpools/wordpool_EN.txt	STORM	2	19	[0, 0, 0]	n/a	FR1	0	R1176M
3037.149	1.6	1456430	WORD	n/a	wordpools/wordpool_EN.txt	HEN	3	19	[0, 0, 0]	n/a	FR1	0	R1176M
3039.733	1.6	1457722	WORD	n/a	wordpools/wordpool_EN.txt	EGG	4	19	[0, 0, 0]	n/a	FR1	0	R1176M
3042.267	1.6	1458989	WORD	n/a	wordpools/wordpool_EN.txt	SKI	5	19	[0, 0, 0]	n/a	FR1	0	R1176M
3044.735	1.6	1460223	WORD	n/a	wordpools/wordpool_EN.txt	PEN	6	19	[0, 0, 0]	n/a	FR1	0	R1176M
3047.168	1.6	1461439	WORD	n/a	wordpools/wordpool_EN.txt	FORT	7	19	[0, 0, 0]	n/a	FR1	0	R1176M
3049.786	1.6	1462748	WORD	n/a	wordpools/wordpool_EN.txt	BEAK	8	19	[0, 0, 0]	n/a	FR1	0	R1176M
3052.168	1.6	1463939	WORD	n/a	wordpools/wordpool_EN.txt	SAIL	9	19	[0, 0, 0]	n/a	FR1	0	R1176M
3054.62	1.6	1465165	WORD	n/a	wordpools/wordpool_EN.txt	FARM	10	19	[0, 0, 0]	n/a	FR1	0	R1176M
3057.003	1.6	1466356	WORD	n/a	wordpools/wordpool_EN.txt	FUR	11	19	[0, 0, 0]	n/a	FR1	0	R1176M
3059.571	1.6	1467640	WORD	n/a	wordpools/wordpool_EN.txt	TRAIN	12	19	[0, 0, 0]	n/a	FR1	0	R1176M
3061.187	0.001	1468448	DISTRACT_START	n/a	n/a	n/a	-999	19	[0, 0, 0]	n/a	FR1	0	R1176M
3061.188	0.016	1468448	START	n/a	n/a	n/a	-999	19	[-999, -999, -999]	n/a	FR1	0	R1176M
3061.204	7.602	1468456	PROB	7.576	n/a	n/a	-999	19	[4, 8, 7]	19.0	FR1	0	R1176M
3068.806	3.25	1472257	PROB	3.229	n/a	n/a	-999	19	[1, 3, 8]	12.0	FR1	0	R1176M
3072.056	2.301	1473882	PROB	2.276	n/a	n/a	-999	19	[9, 1, 6]	16.0	FR1	0	R1176M
3074.357	3.251	1475032	PROB	3.215	n/a	n/a	-999	19	[7, 2, 8]	17.0	FR1	0	R1176M
3077.608	2.9	1476658	PROB	2.875	n/a	n/a	-999	19	[1, 6, 4]	11.0	FR1	0	R1176M
3080.508	4.216	1478107	PROB	4.216	n/a	n/a	-999	19	[7, 9, 4]	20.0	FR1	0	R1176M
3084.724	0.018	1480215	STOP	n/a	n/a	n/a	-999	19	[-999, -999, -999]	n/a	FR1	0	R1176M
3084.742	1.185	1480224	DISTRACT_END	n/a	n/a	n/a	-999	19	[0, 0, 0]	n/a	FR1	0	R1176M
3085.927	0.909	1480817	REC_START	n/a	n/a	n/a	-999	19	[0, 0, 0]	n/a	FR1	0	R1176M
3086.836	0.674	1481271	REC_WORD	0.909	n/a	MULE	-999	19	[0, 0, 0]	n/a	FR1	0	R1176M
3087.51	1.938	1481608	REC_WORD	1.583	n/a	STORM	-999	19	[0, 0, 0]	n/a	FR1	0	R1176M
3089.448	1.992	1482577	REC_WORD	3.521	n/a	HEN	-999	19	[0, 0, 0]	n/a	FR1	0	R1176M
3091.44	2.013	1483573	REC_WORD	5.513	n/a	EGG	-999	19	[0, 0, 0]	n/a	FR1	0	R1176M
3093.453	1.156	1484579	REC_WORD	7.526	n/a	BEAK	-999	19	[0, 0, 0]	n/a	FR1	0	R1176M
3094.609	21.328	1485157	REC_WORD	8.682	n/a	FARM	-999	19	[0, 0, 0]	n/a	FR1	0	R1176M
3115.937	28.834	1495820	REC_END	n/a	n/a	n/a	-999	19	[0, 0, 0]	n/a	FR1	0	R1176M
3144.771	0.0	1510236	TRIAL	n/a	n/a	n/a	-999	20	[0, 0, 0]	n/a	FR1	0	R1176M
3144.771	10.0	1510236	COUNTDOWN_START	n/a	n/a	n/a	-999	20	[0, 0, 0]	n/a	FR1	0	R1176M
3155.199	0.006	1515449	COUNTDOWN_END	n/a	n/a	n/a	-999	20	[0, 0, 0]	n/a	FR1	0	R1176M
3155.205	1.6	1515452	ORIENT	n/a	n/a	n/a	-999	20	[0, 0, 0]	n/a	FR1	0	R1176M
3157.74	1.6	1516719	WORD	n/a	wordpools/wordpool_EN.txt	TEA	1	20	[0, 0, 0]	n/a	FR1	0	R1176M
3160.156	1.6	1517927	WORD	n/a	wordpools/wordpool_EN.txt	SHRIMP	2	20	[0, 0, 0]	n/a	FR1	0	R1176M
3162.574	1.6	1519136	WORD	n/a	wordpools/wordpool_EN.txt	LAMP	3	20	[0, 0, 0]	n/a	FR1	0	R1176M
3165.19	1.6	1520444	WORD	n/a	wordpools/wordpool_EN.txt	SUIT	4	20	[0, 0, 0]	n/a	FR1	0	R1176M
3167.608	1.6	1521653	WORD	n/a	wordpools/wordpool_EN.txt	FOOD	5	20	[0, 0, 0]	n/a	FR1	0	R1176M
3170.141	1.6	1522919	WORD	n/a	wordpools/wordpool_EN.txt	TOE	6	20	[0, 0, 0]	n/a	FR1	0	R1176M
3172.593	1.6	1524145	WORD	n/a	wordpools/wordpool_EN.txt	HOOF	7	20	[0, 0, 0]	n/a	FR1	0	R1176M
3175.092	1.6	1525394	WORD	n/a	wordpools/wordpool_EN.txt	ROOT	8	20	[0, 0, 0]	n/a	FR1	0	R1176M
3177.527	1.6	1526612	WORD	n/a	wordpools/wordpool_EN.txt	BEAN	9	20	[0, 0, 0]	n/a	FR1	0	R1176M
3180.01	1.6	1527853	WORD	n/a	wordpools/wordpool_EN.txt	RAKE	10	20	[0, 0, 0]	n/a	FR1	0	R1176M
3182.428	1.6	1529062	WORD	n/a	wordpools/wordpool_EN.txt	SOCK	11	20	[0, 0, 0]	n/a	FR1	0	R1176M
3184.828	1.6	1530262	WORD	n/a	wordpools/wordpool_EN.txt	BATH	12	20	[0, 0, 0]	n/a	FR1	0	R1176M
3186.446	0.0	1531071	DISTRACT_START	n/a	n/a	n/a	-999	20	[0, 0, 0]	n/a	FR1	0	R1176M
3186.446	0.016	1531071	START	n/a	n/a	n/a	-999	20	[-999, -999, -999]	n/a	FR1	0	R1176M
3186.462	4.65	1531079	PROB	4.621	n/a	n/a	-999	20	[9, 9, 4]	22.0	FR1	0	R1176M
3191.112	2.167	1533404	PROB	2.139	n/a	n/a	-999	20	[1, 9, 4]	14.0	FR1	0	R1176M
3193.279	5.602	1534487	PROB	5.58	n/a	n/a	-999	20	[6, 9, 4]	19.0	FR1	0	R1176M
3198.881	3.568	1537288	PROB	3.546	n/a	n/a	-999	20	[6, 5, 8]	19.0	FR1	0	R1176M
3202.449	4.09	1539072	PROB	4.09	n/a	n/a	-999	20	[3, 1, 8]	12.0	FR1	0	R1176M
3206.539	0.01	1541116	STOP	n/a	n/a	n/a	-999	20	[-999, -999, -999]	n/a	FR1	0	R1176M
3206.549	1.068	1541121	DISTRACT_END	n/a	n/a	n/a	-999	20	[0, 0, 0]	n/a	FR1	0	R1176M
3207.617	2.062	1541655	REC_START	n/a	n/a	n/a	-999	20	[0, 0, 0]	n/a	FR1	0	R1176M
3209.679	0.726	1542686	REC_WORD	2.062	n/a	TEA	-999	20	[0, 0, 0]	n/a	FR1	0	R1176M
3210.405	5.651	1543049	REC_WORD	2.788	n/a	FLOOD	-999	20	[0, 0, 0]	n/a	FR1	0	R1176M
3216.056	1.484	1545874	REC_WORD	8.439	n/a	ROOT	-999	20	[0, 0, 0]	n/a	FR1	0	R1176M
3217.54	20.087	1546616	REC_WORD	9.923	n/a	HOOF	-999	20	[0, 0, 0]	n/a	FR1	0	R1176M
3237.627	43.17	1556659	REC_END	n/a	n/a	n/a	-999	20	[0, 0, 0]	n/a	FR1	0	R1176M
3280.797	0.0	1578241	TRIAL	n/a	n/a	n/a	-999	21	[0, 0, 0]	n/a	FR1	0	R1176M
3280.797	10.0	1578241	COUNTDOWN_START	n/a	n/a	n/a	-999	21	[0, 0, 0]	n/a	FR1	0	R1176M
3291.225	0.006	1583455	COUNTDOWN_END	n/a	n/a	n/a	-999	21	[0, 0, 0]	n/a	FR1	0	R1176M
3291.231	1.6	1583458	ORIENT	n/a	n/a	n/a	-999	21	[0, 0, 0]	n/a	FR1	0	R1176M
3293.816	1.6	1584750	WORD	n/a	wordpools/wordpool_EN.txt	RUG	1	21	[0, 0, 0]	n/a	FR1	0	R1176M
3296.35	1.6	1586017	WORD	n/a	wordpools/wordpool_EN.txt	YARD	2	21	[0, 0, 0]	n/a	FR1	0	R1176M
3298.951	1.6	1587318	WORD	n/a	wordpools/wordpool_EN.txt	STOVE	3	21	[0, 0, 0]	n/a	FR1	0	R1176M
3301.484	1.6	1588584	WORD	n/a	wordpools/wordpool_EN.txt	LOCK	4	21	[0, 0, 0]	n/a	FR1	0	R1176M
3304.084	1.6	1589884	WORD	n/a	wordpools/wordpool_EN.txt	FACE	5	21	[0, 0, 0]	n/a	FR1	0	R1176M
3306.602	1.6	1591143	WORD	n/a	wordpools/wordpool_EN.txt	BOARD	6	21	[0, 0, 0]	n/a	FR1	0	R1176M
3309.018	1.6	1592351	WORD	n/a	wordpools/wordpool_EN.txt	CAGE	7	21	[0, 0, 0]	n/a	FR1	0	R1176M
3311.403	1.6	1593543	WORD	n/a	wordpools/wordpool_EN.txt	HORN	8	21	[0, 0, 0]	n/a	FR1	0	R1176M
3313.82	1.6	1594751	WORD	n/a	wordpools/wordpool_EN.txt	DRESS	9	21	[0, 0, 0]	n/a	FR1	0	R1176M
3316.286	1.6	1595984	WORD	n/a	wordpools/wordpool_EN.txt	DOCK	10	21	[0, 0, 0]	n/a	FR1	0	R1176M
3318.688	1.6	1597185	WORD	n/a	wordpools/wordpool_EN.txt	WOOD	11	21	[0, 0, 0]	n/a	FR1	0	R1176M
3321.287	1.6	1598484	WORD	n/a	wordpools/wordpool_EN.txt	TOY	12	21	[0, 0, 0]	n/a	FR1	0	R1176M
3322.888	0.001	1599285	DISTRACT_START	n/a	n/a	n/a	-999	21	[0, 0, 0]	n/a	FR1	0	R1176M
3322.889	0.016	1599285	START	n/a	n/a	n/a	-999	21	[-999, -999, -999]	n/a	FR1	0	R1176M
3322.905	5.068	1599293	PROB	5.034	n/a	n/a	-999	21	[6, 2, 9]	16.0	FR1	0	R1176M
3327.973	3.249	1601827	PROB	3.229	n/a	n/a	-999	21	[5, 3, 1]	9.0	FR1	0	R1176M
3331.222	2.768	1603451	PROB	2.742	n/a	n/a	-999	21	[2, 9, 8]	19.0	FR1	0	R1176M
3333.99	5.001	1604835	PROB	4.974	n/a	n/a	-999	21	[6, 8, 4]	18.0	FR1	0	R1176M
3338.991	2.784	1607335	PROB	2.757	n/a	n/a	-999	21	[9, 5, 2]	16.0	FR1	0	R1176M
3341.775	4.037	1608727	PROB	4.037	n/a	n/a	-999	21	[6, 3, 9]	18.0	FR1	0	R1176M
3345.812	0.014	1610746	STOP	n/a	n/a	n/a	-999	21	[-999, -999, -999]	n/a	FR1	0	R1176M
3345.826	1.034	1610753	DISTRACT_END	n/a	n/a	n/a	-999	21	[0, 0, 0]	n/a	FR1	0	R1176M
3346.86	1.792	1611270	REC_START	n/a	n/a	n/a	-999	21	[0, 0, 0]	n/a	FR1	0	R1176M
3348.652	0.635	1612165	REC_WORD	1.792	n/a	RUG	-999	21	[0, 0, 0]	n/a	FR1	0	R1176M
3349.287	3.484	1612483	REC_WORD	2.427	n/a	STOVE	-999	21	[0, 0, 0]	n/a	FR1	0	R1176M
3352.771	1.168	1614225	REC_WORD	5.911	n/a	HORN	-999	21	[0, 0, 0]	n/a	FR1	0	R1176M
3353.939	10.35	1614809	REC_WORD	7.079	n/a	DRESS	-999	21	[0, 0, 0]	n/a	FR1	0	R1176M
3364.289	12.585	1619983	REC_WORD	17.429	n/a	FACE	-999	21	[0, 0, 0]	n/a	FR1	0	R1176M
3376.874	8.527	1626275	REC_END	n/a	n/a	n/a	-999	21	[0, 0, 0]	n/a	FR1	0	R1176M
3385.401	0.0	1630538	TRIAL	n/a	n/a	n/a	-999	22	[0, 0, 0]	n/a	FR1	0	R1176M
3385.401	10.0	1630538	COUNTDOWN_START	n/a	n/a	n/a	-999	22	[0, 0, 0]	n/a	FR1	0	R1176M
3395.829	0.007	1635752	COUNTDOWN_END	n/a	n/a	n/a	-999	22	[0, 0, 0]	n/a	FR1	0	R1176M
3395.836	1.6	1635755	ORIENT	n/a	n/a	n/a	-999	22	[0, 0, 0]	n/a	FR1	0	R1176M
3398.42	1.6	1637047	WORD	n/a	wordpools/wordpool_EN.txt	MAIL	1	22	[0, 0, 0]	n/a	FR1	0	R1176M
3400.97	1.6	1638322	WORD	n/a	wordpools/wordpool_EN.txt	BANK	2	22	[0, 0, 0]	n/a	FR1	0	R1176M
3403.554	1.6	1639614	WORD	n/a	wordpools/wordpool_EN.txt	STORE	3	22	[0, 0, 0]	n/a	FR1	0	R1176M
3406.07	1.6	1640871	WORD	n/a	wordpools/wordpool_EN.txt	LAWN	4	22	[0, 0, 0]	n/a	FR1	0	R1176M
3408.655	1.6	1642164	WORD	n/a	wordpools/wordpool_EN.txt	PHONE	5	22	[0, 0, 0]	n/a	FR1	0	R1176M
3411.038	1.6	1643355	WORD	n/a	wordpools/wordpool_EN.txt	KEY	6	22	[0, 0, 0]	n/a	FR1	0	R1176M
3413.423	1.6	1644548	WORD	n/a	wordpools/wordpool_EN.txt	FUDGE	7	22	[0, 0, 0]	n/a	FR1	0	R1176M
3415.906	1.6	1645789	WORD	n/a	wordpools/wordpool_EN.txt	CASH	8	22	[0, 0, 0]	n/a	FR1	0	R1176M
3418.307	1.6	1646989	WORD	n/a	wordpools/wordpool_EN.txt	WALL	9	22	[0, 0, 0]	n/a	FR1	0	R1176M
3420.874	1.6	1648273	WORD	n/a	wordpools/wordpool_EN.txt	MILK	10	22	[0, 0, 0]	n/a	FR1	0	R1176M
3423.341	1.6	1649506	WORD	n/a	wordpools/wordpool_EN.txt	FOG	11	22	[0, 0, 0]	n/a	FR1	0	R1176M
3425.925	1.6	1650798	WORD	n/a	wordpools/wordpool_EN.txt	HEART	12	22	[0, 0, 0]	n/a	FR1	0	R1176M
3427.542	0.001	1651606	DISTRACT_START	n/a	n/a	n/a	-999	22	[0, 0, 0]	n/a	FR1	0	R1176M
3427.543	0.016	1651607	START	n/a	n/a	n/a	-999	22	[-999, -999, -999]	n/a	FR1	0	R1176M
3427.559	2.884	1651615	PROB	2.852	n/a	n/a	-999	22	[2, 2, 8]	12.0	FR1	0	R1176M
3430.443	2.417	1653057	PROB	2.392	n/a	n/a	-999	22	[7, 9, 1]	17.0	FR1	0	R1176M
3432.86	4.684	1654265	PROB	4.648	n/a	n/a	-999	22	[9, 5, 4]	17.0	FR1	0	R1176M
3437.544	4.901	1656607	PROB	4.876	n/a	n/a	-999	22	[7, 1, 7]	15.0	FR1	0	R1176M
3442.445	4.067	1659057	PROB	4.038	n/a	n/a	-999	22	[9, 3, 5]	166.0	FR1	0	R1176M
3446.512	4.036	1661090	PROB	4.036	n/a	n/a	-999	22	[8, 1, 7]	16.0	FR1	0	R1176M
3450.548	0.015	1663108	STOP	n/a	n/a	n/a	-999	22	[-999, -999, -999]	n/a	FR1	0	R1176M
3450.563	1.101	1663116	DISTRACT_END	n/a	n/a	n/a	-999	22	[0, 0, 0]	n/a	FR1	0	R1176M
3451.664	0.858	1663666	REC_START	n/a	n/a	n/a	-999	22	[0, 0, 0]	n/a	FR1	0	R1176M
3452.522	1.13	1664095	REC_WORD	0.858	n/a	MAIL	-999	22	[0, 0, 0]	n/a	FR1	0	R1176M
3453.652	2.646	1664660	REC_WORD	1.988	n/a	BANK	-999	22	[0, 0, 0]	n/a	FR1	0	R1176M
3456.298	1.537	1665983	REC_WORD	4.634	n/a	PHONE	-999	22	[0, 0, 0]	n/a	FR1	0	R1176M
3457.835	1.303	1666751	REC_WORD	6.171	n/a	STORE	-999	22	[0, 0, 0]	n/a	FR1	0	R1176M
3459.138	20.977	1667403	REC_WORD	7.474	n/a	LAWN	-999	22	[0, 0, 0]	n/a	FR1	0	R1176M
3480.115	1.559	1677890	REC_WORD	28.451	n/a	WALL	-999	22	[0, 0, 0]	n/a	FR1	0	R1176M
3481.674	27.316	1678670	REC_END	n/a	n/a	n/a	-999	22	[0, 0, 0]	n/a	FR1	0	R1176M
3508.99	0.0	1692326	TRIAL	n/a	n/a	n/a	-999	23	[0, 0, 0]	n/a	FR1	0	R1176M
3508.99	10.0	1692326	COUNTDOWN_START	n/a	n/a	n/a	-999	23	[0, 0, 0]	n/a	FR1	0	R1176M
3519.418	0.008	1697540	COUNTDOWN_END	n/a	n/a	n/a	-999	23	[0, 0, 0]	n/a	FR1	0	R1176M
3519.426	1.6	1697544	ORIENT	n/a	n/a	n/a	-999	23	[0, 0, 0]	n/a	FR1	0	R1176M
3521.944	1.6	1698802	WORD	n/a	wordpools/wordpool_EN.txt	FOOT	1	23	[0, 0, 0]	n/a	FR1	0	R1176M
3524.477	1.6	1700069	WORD	n/a	wordpools/wordpool_EN.txt	HORSE	2	23	[0, 0, 0]	n/a	FR1	0	R1176M
3527.044	1.6	1701352	WORD	n/a	wordpools/wordpool_EN.txt	CALF	3	23	[0, 0, 0]	n/a	FR1	0	R1176M
3529.645	1.6	1702653	WORD	n/a	wordpools/wordpool_EN.txt	BAG	4	23	[0, 0, 0]	n/a	FR1	0	R1176M
3532.161	1.6	1703910	WORD	n/a	wordpools/wordpool_EN.txt	NOSE	5	23	[0, 0, 0]	n/a	FR1	0	R1176M
3534.713	1.6	1705186	WORD	n/a	wordpools/wordpool_EN.txt	DITCH	6	23	[0, 0, 0]	n/a	FR1	0	R1176M
3537.129	1.6	1706394	WORD	n/a	wordpools/wordpool_EN.txt	WAND	7	23	[0, 0, 0]	n/a	FR1	0	R1176M
3539.53	1.6	1707595	WORD	n/a	wordpools/wordpool_EN.txt	SHIRT	8	23	[0, 0, 0]	n/a	FR1	0	R1176M
3542.097	1.6	1708878	WORD	n/a	wordpools/wordpool_EN.txt	MOUTH	9	23	[0, 0, 0]	n/a	FR1	0	R1176M
3544.515	1.6	1710087	WORD	n/a	wordpools/wordpool_EN.txt	CHALK	10	23	[0, 0, 0]	n/a	FR1	0	R1176M
3547.081	1.6	1711370	WORD	n/a	wordpools/wordpool_EN.txt	SINK	11	23	[0, 0, 0]	n/a	FR1	0	R1176M
3549.582	1.6	1712620	WORD	n/a	wordpools/wordpool_EN.txt	MUD	12	23	[0, 0, 0]	n/a	FR1	0	R1176M
3551.198	0.001	1713428	DISTRACT_START	n/a	n/a	n/a	-999	23	[0, 0, 0]	n/a	FR1	0	R1176M
3551.199	0.016	1713428	START	n/a	n/a	n/a	-999	23	[-999, -999, -999]	n/a	FR1	0	R1176M
3551.215	3.335	1713436	PROB	3.309	n/a	n/a	-999	23	[6, 7, 5]	18.0	FR1	0	R1176M
3554.55	4.034	1715104	PROB	4.006	n/a	n/a	-999	23	[5, 4, 2]	12.0	FR1	0	R1176M
3558.584	3.134	1717121	PROB	3.1	n/a	n/a	-999	23	[7, 9, 8]	24.0	FR1	0	R1176M
3561.718	3.45	1718687	PROB	3.421	n/a	n/a	-999	23	[5, 6, 4]	15.0	FR1	0	R1176M
3565.168	4.485	1720412	PROB	4.46	n/a	n/a	-999	23	[9, 5, 2]	15.0	FR1	0	R1176M
3569.653	3.303	1722655	PROB	3.303	n/a	n/a	-999	23	[5, 9, 9]	25.0	FR1	0	R1176M
3572.956	0.014	1724306	STOP	n/a	n/a	n/a	-999	23	[-999, -999, -999]	n/a	FR1	0	R1176M
3572.97	1.1	1724313	DISTRACT_END	n/a	n/a	n/a	-999	23	[0, 0, 0]	n/a	FR1	0	R1176M
3574.07	1.492	1724863	REC_START	n/a	n/a	n/a	-999	23	[0, 0, 0]	n/a	FR1	0	R1176M
3575.562	1.027	1725609	REC_WORD	1.492	n/a	FOOT	-999	23	[0, 0, 0]	n/a	FR1	0	R1176M
3576.589	1.493	1726122	REC_WORD	2.519	n/a	HORSE	-999	23	[0, 0, 0]	n/a	FR1	0	R1176M
3578.082	1.772	1726869	REC_WORD	4.012	n/a	CALF	-999	23	[0, 0, 0]	n/a	FR1	0	R1176M
3579.854	2.53	1727754	REC_WORD	5.784	n/a	MOUTH	-999	23	[0, 0, 0]	n/a	FR1	0	R1176M
3582.384	21.696	1729019	REC_WORD	8.314	n/a	NOSE	-999	23	[0, 0, 0]	n/a	FR1	0	R1176M
3604.08	22.617	1739866	REC_END	n/a	n/a	n/a	-999	23	[0, 0, 0]	n/a	FR1	0	R1176M
3626.697	10.0	1751174	COUNTDOWN_START	n/a	n/a	n/a	-999	24	[0, 0, 0]	n/a	FR1	0	R1176M
3626.698	10.427	1751174	TRIAL	n/a	n/a	n/a	-999	24	[0, 0, 0]	n/a	FR1	0	R1176M
3637.125	0.007	1756387	COUNTDOWN_END	n/a	n/a	n/a	-999	24	[0, 0, 0]	n/a	FR1	0	R1176M
3637.132	1.6	1756391	ORIENT	n/a	n/a	n/a	-999	24	[0, 0, 0]	n/a	FR1	0	R1176M
3639.6	1.6	1757624	WORD	n/a	wordpools/wordpool_EN.txt	CAT	1	24	[0, 0, 0]	n/a	FR1	0	R1176M
3642.199	1.6	1758924	WORD	n/a	wordpools/wordpool_EN.txt	TANK	2	24	[0, 0, 0]	n/a	FR1	0	R1176M
3644.767	1.6	1760208	WORD	n/a	wordpools/wordpool_EN.txt	BOAT	3	24	[0, 0, 0]	n/a	FR1	0	R1176M
3647.267	1.6	1761458	WORD	n/a	wordpools/wordpool_EN.txt	SPARK	4	24	[0, 0, 0]	n/a	FR1	0	R1176M
3649.868	1.6	1762758	WORD	n/a	wordpools/wordpool_EN.txt	WORM	5	24	[0, 0, 0]	n/a	FR1	0	R1176M
3652.419	1.6	1764033	WORD	n/a	wordpools/wordpool_EN.txt	HOSE	6	24	[0, 0, 0]	n/a	FR1	0	R1176M
3655.002	1.6	1765325	WORD	n/a	wordpools/wordpool_EN.txt	TRASH	7	24	[0, 0, 0]	n/a	FR1	0	R1176M
3657.62	1.6	1766633	WORD	n/a	wordpools/wordpool_EN.txt	KITE	8	24	[0, 0, 0]	n/a	FR1	0	R1176M
3660.136	1.6	1767891	WORD	n/a	wordpools/wordpool_EN.txt	FISH	9	24	[0, 0, 0]	n/a	FR1	0	R1176M
3662.704	1.6	1769175	WORD	n/a	wordpools/wordpool_EN.txt	WHEEL	10	24	[0, 0, 0]	n/a	FR1	0	R1176M
3665.154	1.6	1770400	WORD	n/a	wordpools/wordpool_EN.txt	DOG	11	24	[0, 0, 0]	n/a	FR1	0	R1176M
3667.772	1.6	1771709	WORD	n/a	wordpools/wordpool_EN.txt	LAND	12	24	[0, 0, 0]	n/a	FR1	0	R1176M
3669.389	0.001	1772517	DISTRACT_START	n/a	n/a	n/a	-999	24	[0, 0, 0]	n/a	FR1	0	R1176M
3669.39	0.015	1772518	START	n/a	n/a	n/a	-999	24	[-999, -999, -999]	n/a	FR1	0	R1176M
3669.405	2.8	1772525	PROB	2.773	n/a	n/a	-999	24	[1, 2, 7]	10.0	FR1	0	R1176M
3672.205	3.668	1773925	PROB	3.638	n/a	n/a	-999	24	[5, 8, 9]	22.0	FR1	0	R1176M
3675.873	3.084	1775759	PROB	3.059	n/a	n/a	-999	24	[5, 3, 8]	16.0	FR1	0	R1176M
3678.957	3.3	1777301	PROB	3.277	n/a	n/a	-999	24	[2, 5, 9]	14.0	FR1	0	R1176M
3682.257	3.452	1778951	PROB	3.418	n/a	n/a	-999	24	[5, 5, 1]	7.0	FR1	0	R1176M
3685.709	2.1	1780677	PROB	2.079	n/a	n/a	-999	24	[4, 6, 4]	14.0	FR1	0	R1176M
3687.809	3.131	1781726	PROB	3.131	n/a	n/a	-999	24	[3, 4, 6]	13.0	FR1	0	R1176M
3690.94	0.019	1783292	STOP	n/a	n/a	n/a	-999	24	[-999, -999, -999]	n/a	FR1	0	R1176M
3690.959	1.1	1783301	DISTRACT_END	n/a	n/a	n/a	-999	24	[0, 0, 0]	n/a	FR1	0	R1176M
3692.059	1.794	1783851	REC_START	n/a	n/a	n/a	-999	24	[0, 0, 0]	n/a	FR1	0	R1176M
3693.853	1.107	1784748	REC_WORD	1.794	n/a	CAT	-999	24	[0, 0, 0]	n/a	FR1	0	R1176M
3694.96	1.43	1785302	REC_WORD	2.901	n/a	DOG	-999	24	[0, 0, 0]	n/a	FR1	0	R1176M
3696.39	0.37	1786016	REC_WORD	4.331	n/a	BOAT	-999	24	[0, 0, 0]	n/a	FR1	0	R1176M
3696.76	15.44	1786201	REC_WORD	4.701	n/a	SPARK	-999	24	[0, 0, 0]	n/a	FR1	0	R1176M
3712.2	9.87	1793921	REC_WORD	20.141	n/a	WHEEL	-999	24	[0, 0, 0]	n/a	FR1	0	R1176M
3722.07	54.939	1798855	REC_END	n/a	n/a	n/a	-999	24	[0, 0, 0]	n/a	FR1	0	R1176M
3777.009	0.0	1826322	TRIAL	n/a	n/a	n/a	-999	25	[0, 0, 0]	n/a	FR1	0	R1176M
3777.009	10.0	1826322	COUNTDOWN_START	n/a	n/a	n/a	-999	25	[0, 0, 0]	n/a	FR1	0	R1176M
3787.437	0.008	1831535	COUNTDOWN_END	n/a	n/a	n/a	-999	25	[0, 0, 0]	n/a	FR1	0	R1176M
3787.445	1.6	1831539	ORIENT	n/a	n/a	n/a	-999	25	[0, 0, 0]	n/a	FR1	0	R1176M
3789.912	1.6	1832773	WORD	n/a	wordpools/wordpool_EN.txt	PASTE	1	25	[0, 0, 0]	n/a	FR1	0	R1176M
3792.446	1.6	1834039	WORD	n/a	wordpools/wordpool_EN.txt	PEAR	2	25	[0, 0, 0]	n/a	FR1	0	R1176M
3794.896	1.6	1835264	WORD	n/a	wordpools/wordpool_EN.txt	LEG	3	25	[0, 0, 0]	n/a	FR1	0	R1176M
3797.38	1.6	1836506	WORD	n/a	wordpools/wordpool_EN.txt	APE	4	25	[0, 0, 0]	n/a	FR1	0	R1176M
3799.764	1.6	1837698	WORD	n/a	wordpools/wordpool_EN.txt	CONE	5	25	[0, 0, 0]	n/a	FR1	0	R1176M
3802.314	1.6	1838973	WORD	n/a	wordpools/wordpool_EN.txt	SEED	6	25	[0, 0, 0]	n/a	FR1	0	R1176M
3804.865	1.6	1840248	WORD	n/a	wordpools/wordpool_EN.txt	CLOTH	7	25	[0, 0, 0]	n/a	FR1	0	R1176M
3807.299	1.6	1841465	WORD	n/a	wordpools/wordpool_EN.txt	LEAF	8	25	[0, 0, 0]	n/a	FR1	0	R1176M
3809.749	1.6	1842690	WORD	n/a	wordpools/wordpool_EN.txt	RAT	9	25	[0, 0, 0]	n/a	FR1	0	R1176M
3812.149	1.6	1843890	WORD	n/a	wordpools/wordpool_EN.txt	WING	10	25	[0, 0, 0]	n/a	FR1	0	R1176M
3814.7	1.6	1845165	WORD	n/a	wordpools/wordpool_EN.txt	CHIEF	11	25	[0, 0, 0]	n/a	FR1	0	R1176M
3817.2	1.6	1846415	WORD	n/a	wordpools/wordpool_EN.txt	PLANT	12	25	[0, 0, 0]	n/a	FR1	0	R1176M
3818.801	0.001	1847216	DISTRACT_START	n/a	n/a	n/a	-999	25	[0, 0, 0]	n/a	FR1	0	R1176M
3818.802	0.016	1847216	START	n/a	n/a	n/a	-999	25	[-999, -999, -999]	n/a	FR1	0	R1176M
3818.818	4.867	1847224	PROB	4.842	n/a	n/a	-999	25	[1, 8, 3]	12.0	FR1	0	R1176M
3823.685	4.751	1849657	PROB	4.718	n/a	n/a	-999	25	[7, 9, 6]	22.0	FR1	0	R1176M
3828.436	2.284	1852033	PROB	2.255	n/a	n/a	-999	25	[7, 9, 2]	18.0	FR1	0	R1176M
3830.72	2.533	1853175	PROB	2.499	n/a	n/a	-999	25	[3, 8, 3]	12.0	FR1	0	R1176M
3833.253	4.418	1854441	PROB	4.391	n/a	n/a	-999	25	[7, 5, 2]	14.0	FR1	0	R1176M
3837.671	2.388	1856650	PROB	2.388	n/a	n/a	-999	25	[1, 2, 1]	4.0	FR1	0	R1176M
3840.059	0.012	1857844	STOP	n/a	n/a	n/a	-999	25	[-999, -999, -999]	n/a	FR1	0	R1176M
3840.071	1.034	1857850	DISTRACT_END	n/a	n/a	n/a	-999	25	[0, 0, 0]	n/a	FR1	0	R1176M
3841.105	0.856	1858366	REC_START	n/a	n/a	n/a	-999	25	[0, 0, 0]	n/a	FR1	0	R1176M
3841.961	1.027	1858794	REC_WORD	0.856	n/a	PASTE	-999	25	[0, 0, 0]	n/a	FR1	0	R1176M
3842.988	1.188	1859308	REC_WORD	1.883	n/a	PEAR	-999	25	[0, 0, 0]	n/a	FR1	0	R1176M
3844.176	1.22	1859902	REC_WORD	3.071	n/a	LEG	-999	25	[0, 0, 0]	n/a	FR1	0	R1176M
3845.396	1.595	1860512	REC_WORD	4.291	n/a	LEAF	-999	25	[0, 0, 0]	n/a	FR1	0	R1176M
3846.991	1.598	1861309	REC_WORD	5.886	n/a	BEAR	-999	25	[0, 0, 0]	n/a	FR1	0	R1176M
3848.589	22.526	1862108	REC_WORD	7.484	n/a	RAT	-999	25	[0, 0, 0]	n/a	FR1	0	R1176M
3871.115	119.219	1873370	REC_END	n/a	n/a	n/a	-999	25	[0, 0, 0]	n/a	FR1	0	R1176M
3990.334	0.0	1932973	SESS_END	n/a	n/a	n/a	-999	25	[0, 0, 0]	n/a	FR1	0	R1176M
