onset	duration	sample	trial_type	response_time	stim_file	item_name	serialpos	list	test	answer	experiment	session	subject
0.0	1.549	41591	INSTRUCT_START	n/a	n/a	n/a	-999	-999	[0, 0, 0]	n/a	FR1	0	R1394E
1.549	23.649	43137	INSTRUCT_END	n/a	n/a	n/a	-999	-999	[0, 0, 0]	n/a	FR1	0	R1394E
25.198	10.0	66784	COUNTDOWN_START	n/a	n/a	n/a	-999	-999	[0, 0, 0]	n/a	FR1	0	R1394E
35.548	0.001	77127	COUNTDOWN_END	n/a	n/a	n/a	-999	-999	[0, 0, 0]	n/a	FR1	0	R1394E
35.549	2.166	77127	ENCODING_START	n/a	n/a	n/a	-999	-1	[0, 0, 0]	n/a	FR1	0	R1394E
37.715	1.6	79301	WORD	n/a	n/a	COTTON	1	-1	[0, 0, 0]	n/a	FR1	0	R1394E
39.331	0.933	80906	WORD_OFF	n/a	n/a	COTTON	1	-1	[0, 0, 0]	n/a	FR1	0	R1394E
40.264	1.6	81839	WORD	n/a	n/a	IMAGE	2	-1	[0, 0, 0]	n/a	FR1	0	R1394E
41.881	0.95	83459	WORD_OFF	n/a	n/a	IMAGE	2	-1	[0, 0, 0]	n/a	FR1	0	R1394E
42.831	1.6	84407	WORD	n/a	n/a	WATCH	3	-1	[0, 0, 0]	n/a	FR1	0	R1394E
44.447	0.967	86026	WORD_OFF	n/a	n/a	WATCH	3	-1	[0, 0, 0]	n/a	FR1	0	R1394E
45.414	1.6	86989	WORD	n/a	n/a	BABY	4	-1	[0, 0, 0]	n/a	FR1	0	R1394E
47.03	0.884	88608	WORD_OFF	n/a	n/a	BABY	4	-1	[0, 0, 0]	n/a	FR1	0	R1394E
47.914	1.6	89498	WORD	n/a	n/a	TONGUE	5	-1	[0, 0, 0]	n/a	FR1	0	R1394E
49.53	0.8	91118	WORD_OFF	n/a	n/a	TONGUE	5	-1	[0, 0, 0]	n/a	FR1	0	R1394E
50.33	1.6	91905	WORD	n/a	n/a	FLOOD	6	-1	[0, 0, 0]	n/a	FR1	0	R1394E
51.947	0.85	93525	WORD_OFF	n/a	n/a	FLOOD	6	-1	[0, 0, 0]	n/a	FR1	0	R1394E
52.797	1.6	94372	WORD	n/a	n/a	CAMEL	7	-1	[0, 0, 0]	n/a	FR1	0	R1394E
54.398	0.816	95975	WORD_OFF	n/a	n/a	CAMEL	7	-1	[0, 0, 0]	n/a	FR1	0	R1394E
55.214	1.6	96792	WORD	n/a	n/a	CHEST	8	-1	[0, 0, 0]	n/a	FR1	0	R1394E
56.831	0.784	98412	WORD_OFF	n/a	n/a	CHEST	8	-1	[0, 0, 0]	n/a	FR1	0	R1394E
57.615	1.6	99199	WORD	n/a	n/a	BEAM	9	-1	[0, 0, 0]	n/a	FR1	0	R1394E
59.215	0.933	100790	WORD_OFF	n/a	n/a	BEAM	9	-1	[0, 0, 0]	n/a	FR1	0	R1394E
60.148	1.6	101723	WORD	n/a	n/a	RHINO	10	-1	[0, 0, 0]	n/a	FR1	0	R1394E
61.749	0.883	103328	WORD_OFF	n/a	n/a	RHINO	10	-1	[0, 0, 0]	n/a	FR1	0	R1394E
62.632	1.6	104218	WORD	n/a	n/a	RING	11	-1	[0, 0, 0]	n/a	FR1	0	R1394E
64.233	0.999	105808	WORD_OFF	n/a	n/a	RING	11	-1	[0, 0, 0]	n/a	FR1	0	R1394E
65.232	1.6	106815	WORD	n/a	n/a	WAGON	12	-1	[0, 0, 0]	n/a	FR1	0	R1394E
66.849	0.001	108432	PROB	9.267	n/a	n/a	-999	-1	[1, 5, 4]	10.0	FR1	0	R1394E
66.85	0.0	108433	START	n/a	n/a	n/a	-999	-1	[-999, -999, -999]	n/a	FR1	0	R1394E
66.847	0.001	108434	WORD_OFF	n/a	n/a	WAGON	12	-1	[0, 0, 0]	n/a	FR1	0	R1394E
66.848	0.002	108434	ENCODING_END	n/a	n/a	n/a	-999	-1	[0, 0, 0]	n/a	FR1	0	R1394E
66.85	9.282	108434	DISTRACT_START	n/a	n/a	n/a	-999	-1	[0, 0, 0]	n/a	FR1	0	R1394E
76.132	5.633	117714	PROB	5.616	n/a	n/a	-999	-1	[4, 6, 1]	11.0	FR1	0	R1394E
81.765	5.4	123347	PROB	5.383	n/a	n/a	-999	-1	[8, 2, 8]	18.0	FR1	0	R1394E
87.165	0.0	128741	DISTRACT_END	n/a	n/a	n/a	-999	-1	[0, 0, 0]	n/a	FR1	0	R1394E
87.165	1.683	128747	STOP	n/a	n/a	n/a	-999	-1	[-999, -999, -999]	n/a	FR1	0	R1394E
88.848	1.214	130422	REC_START	n/a	n/a	n/a	-999	-1	[0, 0, 0]	n/a	FR1	0	R1394E
90.062	1.189	131644	REC_WORD	1.214	n/a	COTTON	1	-1	[0, 0, 0]	n/a	FR1	0	R1394E
91.251	1.754	132833	REC_WORD	2.403	n/a	IMAGE	2	-1	[0, 0, 0]	n/a	FR1	0	R1394E
93.005	3.773	134587	REC_WORD	4.157	n/a	WATCH	3	-1	[0, 0, 0]	n/a	FR1	0	R1394E
96.778	6.723	138360	REC_WORD	7.93	n/a	WAGON	12	-1	[0, 0, 0]	n/a	FR1	0	R1394E
103.501	15.651	145083	REC_WORD	14.653	n/a	WOOD	-999	-1	[0, 0, 0]	n/a	FR1	0	R1394E
119.152	22.345	160737	REC_END	n/a	n/a	n/a	-999	-1	[0, 0, 0]	n/a	FR1	0	R1394E
141.497	10.0	183082	COUNTDOWN_START	n/a	n/a	n/a	-999	1	[0, 0, 0]	n/a	FR1	0	R1394E
151.848	0.001	193425	COUNTDOWN_END	n/a	n/a	n/a	-999	1	[0, 0, 0]	n/a	FR1	0	R1394E
151.849	1.965	193425	ENCODING_START	n/a	n/a	n/a	-999	1	[0, 0, 0]	n/a	FR1	0	R1394E
153.814	1.6	195394	WORD	n/a	wordpools/wordpool_short_EN.txt	HAT	1	1	[0, 0, 0]	n/a	FR1	0	R1394E
155.414	0.917	196985	WORD_OFF	n/a	n/a	HAT	1	1	[0, 0, 0]	n/a	FR1	0	R1394E
156.331	1.6	197903	WORD	n/a	wordpools/wordpool_short_EN.txt	NAIL	2	1	[0, 0, 0]	n/a	FR1	0	R1394E
157.948	1.0	199523	WORD_OFF	n/a	n/a	NAIL	2	1	[0, 0, 0]	n/a	FR1	0	R1394E
158.948	1.6	200529	WORD	n/a	wordpools/wordpool_short_EN.txt	MAIL	3	1	[0, 0, 0]	n/a	FR1	0	R1394E
160.548	0.883	202119	WORD_OFF	n/a	n/a	MAIL	3	1	[0, 0, 0]	n/a	FR1	0	R1394E
161.431	1.6	203009	WORD	n/a	wordpools/wordpool_short_EN.txt	MEAL	4	1	[0, 0, 0]	n/a	FR1	0	R1394E
163.031	0.95	204614	WORD_OFF	n/a	n/a	MEAL	4	1	[0, 0, 0]	n/a	FR1	0	R1394E
163.981	1.6	205562	WORD	n/a	wordpools/wordpool_short_EN.txt	STEAM	5	1	[0, 0, 0]	n/a	FR1	0	R1394E
165.597	0.851	207167	WORD_OFF	n/a	n/a	STEAM	5	1	[0, 0, 0]	n/a	FR1	0	R1394E
166.448	1.6	208028	WORD	n/a	wordpools/wordpool_short_EN.txt	FLAME	6	1	[0, 0, 0]	n/a	FR1	0	R1394E
168.048	0.8	209618	WORD_OFF	n/a	n/a	FLAME	6	1	[0, 0, 0]	n/a	FR1	0	R1394E
168.848	1.6	210420	WORD	n/a	wordpools/wordpool_short_EN.txt	MOUTH	7	1	[0, 0, 0]	n/a	FR1	0	R1394E
170.448	0.967	212025	WORD_OFF	n/a	n/a	MOUTH	7	1	[0, 0, 0]	n/a	FR1	0	R1394E
171.415	1.6	212988	WORD	n/a	wordpools/wordpool_short_EN.txt	BIRD	8	1	[0, 0, 0]	n/a	FR1	0	R1394E
173.015	0.866	214592	WORD_OFF	n/a	n/a	BIRD	8	1	[0, 0, 0]	n/a	FR1	0	R1394E
173.881	1.6	215453	WORD	n/a	wordpools/wordpool_short_EN.txt	FROG	9	1	[0, 0, 0]	n/a	FR1	0	R1394E
175.481	0.784	217058	WORD_OFF	n/a	n/a	FROG	9	1	[0, 0, 0]	n/a	FR1	0	R1394E
176.265	1.6	217845	WORD	n/a	wordpools/wordpool_short_EN.txt	MAZE	10	1	[0, 0, 0]	n/a	FR1	0	R1394E
177.882	0.799	219465	WORD_OFF	n/a	n/a	MAZE	10	1	[0, 0, 0]	n/a	FR1	0	R1394E
178.681	1.6	220253	WORD	n/a	wordpools/wordpool_short_EN.txt	SPEAR	11	1	[0, 0, 0]	n/a	FR1	0	R1394E
180.281	1.0	221857	WORD_OFF	n/a	n/a	SPEAR	11	1	[0, 0, 0]	n/a	FR1	0	R1394E
181.281	1.6	222864	WORD	n/a	wordpools/wordpool_short_EN.txt	TREE	12	1	[0, 0, 0]	n/a	FR1	0	R1394E
182.881	0.002	224454	WORD_OFF	n/a	n/a	TREE	12	1	[0, 0, 0]	n/a	FR1	0	R1394E
182.883	0.0	224454	ENCODING_END	n/a	n/a	n/a	-999	1	[0, 0, 0]	n/a	FR1	0	R1394E
182.882	0.001	224461	PROB	8.399	n/a	n/a	-999	1	[5, 3, 6]	14.0	FR1	0	R1394E
182.883	0.0	224462	START	n/a	n/a	n/a	-999	1	[-999, -999, -999]	n/a	FR1	0	R1394E
182.883	8.415	224469	DISTRACT_START	n/a	n/a	n/a	-999	1	[0, 0, 0]	n/a	FR1	0	R1394E
191.298	5.051	232877	PROB	5.033	n/a	n/a	-999	1	[8, 3, 8]	19.0	FR1	0	R1394E
196.349	5.166	237927	PROB	5.149	n/a	n/a	-999	1	[4, 6, 4]	14.0	FR1	0	R1394E
201.515	7.1	243093	PROB	7.083	n/a	n/a	-999	1	[6, 5, 6]	17.0	FR1	0	R1394E
208.615	0.0	250188	DISTRACT_END	n/a	n/a	n/a	-999	1	[0, 0, 0]	n/a	FR1	0	R1394E
208.615	1.75	250193	STOP	n/a	n/a	n/a	-999	1	[-999, -999, -999]	n/a	FR1	0	R1394E
210.365	1.681	251942	REC_START	n/a	n/a	n/a	-999	1	[0, 0, 0]	n/a	FR1	0	R1394E
212.046	2.192	253624	REC_WORD	1.681	n/a	HAT	1	1	[0, 0, 0]	n/a	FR1	0	R1394E
214.238	2.901	255816	REC_WORD	3.873	n/a	NAIL	2	1	[0, 0, 0]	n/a	FR1	0	R1394E
217.139	2.498	258717	REC_WORD	6.774	n/a	MAIL	3	1	[0, 0, 0]	n/a	FR1	0	R1394E
219.637	9.701	261215	REC_WORD	9.272	n/a	MEAL	4	1	[0, 0, 0]	n/a	FR1	0	R1394E
229.338	11.35	270915	REC_WORD	18.973	n/a	COTTON	-999	1	[0, 0, 0]	n/a	FR1	0	R1394E
240.688	2.193	282256	REC_END	n/a	n/a	n/a	-999	1	[0, 0, 0]	n/a	FR1	0	R1394E
242.881	10.0	284455	COUNTDOWN_START	n/a	n/a	n/a	-999	2	[0, 0, 0]	n/a	FR1	0	R1394E
253.232	0.001	294813	COUNTDOWN_END	n/a	n/a	n/a	-999	2	[0, 0, 0]	n/a	FR1	0	R1394E
253.233	2.032	294813	ENCODING_START	n/a	n/a	n/a	-999	2	[0, 0, 0]	n/a	FR1	0	R1394E
255.265	1.6	296841	WORD	n/a	wordpools/wordpool_short_EN.txt	BONE	1	2	[0, 0, 0]	n/a	FR1	0	R1394E
256.881	0.784	298460	WORD_OFF	n/a	n/a	BONE	1	2	[0, 0, 0]	n/a	FR1	0	R1394E
257.665	1.6	299233	WORD	n/a	wordpools/wordpool_short_EN.txt	SKY	2	2	[0, 0, 0]	n/a	FR1	0	R1394E
259.265	0.966	300838	WORD_OFF	n/a	n/a	SKY	2	2	[0, 0, 0]	n/a	FR1	0	R1394E
260.231	1.6	301801	WORD	n/a	wordpools/wordpool_short_EN.txt	FORT	3	2	[0, 0, 0]	n/a	FR1	0	R1394E
261.831	0.984	303405	WORD_OFF	n/a	n/a	FORT	3	2	[0, 0, 0]	n/a	FR1	0	R1394E
262.815	1.6	304383	WORD	n/a	wordpools/wordpool_short_EN.txt	TOY	4	2	[0, 0, 0]	n/a	FR1	0	R1394E
264.415	0.883	305987	WORD_OFF	n/a	n/a	TOY	4	2	[0, 0, 0]	n/a	FR1	0	R1394E
265.298	1.6	306877	WORD	n/a	wordpools/wordpool_short_EN.txt	INK	5	2	[0, 0, 0]	n/a	FR1	0	R1394E
266.898	0.916	308467	WORD_OFF	n/a	n/a	INK	5	2	[0, 0, 0]	n/a	FR1	0	R1394E
267.814	1.6	309387	WORD	n/a	wordpools/wordpool_short_EN.txt	EARTH	6	2	[0, 0, 0]	n/a	FR1	0	R1394E
269.415	0.983	310991	WORD_OFF	n/a	n/a	EARTH	6	2	[0, 0, 0]	n/a	FR1	0	R1394E
270.398	1.6	311969	WORD	n/a	wordpools/wordpool_short_EN.txt	BENCH	7	2	[0, 0, 0]	n/a	FR1	0	R1394E
271.998	0.917	313573	WORD_OFF	n/a	n/a	BENCH	7	2	[0, 0, 0]	n/a	FR1	0	R1394E
272.915	1.6	314492	WORD	n/a	wordpools/wordpool_short_EN.txt	MOLE	8	2	[0, 0, 0]	n/a	FR1	0	R1394E
274.532	0.866	316098	WORD_OFF	n/a	n/a	MOLE	8	2	[0, 0, 0]	n/a	FR1	0	R1394E
275.398	1.6	316972	WORD	n/a	wordpools/wordpool_short_EN.txt	WEED	9	2	[0, 0, 0]	n/a	FR1	0	R1394E
277.015	0.983	318592	WORD_OFF	n/a	n/a	WEED	9	2	[0, 0, 0]	n/a	FR1	0	R1394E
277.998	1.6	319569	WORD	n/a	wordpools/wordpool_short_EN.txt	CAVE	10	2	[0, 0, 0]	n/a	FR1	0	R1394E
279.614	0.767	321188	WORD_OFF	n/a	n/a	CAVE	10	2	[0, 0, 0]	n/a	FR1	0	R1394E
280.381	1.6	321947	WORD	n/a	wordpools/wordpool_short_EN.txt	SALT	11	2	[0, 0, 0]	n/a	FR1	0	R1394E
281.998	0.95	323566	WORD_OFF	n/a	n/a	SALT	11	2	[0, 0, 0]	n/a	FR1	0	R1394E
282.948	1.6	324515	WORD	n/a	wordpools/wordpool_short_EN.txt	MAT	12	2	[0, 0, 0]	n/a	FR1	0	R1394E
284.548	0.001	326119	WORD_OFF	n/a	n/a	MAT	12	2	[0, 0, 0]	n/a	FR1	0	R1394E
284.549	0.0	326119	ENCODING_END	n/a	n/a	n/a	-999	2	[0, 0, 0]	n/a	FR1	0	R1394E
284.549	0.0	326119	DISTRACT_START	n/a	n/a	n/a	-999	2	[0, 0, 0]	n/a	FR1	0	R1394E
284.549	0.0	326124	START	n/a	n/a	n/a	-999	2	[-999, -999, -999]	n/a	FR1	0	R1394E
284.549	9.583	326124	PROB	9.566	n/a	n/a	-999	2	[8, 5, 4]	16.0	FR1	0	R1394E
294.132	7.466	335707	PROB	7.449	n/a	n/a	-999	2	[3, 1, 4]	8.0	FR1	0	R1394E
301.598	10.083	343173	PROB	10.066	n/a	n/a	-999	2	[7, 6, 5]	18.0	FR1	0	R1394E
311.681	0.0	353253	DISTRACT_END	n/a	n/a	n/a	-999	2	[0, 0, 0]	n/a	FR1	0	R1394E
311.681	1.55	353255	STOP	n/a	n/a	n/a	-999	2	[-999, -999, -999]	n/a	FR1	0	R1394E
313.231	3.236	354804	REC_START	n/a	n/a	n/a	-999	2	[0, 0, 0]	n/a	FR1	0	R1394E
316.467	27.063	358041	REC_WORD	3.236	n/a	SKY	2	2	[0, 0, 0]	n/a	FR1	0	R1394E
343.53	1.752	385103	REC_END	n/a	n/a	n/a	-999	2	[0, 0, 0]	n/a	FR1	0	R1394E
345.282	10.0	386850	COUNTDOWN_START	n/a	n/a	n/a	-999	3	[0, 0, 0]	n/a	FR1	0	R1394E
355.632	0.0	397208	COUNTDOWN_END	n/a	n/a	n/a	-999	3	[0, 0, 0]	n/a	FR1	0	R1394E
355.632	2.216	397208	ENCODING_START	n/a	n/a	n/a	-999	3	[0, 0, 0]	n/a	FR1	0	R1394E
357.848	1.6	399425	WORD	n/a	wordpools/wordpool_short_EN.txt	CLOCK	1	3	[0, 0, 0]	n/a	FR1	0	R1394E
359.465	0.866	401030	WORD_OFF	n/a	n/a	CLOCK	1	3	[0, 0, 0]	n/a	FR1	0	R1394E
360.331	1.6	401905	WORD	n/a	wordpools/wordpool_short_EN.txt	BATH	2	3	[0, 0, 0]	n/a	FR1	0	R1394E
361.931	1.0	403495	WORD_OFF	n/a	n/a	BATH	2	3	[0, 0, 0]	n/a	FR1	0	R1394E
362.931	1.6	404502	WORD	n/a	wordpools/wordpool_short_EN.txt	BRIDGE	3	3	[0, 0, 0]	n/a	FR1	0	R1394E
364.531	0.95	406106	WORD_OFF	n/a	n/a	BRIDGE	3	3	[0, 0, 0]	n/a	FR1	0	R1394E
365.481	1.6	407055	WORD	n/a	wordpools/wordpool_short_EN.txt	GOLD	4	3	[0, 0, 0]	n/a	FR1	0	R1394E
367.098	1.0	408674	WORD_OFF	n/a	n/a	GOLD	4	3	[0, 0, 0]	n/a	FR1	0	R1394E
368.098	1.6	409666	WORD	n/a	wordpools/wordpool_short_EN.txt	WHEEL	5	3	[0, 0, 0]	n/a	FR1	0	R1394E
369.698	0.85	411271	WORD_OFF	n/a	n/a	WHEEL	5	3	[0, 0, 0]	n/a	FR1	0	R1394E
370.548	1.6	412117	WORD	n/a	wordpools/wordpool_short_EN.txt	EEL	6	3	[0, 0, 0]	n/a	FR1	0	R1394E
372.164	0.801	413736	WORD_OFF	n/a	n/a	EEL	6	3	[0, 0, 0]	n/a	FR1	0	R1394E
372.965	1.6	414538	WORD	n/a	wordpools/wordpool_short_EN.txt	MEN	7	3	[0, 0, 0]	n/a	FR1	0	R1394E
374.565	0.783	416129	WORD_OFF	n/a	n/a	MEN	7	3	[0, 0, 0]	n/a	FR1	0	R1394E
375.348	1.6	416916	WORD	n/a	wordpools/wordpool_short_EN.txt	MIST	8	3	[0, 0, 0]	n/a	FR1	0	R1394E
376.965	0.883	418536	WORD_OFF	n/a	n/a	MIST	8	3	[0, 0, 0]	n/a	FR1	0	R1394E
377.848	1.6	419411	WORD	n/a	wordpools/wordpool_short_EN.txt	MOOSE	9	3	[0, 0, 0]	n/a	FR1	0	R1394E
379.448	0.867	421016	WORD_OFF	n/a	n/a	MOOSE	9	3	[0, 0, 0]	n/a	FR1	0	R1394E
380.315	1.6	421876	WORD	n/a	wordpools/wordpool_short_EN.txt	SPICE	10	3	[0, 0, 0]	n/a	FR1	0	R1394E
381.915	0.866	423481	WORD_OFF	n/a	n/a	SPICE	10	3	[0, 0, 0]	n/a	FR1	0	R1394E
382.781	1.6	424356	WORD	n/a	wordpools/wordpool_short_EN.txt	KEY	11	3	[0, 0, 0]	n/a	FR1	0	R1394E
384.398	0.85	425961	WORD_OFF	n/a	n/a	KEY	11	3	[0, 0, 0]	n/a	FR1	0	R1394E
385.248	1.6	426822	WORD	n/a	wordpools/wordpool_short_EN.txt	BLOOD	12	3	[0, 0, 0]	n/a	FR1	0	R1394E
386.848	0.0	428412	WORD_OFF	n/a	n/a	BLOOD	12	3	[0, 0, 0]	n/a	FR1	0	R1394E
386.848	0.002	428420	PROB	8.2	n/a	n/a	-999	3	[8, 1, 7]	16.0	FR1	0	R1394E
386.85	0.0	428422	START	n/a	n/a	n/a	-999	3	[-999, -999, -999]	n/a	FR1	0	R1394E
386.85	0.0	428426	ENCODING_END	n/a	n/a	n/a	-999	3	[0, 0, 0]	n/a	FR1	0	R1394E
386.85	8.215	428426	DISTRACT_START	n/a	n/a	n/a	-999	3	[0, 0, 0]	n/a	FR1	0	R1394E
395.065	6.233	436637	PROB	6.216	n/a	n/a	-999	3	[4, 1, 4]	9.0	FR1	0	R1394E
401.298	6.999	442869	PROB	6.983	n/a	n/a	-999	3	[6, 7, 1]	14.0	FR1	0	R1394E
408.297	0.0	449868	STOP	n/a	n/a	n/a	-999	3	[-999, -999, -999]	n/a	FR1	0	R1394E
408.297	1.767	449871	DISTRACT_END	n/a	n/a	n/a	-999	3	[0, 0, 0]	n/a	FR1	0	R1394E
410.064	2.52	451626	REC_START	n/a	n/a	n/a	-999	3	[0, 0, 0]	n/a	FR1	0	R1394E
412.584	27.778	454155	REC_WORD	2.52	n/a	BLOOD	12	3	[0, 0, 0]	n/a	FR1	0	R1394E
440.362	1.436	481925	REC_END	n/a	n/a	n/a	-999	3	[0, 0, 0]	n/a	FR1	0	R1394E
441.798	10.0	483366	COUNTDOWN_START	n/a	n/a	n/a	-999	4	[0, 0, 0]	n/a	FR1	0	R1394E
452.149	0.0	493709	COUNTDOWN_END	n/a	n/a	n/a	-999	4	[0, 0, 0]	n/a	FR1	0	R1394E
452.149	2.098	493723	ENCODING_START	n/a	n/a	n/a	-999	4	[0, 0, 0]	n/a	FR1	0	R1394E
454.247	1.6	495809	WORD	n/a	wordpools/wordpool_short_EN.txt	NIGHT	1	4	[0, 0, 0]	n/a	FR1	0	R1394E
455.848	0.967	497414	WORD_OFF	n/a	n/a	NIGHT	1	4	[0, 0, 0]	n/a	FR1	0	R1394E
456.815	1.6	498377	WORD	n/a	wordpools/wordpool_short_EN.txt	CURB	2	4	[0, 0, 0]	n/a	FR1	0	R1394E
458.415	0.816	499982	WORD_OFF	n/a	n/a	CURB	2	4	[0, 0, 0]	n/a	FR1	0	R1394E
459.231	1.6	500799	WORD	n/a	wordpools/wordpool_short_EN.txt	PEA	3	4	[0, 0, 0]	n/a	FR1	0	R1394E
460.831	0.984	502403	WORD_OFF	n/a	n/a	PEA	3	4	[0, 0, 0]	n/a	FR1	0	R1394E
461.815	1.6	503381	WORD	n/a	wordpools/wordpool_short_EN.txt	WAX	4	4	[0, 0, 0]	n/a	FR1	0	R1394E
463.431	0.983	505000	WORD_OFF	n/a	n/a	WAX	4	4	[0, 0, 0]	n/a	FR1	0	R1394E
464.414	1.6	505977	WORD	n/a	wordpools/wordpool_short_EN.txt	CAGE	5	4	[0, 0, 0]	n/a	FR1	0	R1394E
466.015	0.85	507582	WORD_OFF	n/a	n/a	CAGE	5	4	[0, 0, 0]	n/a	FR1	0	R1394E
466.865	1.6	508428	WORD	n/a	wordpools/wordpool_short_EN.txt	WAVE	6	4	[0, 0, 0]	n/a	FR1	0	R1394E
468.481	0.817	510048	WORD_OFF	n/a	n/a	WAVE	6	4	[0, 0, 0]	n/a	FR1	0	R1394E
469.298	1.6	510864	WORD	n/a	wordpools/wordpool_short_EN.txt	CLAY	7	4	[0, 0, 0]	n/a	FR1	0	R1394E
470.898	0.917	512469	WORD_OFF	n/a	n/a	CLAY	7	4	[0, 0, 0]	n/a	FR1	0	R1394E
471.815	1.6	513388	WORD	n/a	wordpools/wordpool_short_EN.txt	LENS	8	4	[0, 0, 0]	n/a	FR1	0	R1394E
473.415	0.933	514978	WORD_OFF	n/a	n/a	LENS	8	4	[0, 0, 0]	n/a	FR1	0	R1394E
474.348	1.6	515912	WORD	n/a	wordpools/wordpool_short_EN.txt	TRASH	9	4	[0, 0, 0]	n/a	FR1	0	R1394E
475.948	0.883	517517	WORD_OFF	n/a	n/a	TRASH	9	4	[0, 0, 0]	n/a	FR1	0	R1394E
476.831	1.6	518392	WORD	n/a	wordpools/wordpool_short_EN.txt	CUP	10	4	[0, 0, 0]	n/a	FR1	0	R1394E
478.431	0.867	519997	WORD_OFF	n/a	n/a	CUP	10	4	[0, 0, 0]	n/a	FR1	0	R1394E
479.298	1.6	520857	WORD	n/a	wordpools/wordpool_short_EN.txt	GLOVE	11	4	[0, 0, 0]	n/a	FR1	0	R1394E
480.898	0.833	522462	WORD_OFF	n/a	n/a	GLOVE	11	4	[0, 0, 0]	n/a	FR1	0	R1394E
481.731	1.6	523294	WORD	n/a	wordpools/wordpool_short_EN.txt	BOMB	12	4	[0, 0, 0]	n/a	FR1	0	R1394E
483.331	0.002	524898	WORD_OFF	n/a	n/a	BOMB	12	4	[0, 0, 0]	n/a	FR1	0	R1394E
483.333	0.0	524898	ENCODING_END	n/a	n/a	n/a	-999	4	[0, 0, 0]	n/a	FR1	0	R1394E
483.333	0.0	524898	DISTRACT_START	n/a	n/a	n/a	-999	4	[0, 0, 0]	n/a	FR1	0	R1394E
483.333	0.0	524902	START	n/a	n/a	n/a	-999	4	[-999, -999, -999]	n/a	FR1	0	R1394E
483.333	7.764	524902	PROB	7.749	n/a	n/a	-999	4	[8, 8, 2]	18.0	FR1	0	R1394E
491.097	5.334	532665	PROB	5.317	n/a	n/a	-999	4	[5, 2, 7]	14.0	FR1	0	R1394E
496.431	7.183	537999	PROB	7.166	n/a	n/a	-999	4	[2, 4, 5]	11.0	FR1	0	R1394E
503.614	0.0	545176	DISTRACT_END	n/a	n/a	n/a	-999	4	[0, 0, 0]	n/a	FR1	0	R1394E
503.614	1.784	545182	STOP	n/a	n/a	n/a	-999	4	[-999, -999, -999]	n/a	FR1	0	R1394E
505.398	1.914	546960	REC_START	n/a	n/a	n/a	-999	4	[0, 0, 0]	n/a	FR1	0	R1394E
507.312	1.827	548880	REC_WORD	1.914	n/a	WAVE	6	4	[0, 0, 0]	n/a	FR1	0	R1394E
509.139	5.307	550707	REC_WORD	3.741	n/a	WAX	4	4	[0, 0, 0]	n/a	FR1	0	R1394E
514.446	21.255	556014	REC_WORD	9.048	n/a	WIND	-999	4	[0, 0, 0]	n/a	FR1	0	R1394E
535.701	1.631	577259	REC_END	n/a	n/a	n/a	-999	4	[0, 0, 0]	n/a	FR1	0	R1394E
537.332	10.0	578904	COUNTDOWN_START	n/a	n/a	n/a	-999	5	[0, 0, 0]	n/a	FR1	0	R1394E
547.682	0.0	589247	COUNTDOWN_END	n/a	n/a	n/a	-999	5	[0, 0, 0]	n/a	FR1	0	R1394E
547.682	2.2	589247	ENCODING_START	n/a	n/a	n/a	-999	5	[0, 0, 0]	n/a	FR1	0	R1394E
549.882	1.6	591450	WORD	n/a	wordpools/wordpool_short_EN.txt	PLATE	1	5	[0, 0, 0]	n/a	FR1	0	R1394E
551.498	0.983	593055	WORD_OFF	n/a	n/a	PLATE	1	5	[0, 0, 0]	n/a	FR1	0	R1394E
552.481	1.6	594047	WORD	n/a	wordpools/wordpool_short_EN.txt	STEEL	2	5	[0, 0, 0]	n/a	FR1	0	R1394E
554.081	1.0	595651	WORD_OFF	n/a	n/a	STEEL	2	5	[0, 0, 0]	n/a	FR1	0	R1394E
555.081	1.6	596643	WORD	n/a	wordpools/wordpool_short_EN.txt	RICE	3	5	[0, 0, 0]	n/a	FR1	0	R1394E
556.681	0.884	598248	WORD_OFF	n/a	n/a	RICE	3	5	[0, 0, 0]	n/a	FR1	0	R1394E
557.565	1.6	599123	WORD	n/a	wordpools/wordpool_short_EN.txt	CAT	4	5	[0, 0, 0]	n/a	FR1	0	R1394E
559.181	0.95	600743	WORD_OFF	n/a	n/a	CAT	4	5	[0, 0, 0]	n/a	FR1	0	R1394E
560.131	1.6	601691	WORD	n/a	wordpools/wordpool_short_EN.txt	SWAMP	5	5	[0, 0, 0]	n/a	FR1	0	R1394E
561.732	0.783	603295	WORD_OFF	n/a	n/a	SWAMP	5	5	[0, 0, 0]	n/a	FR1	0	R1394E
562.515	1.6	604083	WORD	n/a	wordpools/wordpool_short_EN.txt	SHED	6	5	[0, 0, 0]	n/a	FR1	0	R1394E
564.115	0.966	605673	WORD_OFF	n/a	n/a	SHED	6	5	[0, 0, 0]	n/a	FR1	0	R1394E
565.081	1.6	606651	WORD	n/a	wordpools/wordpool_short_EN.txt	GEESE	7	5	[0, 0, 0]	n/a	FR1	0	R1394E
566.698	0.85	608270	WORD_OFF	n/a	n/a	GEESE	7	5	[0, 0, 0]	n/a	FR1	0	R1394E
567.548	1.6	609116	WORD	n/a	wordpools/wordpool_short_EN.txt	TOOTH	8	5	[0, 0, 0]	n/a	FR1	0	R1394E
569.148	0.983	610706	WORD_OFF	n/a	n/a	TOOTH	8	5	[0, 0, 0]	n/a	FR1	0	R1394E
570.131	1.6	611698	WORD	n/a	wordpools/wordpool_short_EN.txt	PARK	9	5	[0, 0, 0]	n/a	FR1	0	R1394E
571.731	0.784	613288	WORD_OFF	n/a	n/a	PARK	9	5	[0, 0, 0]	n/a	FR1	0	R1394E
572.515	1.6	614076	WORD	n/a	wordpools/wordpool_short_EN.txt	PILL	10	5	[0, 0, 0]	n/a	FR1	0	R1394E
574.115	0.816	615681	WORD_OFF	n/a	n/a	PILL	10	5	[0, 0, 0]	n/a	FR1	0	R1394E
574.931	1.6	616498	WORD	n/a	wordpools/wordpool_short_EN.txt	TIN	11	5	[0, 0, 0]	n/a	FR1	0	R1394E
576.531	0.917	618088	WORD_OFF	n/a	n/a	TIN	11	5	[0, 0, 0]	n/a	FR1	0	R1394E
577.448	1.6	619007	WORD	n/a	wordpools/wordpool_short_EN.txt	THROAT	12	5	[0, 0, 0]	n/a	FR1	0	R1394E
579.065	0.001	620626	WORD_OFF	n/a	n/a	THROAT	12	5	[0, 0, 0]	n/a	FR1	0	R1394E
579.066	0.0	620626	ENCODING_END	n/a	n/a	n/a	-999	5	[0, 0, 0]	n/a	FR1	0	R1394E
579.066	0.0	620626	DISTRACT_START	n/a	n/a	n/a	-999	5	[0, 0, 0]	n/a	FR1	0	R1394E
579.065	0.001	620630	PROB	7.216	n/a	n/a	-999	5	[6, 7, 4]	17.0	FR1	0	R1394E
579.066	7.232	620631	START	n/a	n/a	n/a	-999	5	[-999, -999, -999]	n/a	FR1	0	R1394E
586.298	8.65	627863	PROB	8.633	n/a	n/a	-999	5	[8, 6, 6]	20.0	FR1	0	R1394E
594.948	7.349	636513	PROB	7.333	n/a	n/a	-999	5	[3, 1, 7]	11.0	FR1	0	R1394E
602.297	0.0	643862	STOP	n/a	n/a	n/a	-999	5	[-999, -999, -999]	n/a	FR1	0	R1394E
602.297	1.583	643865	DISTRACT_END	n/a	n/a	n/a	-999	5	[0, 0, 0]	n/a	FR1	0	R1394E
603.88	29.999	645445	REC_START	n/a	n/a	n/a	-999	5	[0, 0, 0]	n/a	FR1	0	R1394E
633.879	0.285	675443	REC_WORD_VV	29.999	n/a	<>	-999	5	[0, 0, 0]	n/a	FR1	0	R1394E
634.164	2.501	675730	REC_END	n/a	n/a	n/a	-999	5	[0, 0, 0]	n/a	FR1	0	R1394E
636.665	10.0	678221	COUNTDOWN_START	n/a	n/a	n/a	-999	6	[0, 0, 0]	n/a	FR1	0	R1394E
647.016	0.0	688578	COUNTDOWN_END	n/a	n/a	n/a	-999	6	[0, 0, 0]	n/a	FR1	0	R1394E
647.016	2.031	688578	ENCODING_START	n/a	n/a	n/a	-999	6	[0, 0, 0]	n/a	FR1	0	R1394E
649.047	1.6	690606	WORD	n/a	wordpools/wordpool_short_EN.txt	DOCK	1	6	[0, 0, 0]	n/a	FR1	0	R1394E
650.65	0.931	692211	WORD_OFF	n/a	n/a	DOCK	1	6	[0, 0, 0]	n/a	FR1	0	R1394E
651.581	1.6	693144	WORD	n/a	wordpools/wordpool_short_EN.txt	WIG	2	6	[0, 0, 0]	n/a	FR1	0	R1394E
653.182	0.983	694749	WORD_OFF	n/a	n/a	WIG	2	6	[0, 0, 0]	n/a	FR1	0	R1394E
654.165	1.6	695726	WORD	n/a	wordpools/wordpool_short_EN.txt	CUBE	3	6	[0, 0, 0]	n/a	FR1	0	R1394E
655.765	0.783	697331	WORD_OFF	n/a	n/a	CUBE	3	6	[0, 0, 0]	n/a	FR1	0	R1394E
656.548	1.6	698104	WORD	n/a	wordpools/wordpool_short_EN.txt	JET	4	6	[0, 0, 0]	n/a	FR1	0	R1394E
658.148	0.817	699709	WORD_OFF	n/a	n/a	JET	4	6	[0, 0, 0]	n/a	FR1	0	R1394E
658.965	1.6	700526	WORD	n/a	wordpools/wordpool_short_EN.txt	LAMP	5	6	[0, 0, 0]	n/a	FR1	0	R1394E
660.565	0.783	702131	WORD_OFF	n/a	n/a	LAMP	5	6	[0, 0, 0]	n/a	FR1	0	R1394E
661.348	1.6	702904	WORD	n/a	wordpools/wordpool_short_EN.txt	SUIT	6	6	[0, 0, 0]	n/a	FR1	0	R1394E
662.965	0.8	704523	WORD_OFF	n/a	n/a	SUIT	6	6	[0, 0, 0]	n/a	FR1	0	R1394E
663.765	1.6	705325	WORD	n/a	wordpools/wordpool_short_EN.txt	HAY	7	6	[0, 0, 0]	n/a	FR1	0	R1394E
665.365	0.9	706930	WORD_OFF	n/a	n/a	HAY	7	6	[0, 0, 0]	n/a	FR1	0	R1394E
666.265	1.6	707820	WORD	n/a	wordpools/wordpool_short_EN.txt	TIE	8	6	[0, 0, 0]	n/a	FR1	0	R1394E
667.881	0.984	709439	WORD_OFF	n/a	n/a	TIE	8	6	[0, 0, 0]	n/a	FR1	0	R1394E
668.865	1.6	710431	WORD	n/a	wordpools/wordpool_short_EN.txt	AISLE	9	6	[0, 0, 0]	n/a	FR1	0	R1394E
670.481	0.984	712036	WORD_OFF	n/a	n/a	AISLE	9	6	[0, 0, 0]	n/a	FR1	0	R1394E
671.465	1.6	713028	WORD	n/a	wordpools/wordpool_short_EN.txt	GLASS	10	6	[0, 0, 0]	n/a	FR1	0	R1394E
673.081	0.966	714647	WORD_OFF	n/a	n/a	GLASS	10	6	[0, 0, 0]	n/a	FR1	0	R1394E
674.047	1.6	715610	WORD	n/a	wordpools/wordpool_short_EN.txt	SNAIL	11	6	[0, 0, 0]	n/a	FR1	0	R1394E
675.65	0.948	717215	WORD_OFF	n/a	n/a	SNAIL	11	6	[0, 0, 0]	n/a	FR1	0	R1394E
676.598	1.6	718163	WORD	n/a	wordpools/wordpool_short_EN.txt	WEB	12	6	[0, 0, 0]	n/a	FR1	0	R1394E
678.198	0.001	719753	WORD_OFF	n/a	n/a	WEB	12	6	[0, 0, 0]	n/a	FR1	0	R1394E
678.199	0.0	719753	ENCODING_END	n/a	n/a	n/a	-999	6	[0, 0, 0]	n/a	FR1	0	R1394E
678.199	0.0	719753	DISTRACT_START	n/a	n/a	n/a	-999	6	[0, 0, 0]	n/a	FR1	0	R1394E
678.198	0.001	719760	PROB	7.916	n/a	n/a	-999	6	[5, 2, 1]	8.0	FR1	0	R1394E
678.199	7.933	719761	START	n/a	n/a	n/a	-999	6	[-999, -999, -999]	n/a	FR1	0	R1394E
686.132	6.766	727694	PROB	6.749	n/a	n/a	-999	6	[3, 2, 2]	7.0	FR1	0	R1394E
692.898	5.365	734460	PROB	5.349	n/a	n/a	-999	6	[1, 3, 3]	7.0	FR1	0	R1394E
698.263	0.0	739824	STOP	n/a	n/a	n/a	-999	6	[-999, -999, -999]	n/a	FR1	0	R1394E
698.263	1.618	739827	DISTRACT_END	n/a	n/a	n/a	-999	6	[0, 0, 0]	n/a	FR1	0	R1394E
699.881	2.056	741435	REC_START	n/a	n/a	n/a	-999	6	[0, 0, 0]	n/a	FR1	0	R1394E
701.937	1.713	743498	REC_WORD	2.056	n/a	SUIT	6	6	[0, 0, 0]	n/a	FR1	0	R1394E
703.65	4.751	745211	REC_WORD	3.769	n/a	TIE	8	6	[0, 0, 0]	n/a	FR1	0	R1394E
708.401	21.789	749962	REC_WORD	8.52	n/a	RICE	-999	6	[0, 0, 0]	n/a	FR1	0	R1394E
730.19	1.775	771750	REC_END	n/a	n/a	n/a	-999	6	[0, 0, 0]	n/a	FR1	0	R1394E
731.965	10.0	773525	COUNTDOWN_START	n/a	n/a	n/a	-999	7	[0, 0, 0]	n/a	FR1	0	R1394E
742.315	0.001	783868	COUNTDOWN_END	n/a	n/a	n/a	-999	7	[0, 0, 0]	n/a	FR1	0	R1394E
742.316	1.848	783868	ENCODING_START	n/a	n/a	n/a	-999	7	[0, 0, 0]	n/a	FR1	0	R1394E
744.164	1.6	785721	WORD	n/a	wordpools/wordpool_short_EN.txt	PET	1	7	[0, 0, 0]	n/a	FR1	0	R1394E
745.765	0.933	787326	WORD_OFF	n/a	n/a	PET	1	7	[0, 0, 0]	n/a	FR1	0	R1394E
746.698	1.6	788259	WORD	n/a	wordpools/wordpool_short_EN.txt	JAIL	2	7	[0, 0, 0]	n/a	FR1	0	R1394E
748.298	0.85	789850	WORD_OFF	n/a	n/a	JAIL	2	7	[0, 0, 0]	n/a	FR1	0	R1394E
749.148	1.6	790710	WORD	n/a	wordpools/wordpool_short_EN.txt	SAUCE	3	7	[0, 0, 0]	n/a	FR1	0	R1394E
750.765	0.933	792315	WORD_OFF	n/a	n/a	SAUCE	3	7	[0, 0, 0]	n/a	FR1	0	R1394E
751.698	1.6	793249	WORD	n/a	wordpools/wordpool_short_EN.txt	STONE	4	7	[0, 0, 0]	n/a	FR1	0	R1394E
753.298	0.917	794853	WORD_OFF	n/a	n/a	STONE	4	7	[0, 0, 0]	n/a	FR1	0	R1394E
754.215	1.6	795772	WORD	n/a	wordpools/wordpool_short_EN.txt	WOLF	5	7	[0, 0, 0]	n/a	FR1	0	R1394E
755.815	0.95	797377	WORD_OFF	n/a	n/a	WOLF	5	7	[0, 0, 0]	n/a	FR1	0	R1394E
756.765	1.6	798325	WORD	n/a	wordpools/wordpool_short_EN.txt	SAIL	6	7	[0, 0, 0]	n/a	FR1	0	R1394E
758.365	0.8	799915	WORD_OFF	n/a	n/a	SAIL	6	7	[0, 0, 0]	n/a	FR1	0	R1394E
759.165	1.6	800718	WORD	n/a	wordpools/wordpool_short_EN.txt	BAY	7	7	[0, 0, 0]	n/a	FR1	0	R1394E
760.765	0.766	802323	WORD_OFF	n/a	n/a	BAY	7	7	[0, 0, 0]	n/a	FR1	0	R1394E
761.531	1.6	803081	WORD	n/a	wordpools/wordpool_short_EN.txt	STRING	8	7	[0, 0, 0]	n/a	FR1	0	R1394E
763.131	0.984	804686	WORD_OFF	n/a	n/a	STRING	8	7	[0, 0, 0]	n/a	FR1	0	R1394E
764.115	1.6	805678	WORD	n/a	wordpools/wordpool_short_EN.txt	BOLT	9	7	[0, 0, 0]	n/a	FR1	0	R1394E
765.715	0.883	807268	WORD_OFF	n/a	n/a	BOLT	9	7	[0, 0, 0]	n/a	FR1	0	R1394E
766.598	1.6	808158	WORD	n/a	wordpools/wordpool_short_EN.txt	PIPE	10	7	[0, 0, 0]	n/a	FR1	0	R1394E
768.215	0.799	809777	WORD_OFF	n/a	n/a	PIPE	10	7	[0, 0, 0]	n/a	FR1	0	R1394E
769.014	1.6	810565	WORD	n/a	wordpools/wordpool_short_EN.txt	VASE	11	7	[0, 0, 0]	n/a	FR1	0	R1394E
770.614	0.95	812170	WORD_OFF	n/a	n/a	VASE	11	7	[0, 0, 0]	n/a	FR1	0	R1394E
771.564	1.6	813118	WORD	n/a	wordpools/wordpool_short_EN.txt	STREET	12	7	[0, 0, 0]	n/a	FR1	0	R1394E
773.164	0.002	814723	WORD_OFF	n/a	n/a	STREET	12	7	[0, 0, 0]	n/a	FR1	0	R1394E
773.166	0.0	814723	ENCODING_END	n/a	n/a	n/a	-999	7	[0, 0, 0]	n/a	FR1	0	R1394E
773.166	0.0	814723	DISTRACT_START	n/a	n/a	n/a	-999	7	[0, 0, 0]	n/a	FR1	0	R1394E
773.165	0.001	814724	PROB	6.066	n/a	n/a	-999	7	[5, 1, 2]	8.0	FR1	0	R1394E
773.166	6.082	814725	START	n/a	n/a	n/a	-999	7	[-999, -999, -999]	n/a	FR1	0	R1394E
779.248	3.749	820807	PROB	3.733	n/a	n/a	-999	7	[2, 6, 4]	12.0	FR1	0	R1394E
782.997	4.717	824556	PROB	4.7	n/a	n/a	-999	7	[1, 1, 8]	10.0	FR1	0	R1394E
787.714	4.051	829272	PROB	4.033	n/a	n/a	-999	7	[6, 1, 1]	8.0	FR1	0	R1394E
791.765	5.082	833323	PROB	5.066	n/a	n/a	-999	7	[1, 1, 8]	10.0	FR1	0	R1394E
796.847	0.0	838399	DISTRACT_END	n/a	n/a	n/a	-999	7	[0, 0, 0]	n/a	FR1	0	R1394E
796.847	1.834	838405	STOP	n/a	n/a	n/a	-999	7	[-999, -999, -999]	n/a	FR1	0	R1394E
798.681	2.462	840241	REC_START	n/a	n/a	n/a	-999	7	[0, 0, 0]	n/a	FR1	0	R1394E
801.143	3.707	842701	REC_WORD	2.462	n/a	SAIL	6	7	[0, 0, 0]	n/a	FR1	0	R1394E
804.85	7.414	846408	REC_WORD	6.169	n/a	PET	1	7	[0, 0, 0]	n/a	FR1	0	R1394E
812.264	16.711	853822	REC_WORD	13.583	n/a	SNAIL	-999	7	[0, 0, 0]	n/a	FR1	0	R1394E
828.975	1.49	870526	REC_END	n/a	n/a	n/a	-999	7	[0, 0, 0]	n/a	FR1	0	R1394E
830.465	10.0	872025	COUNTDOWN_START	n/a	n/a	n/a	-999	8	[0, 0, 0]	n/a	FR1	0	R1394E
840.814	0.007	882368	COUNTDOWN_END	n/a	n/a	n/a	-999	8	[0, 0, 0]	n/a	FR1	0	R1394E
840.821	2.21	882383	ENCODING_START	n/a	n/a	n/a	-999	8	[0, 0, 0]	n/a	FR1	0	R1394E
843.031	1.6	884586	WORD	n/a	wordpools/wordpool_short_EN.txt	RAMP	1	8	[0, 0, 0]	n/a	FR1	0	R1394E
844.648	0.85	886205	WORD_OFF	n/a	n/a	RAMP	1	8	[0, 0, 0]	n/a	FR1	0	R1394E
845.498	1.6	887051	WORD	n/a	wordpools/wordpool_short_EN.txt	HEART	2	8	[0, 0, 0]	n/a	FR1	0	R1394E
847.098	0.933	888656	WORD_OFF	n/a	n/a	HEART	2	8	[0, 0, 0]	n/a	FR1	0	R1394E
848.031	1.6	889589	WORD	n/a	wordpools/wordpool_short_EN.txt	CLIFF	3	8	[0, 0, 0]	n/a	FR1	0	R1394E
849.647	0.967	891194	WORD_OFF	n/a	n/a	CLIFF	3	8	[0, 0, 0]	n/a	FR1	0	R1394E
850.614	1.6	892171	WORD	n/a	wordpools/wordpool_short_EN.txt	PIT	4	8	[0, 0, 0]	n/a	FR1	0	R1394E
852.214	0.783	893762	WORD_OFF	n/a	n/a	PIT	4	8	[0, 0, 0]	n/a	FR1	0	R1394E
852.997	1.6	894549	WORD	n/a	wordpools/wordpool_short_EN.txt	TOAD	5	8	[0, 0, 0]	n/a	FR1	0	R1394E
854.598	0.917	896154	WORD_OFF	n/a	n/a	TOAD	5	8	[0, 0, 0]	n/a	FR1	0	R1394E
855.515	1.6	897073	WORD	n/a	wordpools/wordpool_short_EN.txt	SPRING	6	8	[0, 0, 0]	n/a	FR1	0	R1394E
857.115	0.95	898663	WORD_OFF	n/a	n/a	SPRING	6	8	[0, 0, 0]	n/a	FR1	0	R1394E
858.065	1.6	899611	WORD	n/a	wordpools/wordpool_short_EN.txt	CHIEF	7	8	[0, 0, 0]	n/a	FR1	0	R1394E
859.681	0.767	901231	WORD_OFF	n/a	n/a	CHIEF	7	8	[0, 0, 0]	n/a	FR1	0	R1394E
860.448	1.6	902004	WORD	n/a	wordpools/wordpool_short_EN.txt	APE	8	8	[0, 0, 0]	n/a	FR1	0	R1394E
862.064	0.767	903623	WORD_OFF	n/a	n/a	APE	8	8	[0, 0, 0]	n/a	FR1	0	R1394E
862.831	1.6	904382	WORD	n/a	wordpools/wordpool_short_EN.txt	BOOT	9	8	[0, 0, 0]	n/a	FR1	0	R1394E
864.448	0.833	906001	WORD_OFF	n/a	n/a	BOOT	9	8	[0, 0, 0]	n/a	FR1	0	R1394E
865.281	1.6	906833	WORD	n/a	wordpools/wordpool_short_EN.txt	PRIZE	10	8	[0, 0, 0]	n/a	FR1	0	R1394E
866.881	0.766	908437	WORD_OFF	n/a	n/a	PRIZE	10	8	[0, 0, 0]	n/a	FR1	0	R1394E
867.647	1.6	909196	WORD	n/a	wordpools/wordpool_short_EN.txt	CHAIN	11	8	[0, 0, 0]	n/a	FR1	0	R1394E
869.248	0.766	910801	WORD_OFF	n/a	n/a	CHAIN	11	8	[0, 0, 0]	n/a	FR1	0	R1394E
870.014	1.6	911574	WORD	n/a	wordpools/wordpool_short_EN.txt	LAND	12	8	[0, 0, 0]	n/a	FR1	0	R1394E
871.614	0.002	913164	WORD_OFF	n/a	n/a	LAND	12	8	[0, 0, 0]	n/a	FR1	0	R1394E
871.616	0.0	913164	ENCODING_END	n/a	n/a	n/a	-999	8	[0, 0, 0]	n/a	FR1	0	R1394E
871.615	0.001	913171	PROB	4.315	n/a	n/a	-999	8	[2, 2, 2]	6.0	FR1	0	R1394E
871.616	0.0	913172	START	n/a	n/a	n/a	-999	8	[-999, -999, -999]	n/a	FR1	0	R1394E
871.616	4.331	913178	DISTRACT_START	n/a	n/a	n/a	-999	8	[0, 0, 0]	n/a	FR1	0	R1394E
875.947	3.834	917502	PROB	3.817	n/a	n/a	-999	8	[2, 2, 8]	12.0	FR1	0	R1394E
879.781	6.1	921336	PROB	6.083	n/a	n/a	-999	8	[2, 3, 7]	12.0	FR1	0	R1394E
885.881	11.618	927436	PROB	11.601	n/a	n/a	-999	8	[5, 4, 2]	11.0	FR1	0	R1394E
897.499	0.0	939054	STOP	n/a	n/a	n/a	-999	8	[-999, -999, -999]	n/a	FR1	0	R1394E
897.499	1.616	939058	DISTRACT_END	n/a	n/a	n/a	-999	8	[0, 0, 0]	n/a	FR1	0	R1394E
899.115	2.681	940667	REC_START	n/a	n/a	n/a	-999	8	[0, 0, 0]	n/a	FR1	0	R1394E
901.796	5.393	943351	REC_WORD	2.681	n/a	TOAD	5	8	[0, 0, 0]	n/a	FR1	0	R1394E
907.189	22.249	948743	REC_WORD	8.074	n/a	APE	8	8	[0, 0, 0]	n/a	FR1	0	R1394E
929.438	1.61	970996	REC_END	n/a	n/a	n/a	-999	8	[0, 0, 0]	n/a	FR1	0	R1394E
931.048	10.0	972596	COUNTDOWN_START	n/a	n/a	n/a	-999	9	[0, 0, 0]	n/a	FR1	0	R1394E
941.399	0.0	982954	COUNTDOWN_END	n/a	n/a	n/a	-999	9	[0, 0, 0]	n/a	FR1	0	R1394E
941.399	2.165	982954	ENCODING_START	n/a	n/a	n/a	-999	9	[0, 0, 0]	n/a	FR1	0	R1394E
943.564	1.6	985113	WORD	n/a	wordpools/wordpool_short_EN.txt	TROUT	1	9	[0, 0, 0]	n/a	FR1	0	R1394E
945.165	0.866	986718	WORD_OFF	n/a	n/a	TROUT	1	9	[0, 0, 0]	n/a	FR1	0	R1394E
946.031	1.6	987578	WORD	n/a	wordpools/wordpool_short_EN.txt	SKIN	2	9	[0, 0, 0]	n/a	FR1	0	R1394E
947.631	1.001	989183	WORD_OFF	n/a	n/a	SKIN	2	9	[0, 0, 0]	n/a	FR1	0	R1394E
948.632	1.6	990175	WORD	n/a	wordpools/wordpool_short_EN.txt	FROST	3	9	[0, 0, 0]	n/a	FR1	0	R1394E
950.248	0.9	991794	WORD_OFF	n/a	n/a	FROST	3	9	[0, 0, 0]	n/a	FR1	0	R1394E
951.148	1.6	992699	WORD	n/a	wordpools/wordpool_short_EN.txt	CHIN	4	9	[0, 0, 0]	n/a	FR1	0	R1394E
952.748	0.933	994304	WORD_OFF	n/a	n/a	CHIN	4	9	[0, 0, 0]	n/a	FR1	0	R1394E
953.681	1.6	995237	WORD	n/a	wordpools/wordpool_short_EN.txt	KNOB	5	9	[0, 0, 0]	n/a	FR1	0	R1394E
955.281	0.917	996827	WORD_OFF	n/a	n/a	KNOB	5	9	[0, 0, 0]	n/a	FR1	0	R1394E
956.198	1.6	997746	WORD	n/a	wordpools/wordpool_short_EN.txt	SWORD	6	9	[0, 0, 0]	n/a	FR1	0	R1394E
957.814	0.867	999366	WORD_OFF	n/a	n/a	SWORD	6	9	[0, 0, 0]	n/a	FR1	0	R1394E
958.681	1.6	1000226	WORD	n/a	wordpools/wordpool_short_EN.txt	CREAM	7	9	[0, 0, 0]	n/a	FR1	0	R1394E
960.298	0.8	1001846	WORD_OFF	n/a	n/a	CREAM	7	9	[0, 0, 0]	n/a	FR1	0	R1394E
961.098	1.6	1002648	WORD	n/a	wordpools/wordpool_short_EN.txt	BLUSH	8	9	[0, 0, 0]	n/a	FR1	0	R1394E
962.714	0.867	1004267	WORD_OFF	n/a	n/a	BLUSH	8	9	[0, 0, 0]	n/a	FR1	0	R1394E
963.581	1.6	1005128	WORD	n/a	wordpools/wordpool_short_EN.txt	SNAKE	9	9	[0, 0, 0]	n/a	FR1	0	R1394E
965.181	0.817	1006733	WORD_OFF	n/a	n/a	SNAKE	9	9	[0, 0, 0]	n/a	FR1	0	R1394E
965.998	1.6	1007550	WORD	n/a	wordpools/wordpool_short_EN.txt	HOUSE	10	9	[0, 0, 0]	n/a	FR1	0	R1394E
967.597	0.967	1009154	WORD_OFF	n/a	n/a	HOUSE	10	9	[0, 0, 0]	n/a	FR1	0	R1394E
968.564	1.6	1010117	WORD	n/a	wordpools/wordpool_short_EN.txt	DITCH	11	9	[0, 0, 0]	n/a	FR1	0	R1394E
970.181	0.9	1011736	WORD_OFF	n/a	n/a	DITCH	11	9	[0, 0, 0]	n/a	FR1	0	R1394E
971.081	1.6	1012626	WORD	n/a	wordpools/wordpool_short_EN.txt	OIL	12	9	[0, 0, 0]	n/a	FR1	0	R1394E
972.697	0.002	1014246	WORD_OFF	n/a	n/a	OIL	12	9	[0, 0, 0]	n/a	FR1	0	R1394E
972.699	0.0	1014246	ENCODING_END	n/a	n/a	n/a	-999	9	[0, 0, 0]	n/a	FR1	0	R1394E
972.699	0.0	1014246	DISTRACT_START	n/a	n/a	n/a	-999	9	[0, 0, 0]	n/a	FR1	0	R1394E
972.698	0.001	1014250	PROB	5.666	n/a	n/a	-999	9	[2, 3, 5]	10.0	FR1	0	R1394E
972.699	5.682	1014251	START	n/a	n/a	n/a	-999	9	[-999, -999, -999]	n/a	FR1	0	R1394E
978.381	5.967	1019933	PROB	5.95	n/a	n/a	-999	9	[4, 2, 3]	9.0	FR1	0	R1394E
984.348	7.267	1025900	PROB	7.25	n/a	n/a	-999	9	[8, 4, 5]	17.0	FR1	0	R1394E
991.615	6.716	1033167	PROB	6.699	n/a	n/a	-999	9	[6, 6, 3]	15.0	FR1	0	R1394E
998.331	0.0	1039877	DISTRACT_END	n/a	n/a	n/a	-999	9	[0, 0, 0]	n/a	FR1	0	R1394E
998.331	1.683	1039882	STOP	n/a	n/a	n/a	-999	9	[-999, -999, -999]	n/a	FR1	0	R1394E
1000.014	2.683	1041559	REC_START	n/a	n/a	n/a	-999	9	[0, 0, 0]	n/a	FR1	0	R1394E
1002.697	6.043	1044248	REC_WORD	2.683	n/a	SWORD	6	9	[0, 0, 0]	n/a	FR1	0	R1394E
1008.74	17.92	1050291	REC_WORD	8.726	n/a	TROUT	1	9	[0, 0, 0]	n/a	FR1	0	R1394E
1026.66	3.642	1068210	REC_WORD	26.646	n/a	TIN	-999	9	[0, 0, 0]	n/a	FR1	0	R1394E
1030.302	1.88	1071844	REC_END	n/a	n/a	n/a	-999	9	[0, 0, 0]	n/a	FR1	0	R1394E
1032.182	10.0	1073736	COUNTDOWN_START	n/a	n/a	n/a	-999	10	[0, 0, 0]	n/a	FR1	0	R1394E
1042.532	0.0	1084079	COUNTDOWN_END	n/a	n/a	n/a	-999	10	[0, 0, 0]	n/a	FR1	0	R1394E
1042.532	2.166	1084079	ENCODING_START	n/a	n/a	n/a	-999	10	[0, 0, 0]	n/a	FR1	0	R1394E
1044.698	1.6	1086238	WORD	n/a	wordpools/wordpool_short_EN.txt	BIN	1	10	[0, 0, 0]	n/a	FR1	0	R1394E
1046.314	0.767	1087858	WORD_OFF	n/a	n/a	BIN	1	10	[0, 0, 0]	n/a	FR1	0	R1394E
1047.081	1.6	1088631	WORD	n/a	wordpools/wordpool_short_EN.txt	WING	2	10	[0, 0, 0]	n/a	FR1	0	R1394E
1048.681	0.867	1090221	WORD_OFF	n/a	n/a	WING	2	10	[0, 0, 0]	n/a	FR1	0	R1394E
1049.548	1.6	1091096	WORD	n/a	wordpools/wordpool_short_EN.txt	MOUSE	3	10	[0, 0, 0]	n/a	FR1	0	R1394E
1051.164	0.85	1092716	WORD_OFF	n/a	n/a	MOUSE	3	10	[0, 0, 0]	n/a	FR1	0	R1394E
1052.014	1.6	1093562	WORD	n/a	wordpools/wordpool_short_EN.txt	HOSE	4	10	[0, 0, 0]	n/a	FR1	0	R1394E
1053.631	0.8	1095181	WORD_OFF	n/a	n/a	HOSE	4	10	[0, 0, 0]	n/a	FR1	0	R1394E
1054.431	1.6	1095983	WORD	n/a	wordpools/wordpool_short_EN.txt	STICK	5	10	[0, 0, 0]	n/a	FR1	0	R1394E
1056.031	1.0	1097574	WORD_OFF	n/a	n/a	STICK	5	10	[0, 0, 0]	n/a	FR1	0	R1394E
1057.031	1.6	1098580	WORD	n/a	wordpools/wordpool_short_EN.txt	NET	6	10	[0, 0, 0]	n/a	FR1	0	R1394E
1058.631	0.9	1100170	WORD_OFF	n/a	n/a	NET	6	10	[0, 0, 0]	n/a	FR1	0	R1394E
1059.531	1.6	1101075	WORD	n/a	wordpools/wordpool_short_EN.txt	MULE	7	10	[0, 0, 0]	n/a	FR1	0	R1394E
1061.131	0.983	1102679	WORD_OFF	n/a	n/a	MULE	7	10	[0, 0, 0]	n/a	FR1	0	R1394E
1062.114	1.6	1103657	WORD	n/a	wordpools/wordpool_short_EN.txt	LANE	8	10	[0, 0, 0]	n/a	FR1	0	R1394E
1063.714	0.933	1105262	WORD_OFF	n/a	n/a	LANE	8	10	[0, 0, 0]	n/a	FR1	0	R1394E
1064.647	1.6	1106195	WORD	n/a	wordpools/wordpool_short_EN.txt	BOARD	9	10	[0, 0, 0]	n/a	FR1	0	R1394E
1066.247	0.983	1107800	WORD_OFF	n/a	n/a	BOARD	9	10	[0, 0, 0]	n/a	FR1	0	R1394E
1067.23	1.6	1108777	WORD	n/a	wordpools/wordpool_short_EN.txt	POLE	10	10	[0, 0, 0]	n/a	FR1	0	R1394E
1068.83	0.784	1110382	WORD_OFF	n/a	n/a	POLE	10	10	[0, 0, 0]	n/a	FR1	0	R1394E
1069.614	1.6	1111155	WORD	n/a	wordpools/wordpool_short_EN.txt	BARN	11	10	[0, 0, 0]	n/a	FR1	0	R1394E
1071.214	0.833	1112760	WORD_OFF	n/a	n/a	BARN	11	10	[0, 0, 0]	n/a	FR1	0	R1394E
1072.047	1.6	1113591	WORD	n/a	wordpools/wordpool_short_EN.txt	SEAL	12	10	[0, 0, 0]	n/a	FR1	0	R1394E
1073.647	0.002	1115196	WORD_OFF	n/a	n/a	SEAL	12	10	[0, 0, 0]	n/a	FR1	0	R1394E
1073.649	0.0	1115196	ENCODING_END	n/a	n/a	n/a	-999	10	[0, 0, 0]	n/a	FR1	0	R1394E
1073.649	0.0	1115196	DISTRACT_START	n/a	n/a	n/a	-999	10	[0, 0, 0]	n/a	FR1	0	R1394E
1073.648	0.001	1115197	PROB	10.449	n/a	n/a	-999	10	[8, 5, 3]	16.0	FR1	0	R1394E
1073.649	10.466	1115198	START	n/a	n/a	n/a	-999	10	[-999, -999, -999]	n/a	FR1	0	R1394E
1084.115	5.017	1125663	PROB	5.0	n/a	n/a	-999	10	[2, 1, 2]	5.0	FR1	0	R1394E
1089.132	3.315	1130680	PROB	3.299	n/a	n/a	-999	10	[4, 1, 4]	9.0	FR1	0	R1394E
1092.447	3.751	1133995	PROB	3.734	n/a	n/a	-999	10	[2, 1, 2]	5.0	FR1	0	R1394E
1096.198	0.0	1137746	STOP	n/a	n/a	n/a	-999	10	[-999, -999, -999]	n/a	FR1	0	R1394E
1096.198	1.633	1137750	DISTRACT_END	n/a	n/a	n/a	-999	10	[0, 0, 0]	n/a	FR1	0	R1394E
1097.831	1.231	1139373	REC_START	n/a	n/a	n/a	-999	10	[0, 0, 0]	n/a	FR1	0	R1394E
1099.062	2.357	1140610	REC_WORD	1.231	n/a	BOARD	9	10	[0, 0, 0]	n/a	FR1	0	R1394E
1101.419	26.7	1142967	REC_WORD	3.588	n/a	BARN	11	10	[0, 0, 0]	n/a	FR1	0	R1394E
1128.119	1.396	1169658	REC_END	n/a	n/a	n/a	-999	10	[0, 0, 0]	n/a	FR1	0	R1394E
1129.515	10.0	1171054	COUNTDOWN_START	n/a	n/a	n/a	-999	11	[0, 0, 0]	n/a	FR1	0	R1394E
1139.865	0.0	1181412	COUNTDOWN_END	n/a	n/a	n/a	-999	11	[0, 0, 0]	n/a	FR1	0	R1394E
1139.865	1.933	1181412	ENCODING_START	n/a	n/a	n/a	-999	11	[0, 0, 0]	n/a	FR1	0	R1394E
1141.798	1.6	1183338	WORD	n/a	wordpools/wordpool_short_EN.txt	FRUIT	1	11	[0, 0, 0]	n/a	FR1	0	R1394E
1143.398	0.783	1184942	WORD_OFF	n/a	n/a	FRUIT	1	11	[0, 0, 0]	n/a	FR1	0	R1394E
1144.181	1.6	1185730	WORD	n/a	wordpools/wordpool_short_EN.txt	BOWL	2	11	[0, 0, 0]	n/a	FR1	0	R1394E
1145.798	0.966	1187349	WORD_OFF	n/a	n/a	BOWL	2	11	[0, 0, 0]	n/a	FR1	0	R1394E
1146.764	1.6	1188312	WORD	n/a	wordpools/wordpool_short_EN.txt	FOOD	3	11	[0, 0, 0]	n/a	FR1	0	R1394E
1148.364	0.817	1189902	WORD_OFF	n/a	n/a	FOOD	3	11	[0, 0, 0]	n/a	FR1	0	R1394E
1149.181	1.6	1190719	WORD	n/a	wordpools/wordpool_short_EN.txt	YARD	4	11	[0, 0, 0]	n/a	FR1	0	R1394E
1150.781	0.785	1192324	WORD_OFF	n/a	n/a	YARD	4	11	[0, 0, 0]	n/a	FR1	0	R1394E
1151.566	1.6	1193112	WORD	n/a	wordpools/wordpool_short_EN.txt	BUSH	5	11	[0, 0, 0]	n/a	FR1	0	R1394E
1153.164	0.984	1194702	WORD_OFF	n/a	n/a	BUSH	5	11	[0, 0, 0]	n/a	FR1	0	R1394E
1154.148	1.6	1195694	WORD	n/a	wordpools/wordpool_short_EN.txt	MOSS	6	11	[0, 0, 0]	n/a	FR1	0	R1394E
1155.764	0.983	1197313	WORD_OFF	n/a	n/a	MOSS	6	11	[0, 0, 0]	n/a	FR1	0	R1394E
1156.747	1.6	1198291	WORD	n/a	wordpools/wordpool_short_EN.txt	FUR	7	11	[0, 0, 0]	n/a	FR1	0	R1394E
1158.364	0.883	1199910	WORD_OFF	n/a	n/a	FUR	7	11	[0, 0, 0]	n/a	FR1	0	R1394E
1159.247	1.6	1200785	WORD	n/a	wordpools/wordpool_short_EN.txt	CASH	8	11	[0, 0, 0]	n/a	FR1	0	R1394E
1160.847	0.983	1202390	WORD_OFF	n/a	n/a	CASH	8	11	[0, 0, 0]	n/a	FR1	0	R1394E
1161.83	1.6	1203367	WORD	n/a	wordpools/wordpool_short_EN.txt	ROPE	9	11	[0, 0, 0]	n/a	FR1	0	R1394E
1163.431	0.999	1204972	WORD_OFF	n/a	n/a	ROPE	9	11	[0, 0, 0]	n/a	FR1	0	R1394E
1164.43	1.6	1205979	WORD	n/a	wordpools/wordpool_short_EN.txt	TAIL	10	11	[0, 0, 0]	n/a	FR1	0	R1394E
1166.031	0.967	1207569	WORD_OFF	n/a	n/a	TAIL	10	11	[0, 0, 0]	n/a	FR1	0	R1394E
1166.998	1.6	1208546	WORD	n/a	wordpools/wordpool_short_EN.txt	MOON	11	11	[0, 0, 0]	n/a	FR1	0	R1394E
1168.598	0.8	1210136	WORD_OFF	n/a	n/a	MOON	11	11	[0, 0, 0]	n/a	FR1	0	R1394E
1169.398	1.6	1210939	WORD	n/a	wordpools/wordpool_short_EN.txt	PAN	12	11	[0, 0, 0]	n/a	FR1	0	R1394E
1170.999	0.001	1212543	WORD_OFF	n/a	n/a	PAN	12	11	[0, 0, 0]	n/a	FR1	0	R1394E
1171.0	0.0	1212543	ENCODING_END	n/a	n/a	n/a	-999	11	[0, 0, 0]	n/a	FR1	0	R1394E
1171.0	0.0	1212543	DISTRACT_START	n/a	n/a	n/a	-999	11	[0, 0, 0]	n/a	FR1	0	R1394E
1171.0	0.0	1212546	START	n/a	n/a	n/a	-999	11	[-999, -999, -999]	n/a	FR1	0	R1394E
1171.0	9.481	1212546	PROB	9.465	n/a	n/a	-999	11	[2, 5, 7]	14.0	FR1	0	R1394E
1180.481	4.817	1222026	PROB	4.8	n/a	n/a	-999	11	[1, 2, 8]	11.0	FR1	0	R1394E
1185.298	5.05	1226843	PROB	5.033	n/a	n/a	-999	11	[4, 6, 5]	15.0	FR1	0	R1394E
1190.348	5.683	1231893	PROB	5.667	n/a	n/a	-999	11	[8, 5, 2]	15.0	FR1	0	R1394E
1196.031	0.0	1237576	STOP	n/a	n/a	n/a	-999	11	[-999, -999, -999]	n/a	FR1	0	R1394E
1196.031	1.866	1237577	DISTRACT_END	n/a	n/a	n/a	-999	11	[0, 0, 0]	n/a	FR1	0	R1394E
1197.897	2.235	1239433	REC_START	n/a	n/a	n/a	-999	11	[0, 0, 0]	n/a	FR1	0	R1394E
1200.132	3.258	1241677	REC_WORD	2.235	n/a	FRUIT	1	11	[0, 0, 0]	n/a	FR1	0	R1394E
1203.39	24.807	1244934	REC_WORD	5.493	n/a	BOWL	2	11	[0, 0, 0]	n/a	FR1	0	R1394E
1228.197	1.685	1269733	REC_END	n/a	n/a	n/a	-999	11	[0, 0, 0]	n/a	FR1	0	R1394E
1229.882	10.0	1271421	COUNTDOWN_START	n/a	n/a	n/a	-999	12	[0, 0, 0]	n/a	FR1	0	R1394E
1240.232	0.0	1281779	COUNTDOWN_END	n/a	n/a	n/a	-999	12	[0, 0, 0]	n/a	FR1	0	R1394E
1240.232	2.166	1281779	ENCODING_START	n/a	n/a	n/a	-999	12	[0, 0, 0]	n/a	FR1	0	R1394E
1242.398	1.6	1283938	WORD	n/a	wordpools/wordpool_short_EN.txt	STOOL	1	12	[0, 0, 0]	n/a	FR1	0	R1394E
1243.998	0.852	1285543	WORD_OFF	n/a	n/a	STOOL	1	12	[0, 0, 0]	n/a	FR1	0	R1394E
1244.85	1.6	1286389	WORD	n/a	wordpools/wordpool_short_EN.txt	PRINCE	2	12	[0, 0, 0]	n/a	FR1	0	R1394E
1246.448	0.8	1287994	WORD_OFF	n/a	n/a	PRINCE	2	12	[0, 0, 0]	n/a	FR1	0	R1394E
1247.248	1.6	1288781	WORD	n/a	wordpools/wordpool_short_EN.txt	THREAD	3	12	[0, 0, 0]	n/a	FR1	0	R1394E
1248.865	0.916	1290401	WORD_OFF	n/a	n/a	THREAD	3	12	[0, 0, 0]	n/a	FR1	0	R1394E
1249.781	1.6	1291320	WORD	n/a	wordpools/wordpool_short_EN.txt	CROWN	4	12	[0, 0, 0]	n/a	FR1	0	R1394E
1251.381	0.967	1292924	WORD_OFF	n/a	n/a	CROWN	4	12	[0, 0, 0]	n/a	FR1	0	R1394E
1252.348	1.6	1293887	WORD	n/a	wordpools/wordpool_short_EN.txt	VINE	5	12	[0, 0, 0]	n/a	FR1	0	R1394E
1253.964	0.834	1295507	WORD_OFF	n/a	n/a	VINE	5	12	[0, 0, 0]	n/a	FR1	0	R1394E
1254.798	1.6	1296338	WORD	n/a	wordpools/wordpool_short_EN.txt	CHALK	6	12	[0, 0, 0]	n/a	FR1	0	R1394E
1256.398	0.8	1297943	WORD_OFF	n/a	n/a	CHALK	6	12	[0, 0, 0]	n/a	FR1	0	R1394E
1257.198	1.6	1298745	WORD	n/a	wordpools/wordpool_short_EN.txt	LOCK	7	12	[0, 0, 0]	n/a	FR1	0	R1394E
1258.814	0.8	1300350	WORD_OFF	n/a	n/a	LOCK	7	12	[0, 0, 0]	n/a	FR1	0	R1394E
1259.614	1.6	1301152	WORD	n/a	wordpools/wordpool_short_EN.txt	KITE	8	12	[0, 0, 0]	n/a	FR1	0	R1394E
1261.214	0.816	1302757	WORD_OFF	n/a	n/a	KITE	8	12	[0, 0, 0]	n/a	FR1	0	R1394E
1262.03	1.6	1303574	WORD	n/a	wordpools/wordpool_short_EN.txt	WOOD	9	12	[0, 0, 0]	n/a	FR1	0	R1394E
1263.631	0.783	1305164	WORD_OFF	n/a	n/a	WOOD	9	12	[0, 0, 0]	n/a	FR1	0	R1394E
1264.414	1.6	1305952	WORD	n/a	wordpools/wordpool_short_EN.txt	SEAT	10	12	[0, 0, 0]	n/a	FR1	0	R1394E
1266.014	0.784	1307556	WORD_OFF	n/a	n/a	SEAT	10	12	[0, 0, 0]	n/a	FR1	0	R1394E
1266.798	1.6	1308344	WORD	n/a	wordpools/wordpool_short_EN.txt	POND	11	12	[0, 0, 0]	n/a	FR1	0	R1394E
1268.398	0.817	1309934	WORD_OFF	n/a	n/a	POND	11	12	[0, 0, 0]	n/a	FR1	0	R1394E
1269.215	1.6	1310751	WORD	n/a	wordpools/wordpool_short_EN.txt	SHARK	12	12	[0, 0, 0]	n/a	FR1	0	R1394E
1270.815	0.001	1312356	WORD_OFF	n/a	n/a	SHARK	12	12	[0, 0, 0]	n/a	FR1	0	R1394E
1270.816	0.0	1312356	ENCODING_END	n/a	n/a	n/a	-999	12	[0, 0, 0]	n/a	FR1	0	R1394E
1270.816	0.0	1312356	DISTRACT_START	n/a	n/a	n/a	-999	12	[0, 0, 0]	n/a	FR1	0	R1394E
1270.816	0.0	1312358	START	n/a	n/a	n/a	-999	12	[-999, -999, -999]	n/a	FR1	0	R1394E
1270.816	5.016	1312358	PROB	4.999	n/a	n/a	-999	12	[5, 5, 1]	11.0	FR1	0	R1394E
1275.832	4.95	1317374	PROB	4.933	n/a	n/a	-999	12	[6, 6, 1]	13.0	FR1	0	R1394E
1280.782	5.367	1322324	PROB	5.349	n/a	n/a	-999	12	[7, 6, 7]	20.0	FR1	0	R1394E
1286.149	5.201	1327691	PROB	5.182	n/a	n/a	-999	12	[7, 5, 3]	15.0	FR1	0	R1394E
1291.35	0.0	1332882	DISTRACT_END	n/a	n/a	n/a	-999	12	[0, 0, 0]	n/a	FR1	0	R1394E
1291.35	1.73	1332892	STOP	n/a	n/a	n/a	-999	12	[-999, -999, -999]	n/a	FR1	0	R1394E
1293.08	1.232	1334622	REC_START	n/a	n/a	n/a	-999	12	[0, 0, 0]	n/a	FR1	0	R1394E
1294.312	2.65	1335853	REC_WORD	1.232	n/a	PRINCE	2	12	[0, 0, 0]	n/a	FR1	0	R1394E
1296.962	2.873	1338503	REC_WORD	3.882	n/a	CROWN	4	12	[0, 0, 0]	n/a	FR1	0	R1394E
1299.835	5.328	1341376	REC_WORD	6.755	n/a	KITE	8	12	[0, 0, 0]	n/a	FR1	0	R1394E
1305.163	1.522	1346704	REC_WORD	12.083	n/a	SHARK	12	12	[0, 0, 0]	n/a	FR1	0	R1394E
1306.685	16.704	1348226	REC_WORD	13.605	n/a	POND	11	12	[0, 0, 0]	n/a	FR1	0	R1394E
1323.389	0.0	1364921	REC_END	n/a	n/a	n/a	-999	12	[0, 0, 0]	n/a	FR1	0	R1394E
