onset	duration	sample	trial_type	response_time	stim_file	item_name	serialpos	list	test	answer	experiment	session	subject
0.0	212.131	36193	INSTRUCT_START	n/a	n/a	n/a	-999	-999	[0, 0, 0]	n/a	FR1	1	R1457T
212.131	0.0	114325	START	n/a	n/a	n/a	-999	-1	[-999, -999, -999]	n/a	FR1	1	R1457T
212.131	8.534	114325	PROB	8.516	n/a	n/a	-999	-1	[6, 8, 4]	18.0	FR1	1	R1457T
220.665	5.232	122860	PROB	5.215	n/a	n/a	-999	-1	[4, 8, 3]	15.0	FR1	1	R1457T
225.897	4.85	128092	PROB	4.833	n/a	n/a	-999	-1	[8, 4, 2]	14.0	FR1	1	R1457T
230.747	3.367	132943	PROB	3.35	n/a	n/a	-999	-1	[2, 3, 6]	11.0	FR1	1	R1457T
234.114	3.616	136310	STOP	n/a	n/a	n/a	-999	-1	[-999, -999, -999]	n/a	FR1	1	R1457T
237.73	2.556	139926	REC_WORD	1.499	n/a	STAIR	4	-1	[0, 0, 0]	n/a	FR1	1	R1457T
240.286	3.775	142482	REC_WORD	4.055	n/a	CHURCH	11	-1	[0, 0, 0]	n/a	FR1	1	R1457T
244.061	0.0	146258	REC_WORD	7.83	n/a	AWAKE	-999	-1	[0, 0, 0]	n/a	FR1	1	R1457T
147.265	23.681	183448	INSTRUCT_END	n/a	n/a	n/a	-999	-999	[0, 0, 0]	n/a	FR1	1	R1457T
170.946	10.0	207129	COUNTDOWN_START	n/a	n/a	n/a	-999	-999	[0, 0, 0]	n/a	FR1	1	R1457T
181.296	0.0	217474	COUNTDOWN_END	n/a	n/a	n/a	-999	-999	[0, 0, 0]	n/a	FR1	1	R1457T
181.296	2.002	217474	ENCODING_START	n/a	n/a	n/a	-999	-1	[0, 0, 0]	n/a	FR1	1	R1457T
183.298	1.6	219472	WORD	n/a	n/a	SNACK	1	-1	[0, 0, 0]	n/a	FR1	1	R1457T
184.914	1.0	221088	WORD_OFF	n/a	n/a	SNACK	1	-1	[0, 0, 0]	n/a	FR1	1	R1457T
185.914	1.6	222094	WORD	n/a	n/a	FRAME	2	-1	[0, 0, 0]	n/a	FR1	1	R1457T
187.514	0.767	223695	WORD_OFF	n/a	n/a	FRAME	2	-1	[0, 0, 0]	n/a	FR1	1	R1457T
188.281	1.6	224461	WORD	n/a	n/a	TANK	3	-1	[0, 0, 0]	n/a	FR1	1	R1457T
189.881	0.916	226062	WORD_OFF	n/a	n/a	TANK	3	-1	[0, 0, 0]	n/a	FR1	1	R1457T
190.797	1.6	226983	WORD	n/a	n/a	STAIR	4	-1	[0, 0, 0]	n/a	FR1	1	R1457T
192.414	0.983	228599	WORD_OFF	n/a	n/a	STAIR	4	-1	[0, 0, 0]	n/a	FR1	1	R1457T
193.397	1.6	229576	WORD	n/a	n/a	PLANT	5	-1	[0, 0, 0]	n/a	FR1	1	R1457T
328.214	0.001	230417	PROB	7.033	n/a	n/a	-999	1	[7, 3, 1]	11.0	FR1	1	R1457T
328.215	0.0	230418	START	n/a	n/a	n/a	-999	1	[-999, -999, -999]	n/a	FR1	1	R1457T
194.998	0.766	231178	WORD_OFF	n/a	n/a	PLANT	5	-1	[0, 0, 0]	n/a	FR1	1	R1457T
195.764	1.6	231943	WORD	n/a	n/a	BOY	6	-1	[0, 0, 0]	n/a	FR1	1	R1457T
197.364	0.833	233544	WORD_OFF	n/a	n/a	BOY	6	-1	[0, 0, 0]	n/a	FR1	1	R1457T
198.197	1.6	234381	WORD	n/a	n/a	TOWN	7	-1	[0, 0, 0]	n/a	FR1	1	R1457T
199.814	0.767	235996	WORD_OFF	n/a	n/a	TOWN	7	-1	[0, 0, 0]	n/a	FR1	1	R1457T
200.581	1.6	236761	WORD	n/a	n/a	BAND	8	-1	[0, 0, 0]	n/a	FR1	1	R1457T
335.264	0.0	237467	PROB	4.115	n/a	n/a	-999	1	[5, 7, 7]	19.0	FR1	1	R1457T
202.196	0.767	238377	WORD_OFF	n/a	n/a	BAND	8	-1	[0, 0, 0]	n/a	FR1	1	R1457T
202.963	1.6	239142	WORD	n/a	n/a	BRANCH	9	-1	[0, 0, 0]	n/a	FR1	1	R1457T
204.564	134.833	240744	WORD_OFF	n/a	n/a	BRANCH	9	-1	[0, 0, 0]	n/a	FR1	1	R1457T
339.397	0.0	241600	PROB	3.284	n/a	n/a	-999	1	[1, 8, 4]	13.0	FR1	1	R1457T
205.53	1.6	241707	WORD	n/a	n/a	GATE	10	-1	[0, 0, 0]	n/a	FR1	1	R1457T
207.131	0.916	243309	WORD_OFF	n/a	n/a	GATE	10	-1	[0, 0, 0]	n/a	FR1	1	R1457T
208.047	1.6	244230	WORD	n/a	n/a	CHURCH	11	-1	[0, 0, 0]	n/a	FR1	1	R1457T
342.698	0.0	244902	PROB	4.283	n/a	n/a	-999	1	[7, 2, 6]	15.0	FR1	1	R1457T
209.647	0.882	245831	WORD_OFF	n/a	n/a	CHURCH	11	-1	[0, 0, 0]	n/a	FR1	1	R1457T
210.529	1.6	246710	WORD	n/a	n/a	JUDGE	12	-1	[0, 0, 0]	n/a	FR1	1	R1457T
212.13	0.001	248311	WORD_OFF	n/a	n/a	JUDGE	12	-1	[0, 0, 0]	n/a	FR1	1	R1457T
212.131	0.0	248311	ENCODING_END	n/a	n/a	n/a	-999	-1	[0, 0, 0]	n/a	FR1	1	R1457T
212.131	134.866	248311	DISTRACT_START	n/a	n/a	n/a	-999	-1	[0, 0, 0]	n/a	FR1	1	R1457T
346.997	3.967	249201	PROB	3.95	n/a	n/a	-999	1	[2, 2, 1]	5.0	FR1	1	R1457T
350.964	2.765	253168	STOP	n/a	n/a	n/a	-999	1	[-999, -999, -999]	n/a	FR1	1	R1457T
353.729	2.584	255933	REC_WORD	0.565	n/a	THUMB	3	1	[0, 0, 0]	n/a	FR1	1	R1457T
356.313	5.885	258517	REC_WORD	3.149	n/a	PORCH	-999	1	[0, 0, 0]	n/a	FR1	1	R1457T
362.198	0.0	264403	REC_WORD_VV	9.034	n/a	<>	-999	1	[0, 0, 0]	n/a	FR1	1	R1457T
234.114	2.117	270291	DISTRACT_END	n/a	n/a	n/a	-999	-1	[0, 0, 0]	n/a	FR1	1	R1457T
236.231	30.215	272410	REC_START	n/a	n/a	n/a	-999	-1	[0, 0, 0]	n/a	FR1	1	R1457T
266.446	19.867	302616	REC_END	n/a	n/a	n/a	-999	-1	[0, 0, 0]	n/a	FR1	1	R1457T
286.313	10.0	322484	COUNTDOWN_START	n/a	n/a	n/a	-999	1	[0, 0, 0]	n/a	FR1	1	R1457T
427.848	0.001	330058	PROB	5.283	n/a	n/a	-999	2	[7, 5, 5]	17.0	FR1	1	R1457T
427.849	0.0	330059	START	n/a	n/a	n/a	-999	2	[-999, -999, -999]	n/a	FR1	1	R1457T
296.663	0.0	332844	COUNTDOWN_END	n/a	n/a	n/a	-999	1	[0, 0, 0]	n/a	FR1	1	R1457T
296.663	2.285	332844	ENCODING_START	n/a	n/a	n/a	-999	1	[0, 0, 0]	n/a	FR1	1	R1457T
298.948	1.6	335125	WORD	n/a	wordpools/wordpool_long_EN.txt	STICK	1	1	[0, 0, 0]	n/a	FR1	1	R1457T
433.148	0.0	335358	PROB	2.332	n/a	n/a	-999	2	[1, 2, 2]	5.0	FR1	1	R1457T
300.564	0.8	336741	WORD_OFF	n/a	n/a	STICK	1	1	[0, 0, 0]	n/a	FR1	1	R1457T
301.364	1.6	337534	WORD	n/a	wordpools/wordpool_long_EN.txt	WHEEL	2	1	[0, 0, 0]	n/a	FR1	1	R1457T
435.497	0.0	337707	PROB	3.666	n/a	n/a	-999	2	[2, 1, 6]	9.0	FR1	1	R1457T
302.981	0.966	339150	WORD_OFF	n/a	n/a	WHEEL	2	1	[0, 0, 0]	n/a	FR1	1	R1457T
303.947	1.6	340114	WORD	n/a	wordpools/wordpool_long_EN.txt	THUMB	3	1	[0, 0, 0]	n/a	FR1	1	R1457T
439.181	0.0	341391	PROB	5.567	n/a	n/a	-999	2	[7, 2, 4]	13.0	FR1	1	R1457T
305.547	0.951	341715	WORD_OFF	n/a	n/a	THUMB	3	1	[0, 0, 0]	n/a	FR1	1	R1457T
306.498	1.6	342679	WORD	n/a	wordpools/wordpool_long_EN.txt	DOCK	4	1	[0, 0, 0]	n/a	FR1	1	R1457T
308.113	0.851	344280	WORD_OFF	n/a	n/a	DOCK	4	1	[0, 0, 0]	n/a	FR1	1	R1457T
308.964	1.6	345144	WORD	n/a	wordpools/wordpool_long_EN.txt	SOUP	5	1	[0, 0, 0]	n/a	FR1	1	R1457T
310.581	134.184	346760	WORD_OFF	n/a	n/a	SOUP	5	1	[0, 0, 0]	n/a	FR1	1	R1457T
444.765	0.0	346976	PROB	6.398	n/a	n/a	-999	2	[7, 3, 6]	16.0	FR1	1	R1457T
311.514	1.6	347695	WORD	n/a	wordpools/wordpool_long_EN.txt	WAVE	6	1	[0, 0, 0]	n/a	FR1	1	R1457T
313.131	0.833	349311	WORD_OFF	n/a	n/a	WAVE	6	1	[0, 0, 0]	n/a	FR1	1	R1457T
313.964	1.6	350133	WORD	n/a	wordpools/wordpool_long_EN.txt	GIFT	7	1	[0, 0, 0]	n/a	FR1	1	R1457T
315.58	0.934	351748	WORD_OFF	n/a	n/a	GIFT	7	1	[0, 0, 0]	n/a	FR1	1	R1457T
316.514	1.6	352684	WORD	n/a	wordpools/wordpool_long_EN.txt	HUT	8	1	[0, 0, 0]	n/a	FR1	1	R1457T
451.181	0.0	353392	STOP	n/a	n/a	n/a	-999	2	[-999, -999, -999]	n/a	FR1	1	R1457T
318.131	0.932	354299	WORD_OFF	n/a	n/a	HUT	8	1	[0, 0, 0]	n/a	FR1	1	R1457T
319.063	1.6	355234	WORD	n/a	wordpools/wordpool_long_EN.txt	FLASK	9	1	[0, 0, 0]	n/a	FR1	1	R1457T
454.274	0.0	356485	REC_WORD	0.761	n/a	GIRL	1	2	[0, 0, 0]	n/a	FR1	1	R1457T
320.664	134.976	356836	WORD_OFF	n/a	n/a	FLASK	9	1	[0, 0, 0]	n/a	FR1	1	R1457T
455.64	0.0	357851	REC_WORD	2.127	n/a	TRAIN	-999	2	[0, 0, 0]	n/a	FR1	1	R1457T
321.631	1.6	357799	WORD	n/a	wordpools/wordpool_long_EN.txt	HAT	10	1	[0, 0, 0]	n/a	FR1	1	R1457T
323.247	0.951	359415	WORD_OFF	n/a	n/a	HAT	10	1	[0, 0, 0]	n/a	FR1	1	R1457T
324.198	1.6	360364	WORD	n/a	wordpools/wordpool_long_EN.txt	CHEEK	11	1	[0, 0, 0]	n/a	FR1	1	R1457T
459.563	0.0	361775	REC_WORD	6.05	n/a	LOOP	-999	2	[0, 0, 0]	n/a	FR1	1	R1457T
325.813	0.785	361980	WORD_OFF	n/a	n/a	CHEEK	11	1	[0, 0, 0]	n/a	FR1	1	R1457T
326.598	1.6	362774	WORD	n/a	wordpools/wordpool_long_EN.txt	BEAN	12	1	[0, 0, 0]	n/a	FR1	1	R1457T
462.522	0.0	364734	REC_WORD	9.009	n/a	GIRL	1	2	[0, 0, 0]	n/a	FR1	1	R1457T
328.214	0.001	364389	WORD_OFF	n/a	n/a	BEAN	12	1	[0, 0, 0]	n/a	FR1	1	R1457T
328.215	0.0	364389	ENCODING_END	n/a	n/a	n/a	-999	1	[0, 0, 0]	n/a	FR1	1	R1457T
328.215	22.749	364389	DISTRACT_START	n/a	n/a	n/a	-999	1	[0, 0, 0]	n/a	FR1	1	R1457T
350.964	2.2	387134	DISTRACT_END	n/a	n/a	n/a	-999	1	[0, 0, 0]	n/a	FR1	1	R1457T
353.164	30.199	389339	REC_START	n/a	n/a	n/a	-999	1	[0, 0, 0]	n/a	FR1	1	R1457T
383.363	3.25	419530	REC_END	n/a	n/a	n/a	-999	1	[0, 0, 0]	n/a	FR1	1	R1457T
386.613	10.0	422790	COUNTDOWN_START	n/a	n/a	n/a	-999	2	[0, 0, 0]	n/a	FR1	1	R1457T
527.998	0.003	430215	PROB	7.832	n/a	n/a	-999	3	[5, 8, 3]	16.0	FR1	1	R1457T
528.001	0.0	430218	START	n/a	n/a	n/a	-999	3	[-999, -999, -999]	n/a	FR1	1	R1457T
396.963	0.0	433135	COUNTDOWN_END	n/a	n/a	n/a	-999	2	[0, 0, 0]	n/a	FR1	1	R1457T
396.963	2.218	433135	ENCODING_START	n/a	n/a	n/a	-999	2	[0, 0, 0]	n/a	FR1	1	R1457T
399.181	1.6	435345	WORD	n/a	wordpools/wordpool_long_EN.txt	GIRL	1	2	[0, 0, 0]	n/a	FR1	1	R1457T
400.796	0.835	436961	WORD_OFF	n/a	n/a	GIRL	1	2	[0, 0, 0]	n/a	FR1	1	R1457T
401.631	1.6	437797	WORD	n/a	wordpools/wordpool_long_EN.txt	POOL	2	2	[0, 0, 0]	n/a	FR1	1	R1457T
535.848	0.0	438065	PROB	4.283	n/a	n/a	-999	3	[6, 5, 4]	15.0	FR1	1	R1457T
403.248	0.883	439413	WORD_OFF	n/a	n/a	POOL	2	2	[0, 0, 0]	n/a	FR1	1	R1457T
404.131	1.6	440305	WORD	n/a	wordpools/wordpool_long_EN.txt	CORD	3	2	[0, 0, 0]	n/a	FR1	1	R1457T
405.731	134.417	441893	WORD_OFF	n/a	n/a	CORD	3	2	[0, 0, 0]	n/a	FR1	1	R1457T
540.148	0.0	442366	PROB	3.833	n/a	n/a	-999	3	[1, 5, 3]	9.0	FR1	1	R1457T
406.647	1.6	442814	WORD	n/a	wordpools/wordpool_long_EN.txt	LACE	4	2	[0, 0, 0]	n/a	FR1	1	R1457T
408.263	0.768	444429	WORD_OFF	n/a	n/a	LACE	4	2	[0, 0, 0]	n/a	FR1	1	R1457T
409.031	1.6	445195	WORD	n/a	wordpools/wordpool_long_EN.txt	SLOPE	5	2	[0, 0, 0]	n/a	FR1	1	R1457T
543.998	0.0	446216	PROB	3.783	n/a	n/a	-999	3	[7, 1, 1]	9.0	FR1	1	R1457T
410.631	0.783	446796	WORD_OFF	n/a	n/a	SLOPE	5	2	[0, 0, 0]	n/a	FR1	1	R1457T
411.414	1.6	447590	WORD	n/a	wordpools/wordpool_long_EN.txt	LAMP	6	2	[0, 0, 0]	n/a	FR1	1	R1457T
413.015	134.783	449177	WORD_OFF	n/a	n/a	LAMP	6	2	[0, 0, 0]	n/a	FR1	1	R1457T
547.798	0.0	450016	PROB	3.066	n/a	n/a	-999	3	[4, 5, 2]	11.0	FR1	1	R1457T
414.014	1.6	450183	WORD	n/a	wordpools/wordpool_long_EN.txt	TREE	7	2	[0, 0, 0]	n/a	FR1	1	R1457T
415.631	0.766	451798	WORD_OFF	n/a	n/a	TREE	7	2	[0, 0, 0]	n/a	FR1	1	R1457T
416.397	1.6	452564	WORD	n/a	wordpools/wordpool_long_EN.txt	WAND	8	2	[0, 0, 0]	n/a	FR1	1	R1457T
550.881	0.0	453099	STOP	n/a	n/a	n/a	-999	3	[-999, -999, -999]	n/a	FR1	1	R1457T
418.015	0.865	454179	WORD_OFF	n/a	n/a	WAND	8	2	[0, 0, 0]	n/a	FR1	1	R1457T
418.88	1.6	455044	WORD	n/a	wordpools/wordpool_long_EN.txt	CRANE	9	2	[0, 0, 0]	n/a	FR1	1	R1457T
555.032	0.0	457251	REC_WORD	1.818	n/a	SPACE	-999	3	[0, 0, 0]	n/a	FR1	1	R1457T
420.497	135.68	456673	WORD_OFF	n/a	n/a	CRANE	9	2	[0, 0, 0]	n/a	FR1	1	R1457T
556.177	0.0	458396	REC_WORD	2.963	n/a	TRIAL	-999	3	[0, 0, 0]	n/a	FR1	1	R1457T
421.314	1.6	457481	WORD	n/a	wordpools/wordpool_long_EN.txt	CHALK	10	2	[0, 0, 0]	n/a	FR1	1	R1457T
557.464	0.0	459683	REC_WORD	4.25	n/a	JURY	-999	3	[0, 0, 0]	n/a	FR1	1	R1457T
422.93	0.766	459097	WORD_OFF	n/a	n/a	CHALK	10	2	[0, 0, 0]	n/a	FR1	1	R1457T
423.696	1.6	459862	WORD	n/a	wordpools/wordpool_long_EN.txt	FAN	11	2	[0, 0, 0]	n/a	FR1	1	R1457T
425.297	0.95	461463	WORD_OFF	n/a	n/a	FAN	11	2	[0, 0, 0]	n/a	FR1	1	R1457T
426.247	1.6	462413	WORD	n/a	wordpools/wordpool_long_EN.txt	TRASH	12	2	[0, 0, 0]	n/a	FR1	1	R1457T
427.848	0.001	464014	WORD_OFF	n/a	n/a	TRASH	12	2	[0, 0, 0]	n/a	FR1	1	R1457T
427.849	0.0	464014	ENCODING_END	n/a	n/a	n/a	-999	2	[0, 0, 0]	n/a	FR1	1	R1457T
427.849	137.904	464014	DISTRACT_START	n/a	n/a	n/a	-999	2	[0, 0, 0]	n/a	FR1	1	R1457T
565.753	9.731	467972	REC_WORD_VV	12.539	n/a	<>	-999	3	[0, 0, 0]	n/a	FR1	1	R1457T
575.484	1.0	477704	REC_WORD_VV	22.27	n/a	<>	-999	3	[0, 0, 0]	n/a	FR1	1	R1457T
576.484	1.0	478704	REC_WORD_VV	23.27	n/a	<>	-999	3	[0, 0, 0]	n/a	FR1	1	R1457T
577.484	4.192	479704	REC_WORD_VV	24.27	n/a	<>	-999	3	[0, 0, 0]	n/a	FR1	1	R1457T
581.676	0.0	483896	REC_WORD_VV	28.462	n/a	<>	-999	3	[0, 0, 0]	n/a	FR1	1	R1457T
451.181	2.332	487340	DISTRACT_END	n/a	n/a	n/a	-999	2	[0, 0, 0]	n/a	FR1	1	R1457T
453.513	30.216	489672	REC_START	n/a	n/a	n/a	-999	2	[0, 0, 0]	n/a	FR1	1	R1457T
483.729	2.618	519892	REC_END	n/a	n/a	n/a	-999	2	[0, 0, 0]	n/a	FR1	1	R1457T
486.347	10.0	522514	COUNTDOWN_START	n/a	n/a	n/a	-999	3	[0, 0, 0]	n/a	FR1	1	R1457T
628.498	0.001	530722	PROB	9.383	n/a	n/a	-999	4	[7, 6, 4]	17.0	FR1	1	R1457T
628.499	0.0	530723	START	n/a	n/a	n/a	-999	4	[-999, -999, -999]	n/a	FR1	1	R1457T
496.697	0.001	532859	COUNTDOWN_END	n/a	n/a	n/a	-999	3	[0, 0, 0]	n/a	FR1	1	R1457T
496.698	2.266	532859	ENCODING_START	n/a	n/a	n/a	-999	3	[0, 0, 0]	n/a	FR1	1	R1457T
498.964	1.6	535126	WORD	n/a	wordpools/wordpool_long_EN.txt	TART	1	3	[0, 0, 0]	n/a	FR1	1	R1457T
500.564	0.933	536728	WORD_OFF	n/a	n/a	TART	1	3	[0, 0, 0]	n/a	FR1	1	R1457T
501.497	1.6	537663	WORD	n/a	wordpools/wordpool_long_EN.txt	SMILE	2	3	[0, 0, 0]	n/a	FR1	1	R1457T
503.097	0.816	539264	WORD_OFF	n/a	n/a	SMILE	2	3	[0, 0, 0]	n/a	FR1	1	R1457T
503.913	1.6	540072	WORD	n/a	wordpools/wordpool_long_EN.txt	GREASE	3	3	[0, 0, 0]	n/a	FR1	1	R1457T
637.898	0.0	540122	PROB	5.499	n/a	n/a	-999	4	[2, 7, 5]	14.0	FR1	1	R1457T
505.514	0.816	541674	WORD_OFF	n/a	n/a	GREASE	3	3	[0, 0, 0]	n/a	FR1	1	R1457T
506.33	1.6	542495	WORD	n/a	wordpools/wordpool_long_EN.txt	LEAF	4	3	[0, 0, 0]	n/a	FR1	1	R1457T
507.931	0.882	544097	WORD_OFF	n/a	n/a	LEAF	4	3	[0, 0, 0]	n/a	FR1	1	R1457T
508.813	1.6	544975	WORD	n/a	wordpools/wordpool_long_EN.txt	HOUSE	5	3	[0, 0, 0]	n/a	FR1	1	R1457T
643.414	0.0	545639	PROB	4.45	n/a	n/a	-999	4	[4, 1, 5]	10.0	FR1	1	R1457T
510.413	0.985	546577	WORD_OFF	n/a	n/a	HOUSE	5	3	[0, 0, 0]	n/a	FR1	1	R1457T
511.398	1.6	547569	WORD	n/a	wordpools/wordpool_long_EN.txt	BEAST	6	3	[0, 0, 0]	n/a	FR1	1	R1457T
512.998	0.933	549156	WORD_OFF	n/a	n/a	BEAST	6	3	[0, 0, 0]	n/a	FR1	1	R1457T
513.931	1.6	550091	WORD	n/a	wordpools/wordpool_long_EN.txt	BLUSH	7	3	[0, 0, 0]	n/a	FR1	1	R1457T
647.881	0.0	550106	PROB	5.317	n/a	n/a	-999	4	[2, 7, 1]	10.0	FR1	1	R1457T
515.548	0.882	551707	WORD_OFF	n/a	n/a	BLUSH	7	3	[0, 0, 0]	n/a	FR1	1	R1457T
516.43	1.6	552586	WORD	n/a	wordpools/wordpool_long_EN.txt	TRAY	8	3	[0, 0, 0]	n/a	FR1	1	R1457T
518.048	0.849	554215	WORD_OFF	n/a	n/a	TRAY	8	3	[0, 0, 0]	n/a	FR1	1	R1457T
518.897	1.6	555066	WORD	n/a	wordpools/wordpool_long_EN.txt	CHEST	9	3	[0, 0, 0]	n/a	FR1	1	R1457T
653.214	0.0	555440	STOP	n/a	n/a	n/a	-999	4	[-999, -999, -999]	n/a	FR1	1	R1457T
520.497	0.85	556667	WORD_OFF	n/a	n/a	CHEST	9	3	[0, 0, 0]	n/a	FR1	1	R1457T
521.347	1.6	557503	WORD	n/a	wordpools/wordpool_long_EN.txt	GRASS	10	3	[0, 0, 0]	n/a	FR1	1	R1457T
522.963	0.985	559119	WORD_OFF	n/a	n/a	GRASS	10	3	[0, 0, 0]	n/a	FR1	1	R1457T
523.948	1.6	560111	WORD	n/a	wordpools/wordpool_long_EN.txt	DIME	11	3	[0, 0, 0]	n/a	FR1	1	R1457T
525.548	0.85	561712	WORD_OFF	n/a	n/a	DIME	11	3	[0, 0, 0]	n/a	FR1	1	R1457T
526.398	1.6	562562	WORD	n/a	wordpools/wordpool_long_EN.txt	DUST	12	3	[0, 0, 0]	n/a	FR1	1	R1457T
527.998	0.003	564164	WORD_OFF	n/a	n/a	DUST	12	3	[0, 0, 0]	n/a	FR1	1	R1457T
528.001	0.0	564164	ENCODING_END	n/a	n/a	n/a	-999	3	[0, 0, 0]	n/a	FR1	1	R1457T
528.001	143.09	564164	DISTRACT_START	n/a	n/a	n/a	-999	3	[0, 0, 0]	n/a	FR1	1	R1457T
671.091	1.003	573318	REC_WORD	15.51	n/a	TRAIN	-999	4	[0, 0, 0]	n/a	FR1	1	R1457T
672.094	10.75	574321	REC_WORD	16.513	n/a	TRAIN	-999	4	[0, 0, 0]	n/a	FR1	1	R1457T
682.844	0.0	585072	REC_WORD_VV	27.263	n/a	<>	-999	4	[0, 0, 0]	n/a	FR1	1	R1457T
550.881	2.333	587036	DISTRACT_END	n/a	n/a	n/a	-999	3	[0, 0, 0]	n/a	FR1	1	R1457T
553.214	30.239	589368	REC_START	n/a	n/a	n/a	-999	3	[0, 0, 0]	n/a	FR1	1	R1457T
583.453	3.077	619616	REC_END	n/a	n/a	n/a	-999	3	[0, 0, 0]	n/a	FR1	1	R1457T
586.53	10.0	622692	COUNTDOWN_START	n/a	n/a	n/a	-999	4	[0, 0, 0]	n/a	FR1	1	R1457T
729.814	0.001	632045	PROB	7.15	n/a	n/a	-999	5	[5, 8, 5]	18.0	FR1	1	R1457T
729.815	0.0	632046	START	n/a	n/a	n/a	-999	5	[-999, -999, -999]	n/a	FR1	1	R1457T
596.881	0.0	633037	COUNTDOWN_END	n/a	n/a	n/a	-999	4	[0, 0, 0]	n/a	FR1	1	R1457T
596.881	2.282	633037	ENCODING_START	n/a	n/a	n/a	-999	4	[0, 0, 0]	n/a	FR1	1	R1457T
599.163	1.6	635318	WORD	n/a	wordpools/wordpool_long_EN.txt	TIE	1	4	[0, 0, 0]	n/a	FR1	1	R1457T
600.764	0.8	636920	WORD_OFF	n/a	n/a	TIE	1	4	[0, 0, 0]	n/a	FR1	1	R1457T
601.564	1.6	637727	WORD	n/a	wordpools/wordpool_long_EN.txt	POLE	2	4	[0, 0, 0]	n/a	FR1	1	R1457T
736.982	0.0	639213	PROB	5.649	n/a	n/a	-999	5	[8, 6, 2]	16.0	FR1	1	R1457T
603.18	0.899	639343	WORD_OFF	n/a	n/a	POLE	2	4	[0, 0, 0]	n/a	FR1	1	R1457T
604.079	1.6	640236	WORD	n/a	wordpools/wordpool_long_EN.txt	WORM	3	4	[0, 0, 0]	n/a	FR1	1	R1457T
605.681	0.882	641837	WORD_OFF	n/a	n/a	WORM	3	4	[0, 0, 0]	n/a	FR1	1	R1457T
606.563	1.6	642716	WORD	n/a	wordpools/wordpool_long_EN.txt	COOK	4	4	[0, 0, 0]	n/a	FR1	1	R1457T
608.164	134.484	644317	WORD_OFF	n/a	n/a	COOK	4	4	[0, 0, 0]	n/a	FR1	1	R1457T
742.648	0.0	644880	PROB	3.4	n/a	n/a	-999	5	[6, 2, 4]	12.0	FR1	1	R1457T
609.014	1.6	645167	WORD	n/a	wordpools/wordpool_long_EN.txt	LINT	5	4	[0, 0, 0]	n/a	FR1	1	R1457T
610.631	0.999	646783	WORD_OFF	n/a	n/a	LINT	5	4	[0, 0, 0]	n/a	FR1	1	R1457T
611.63	1.6	647789	WORD	n/a	wordpools/wordpool_long_EN.txt	JAIL	6	4	[0, 0, 0]	n/a	FR1	1	R1457T
746.064	0.0	648296	PROB	4.616	n/a	n/a	-999	5	[7, 3, 4]	14.0	FR1	1	R1457T
613.248	0.966	649405	WORD_OFF	n/a	n/a	JAIL	6	4	[0, 0, 0]	n/a	FR1	1	R1457T
614.214	1.6	650368	WORD	n/a	wordpools/wordpool_long_EN.txt	CRIB	7	4	[0, 0, 0]	n/a	FR1	1	R1457T
615.832	0.899	651984	WORD_OFF	n/a	n/a	CRIB	7	4	[0, 0, 0]	n/a	FR1	1	R1457T
616.731	1.6	652891	WORD	n/a	wordpools/wordpool_long_EN.txt	SUN	8	4	[0, 0, 0]	n/a	FR1	1	R1457T
750.698	0.0	652930	STOP	n/a	n/a	n/a	-999	5	[-999, -999, -999]	n/a	FR1	1	R1457T
618.331	135.038	654492	WORD_OFF	n/a	n/a	SUN	8	4	[0, 0, 0]	n/a	FR1	1	R1457T
753.369	0.0	655602	REC_WORD	0.555	n/a	SHIP	9	5	[0, 0, 0]	n/a	FR1	1	R1457T
619.331	1.6	655484	WORD	n/a	wordpools/wordpool_long_EN.txt	YACHT	9	4	[0, 0, 0]	n/a	FR1	1	R1457T
620.947	0.85	657100	WORD_OFF	n/a	n/a	YACHT	9	4	[0, 0, 0]	n/a	FR1	1	R1457T
621.797	1.6	657950	WORD	n/a	wordpools/wordpool_long_EN.txt	MOUTH	10	4	[0, 0, 0]	n/a	FR1	1	R1457T
757.48	0.0	659713	REC_WORD	4.666	n/a	TRAIN	-999	5	[0, 0, 0]	n/a	FR1	1	R1457T
623.397	0.984	659551	WORD_OFF	n/a	n/a	MOUTH	10	4	[0, 0, 0]	n/a	FR1	1	R1457T
624.381	1.6	660543	WORD	n/a	wordpools/wordpool_long_EN.txt	TRENCH	11	4	[0, 0, 0]	n/a	FR1	1	R1457T
625.981	135.093	662145	WORD_OFF	n/a	n/a	TRENCH	11	4	[0, 0, 0]	n/a	FR1	1	R1457T
761.074	0.0	663307	REC_WORD	8.26	n/a	LOOP	-999	5	[0, 0, 0]	n/a	FR1	1	R1457T
626.897	1.6	663052	WORD	n/a	wordpools/wordpool_long_EN.txt	SPOOL	12	4	[0, 0, 0]	n/a	FR1	1	R1457T
762.722	0.0	664955	REC_WORD	9.908	n/a	SPOOL	-999	5	[0, 0, 0]	n/a	FR1	1	R1457T
628.497	0.002	664653	WORD_OFF	n/a	n/a	SPOOL	12	4	[0, 0, 0]	n/a	FR1	1	R1457T
628.499	0.0	664653	ENCODING_END	n/a	n/a	n/a	-999	4	[0, 0, 0]	n/a	FR1	1	R1457T
628.499	24.715	664653	DISTRACT_START	n/a	n/a	n/a	-999	4	[0, 0, 0]	n/a	FR1	1	R1457T
653.214	2.367	689368	DISTRACT_END	n/a	n/a	n/a	-999	4	[0, 0, 0]	n/a	FR1	1	R1457T
655.581	30.225	691743	REC_START	n/a	n/a	n/a	-999	4	[0, 0, 0]	n/a	FR1	1	R1457T
685.806	2.291	721962	REC_END	n/a	n/a	n/a	-999	4	[0, 0, 0]	n/a	FR1	1	R1457T
688.097	10.0	724258	COUNTDOWN_START	n/a	n/a	n/a	-999	5	[0, 0, 0]	n/a	FR1	1	R1457T
828.713	0.0	730951	START	n/a	n/a	n/a	-999	6	[-999, -999, -999]	n/a	FR1	1	R1457T
828.713	0.0	730951	PROB	4.45	n/a	n/a	-999	6	[7, 5, 8]	20.0	FR1	1	R1457T
698.448	0.0	734603	COUNTDOWN_END	n/a	n/a	n/a	-999	5	[0, 0, 0]	n/a	FR1	1	R1457T
698.448	134.733	734603	ENCODING_START	n/a	n/a	n/a	-999	5	[0, 0, 0]	n/a	FR1	1	R1457T
833.181	0.0	735419	PROB	5.966	n/a	n/a	-999	6	[6, 5, 8]	19.0	FR1	1	R1457T
700.763	1.6	736913	WORD	n/a	wordpools/wordpool_long_EN.txt	ROCK	1	5	[0, 0, 0]	n/a	FR1	1	R1457T
702.364	0.866	738514	WORD_OFF	n/a	n/a	ROCK	1	5	[0, 0, 0]	n/a	FR1	1	R1457T
703.23	1.6	739379	WORD	n/a	wordpools/wordpool_long_EN.txt	BARN	2	5	[0, 0, 0]	n/a	FR1	1	R1457T
704.831	134.333	740980	WORD_OFF	n/a	n/a	BARN	2	5	[0, 0, 0]	n/a	FR1	1	R1457T
839.164	0.0	741403	PROB	6.999	n/a	n/a	-999	6	[8, 6, 5]	19.0	FR1	1	R1457T
705.83	1.6	741986	WORD	n/a	wordpools/wordpool_long_EN.txt	CUBE	3	5	[0, 0, 0]	n/a	FR1	1	R1457T
707.431	0.95	743588	WORD_OFF	n/a	n/a	CUBE	3	5	[0, 0, 0]	n/a	FR1	1	R1457T
708.381	1.6	744537	WORD	n/a	wordpools/wordpool_long_EN.txt	SPONGE	4	5	[0, 0, 0]	n/a	FR1	1	R1457T
709.997	0.917	746153	WORD_OFF	n/a	n/a	SPONGE	4	5	[0, 0, 0]	n/a	FR1	1	R1457T
710.914	1.6	747074	WORD	n/a	wordpools/wordpool_long_EN.txt	RIB	5	5	[0, 0, 0]	n/a	FR1	1	R1457T
846.18	0.0	748419	PROB	7.383	n/a	n/a	-999	6	[8, 8, 3]	19.0	FR1	1	R1457T
712.53	0.818	748690	WORD_OFF	n/a	n/a	RIB	5	5	[0, 0, 0]	n/a	FR1	1	R1457T
713.348	1.6	749497	WORD	n/a	wordpools/wordpool_long_EN.txt	TOY	6	5	[0, 0, 0]	n/a	FR1	1	R1457T
714.963	0.834	751113	WORD_OFF	n/a	n/a	TOY	6	5	[0, 0, 0]	n/a	FR1	1	R1457T
715.797	1.6	751949	WORD	n/a	wordpools/wordpool_long_EN.txt	GOLD	7	5	[0, 0, 0]	n/a	FR1	1	R1457T
717.397	0.983	753550	WORD_OFF	n/a	n/a	GOLD	7	5	[0, 0, 0]	n/a	FR1	1	R1457T
718.38	1.6	754528	WORD	n/a	wordpools/wordpool_long_EN.txt	GRILL	8	5	[0, 0, 0]	n/a	FR1	1	R1457T
853.579	0.0	755819	STOP	n/a	n/a	n/a	-999	6	[-999, -999, -999]	n/a	FR1	1	R1457T
719.981	0.783	756130	WORD_OFF	n/a	n/a	GRILL	8	5	[0, 0, 0]	n/a	FR1	1	R1457T
720.764	1.6	756923	WORD	n/a	wordpools/wordpool_long_EN.txt	SHIP	9	5	[0, 0, 0]	n/a	FR1	1	R1457T
856.91	0.0	759150	REC_WORD	0.93	n/a	TEETH	1	6	[0, 0, 0]	n/a	FR1	1	R1457T
722.364	0.8	758510	WORD_OFF	n/a	n/a	SHIP	9	5	[0, 0, 0]	n/a	FR1	1	R1457T
723.164	1.6	759318	WORD	n/a	wordpools/wordpool_long_EN.txt	FENCE	10	5	[0, 0, 0]	n/a	FR1	1	R1457T
724.943	0.805	761090	WORD_OFF	n/a	n/a	FENCE	10	5	[0, 0, 0]	n/a	FR1	1	R1457T
725.748	1.6	761897	WORD	n/a	wordpools/wordpool_long_EN.txt	JET	11	5	[0, 0, 0]	n/a	FR1	1	R1457T
727.364	0.834	763513	WORD_OFF	n/a	n/a	JET	11	5	[0, 0, 0]	n/a	FR1	1	R1457T
728.198	1.6	764349	WORD	n/a	wordpools/wordpool_long_EN.txt	PALM	12	5	[0, 0, 0]	n/a	FR1	1	R1457T
729.813	0.002	765965	WORD_OFF	n/a	n/a	PALM	12	5	[0, 0, 0]	n/a	FR1	1	R1457T
729.815	0.0	765965	ENCODING_END	n/a	n/a	n/a	-999	5	[0, 0, 0]	n/a	FR1	1	R1457T
729.815	135.993	765965	DISTRACT_START	n/a	n/a	n/a	-999	5	[0, 0, 0]	n/a	FR1	1	R1457T
865.808	0.0	768048	REC_WORD_VV	9.828	n/a	<>	-999	6	[0, 0, 0]	n/a	FR1	1	R1457T
750.698	2.116	786853	DISTRACT_END	n/a	n/a	n/a	-999	5	[0, 0, 0]	n/a	FR1	1	R1457T
752.814	30.225	788959	REC_START	n/a	n/a	n/a	-999	5	[0, 0, 0]	n/a	FR1	1	R1457T
783.039	3.557	819192	REC_END	n/a	n/a	n/a	-999	5	[0, 0, 0]	n/a	FR1	1	R1457T
786.596	10.0	822749	COUNTDOWN_START	n/a	n/a	n/a	-999	6	[0, 0, 0]	n/a	FR1	1	R1457T
930.281	0.0	832526	START	n/a	n/a	n/a	-999	7	[-999, -999, -999]	n/a	FR1	1	R1457T
930.281	0.0	832526	PROB	4.616	n/a	n/a	-999	7	[1, 3, 2]	6.0	FR1	1	R1457T
796.948	0.0	833095	COUNTDOWN_END	n/a	n/a	n/a	-999	6	[0, 0, 0]	n/a	FR1	1	R1457T
796.948	2.349	833095	ENCODING_START	n/a	n/a	n/a	-999	6	[0, 0, 0]	n/a	FR1	1	R1457T
799.297	1.6	835447	WORD	n/a	wordpools/wordpool_long_EN.txt	TEETH	1	6	[0, 0, 0]	n/a	FR1	1	R1457T
800.897	134.017	837048	WORD_OFF	n/a	n/a	TEETH	1	6	[0, 0, 0]	n/a	FR1	1	R1457T
934.914	0.0	837159	PROB	3.783	n/a	n/a	-999	7	[8, 3, 2]	13.0	FR1	1	R1457T
801.663	1.6	837814	WORD	n/a	wordpools/wordpool_long_EN.txt	CUP	2	6	[0, 0, 0]	n/a	FR1	1	R1457T
803.263	0.934	839415	WORD_OFF	n/a	n/a	CUP	2	6	[0, 0, 0]	n/a	FR1	1	R1457T
804.197	1.6	840350	WORD	n/a	wordpools/wordpool_long_EN.txt	ARCH	3	6	[0, 0, 0]	n/a	FR1	1	R1457T
938.715	0.0	840961	PROB	4.315	n/a	n/a	-999	7	[3, 1, 2]	6.0	FR1	1	R1457T
805.797	0.916	841952	WORD_OFF	n/a	n/a	ARCH	3	6	[0, 0, 0]	n/a	FR1	1	R1457T
806.713	1.6	842859	WORD	n/a	wordpools/wordpool_long_EN.txt	MAT	4	6	[0, 0, 0]	n/a	FR1	1	R1457T
808.314	134.733	844460	WORD_OFF	n/a	n/a	MAT	4	6	[0, 0, 0]	n/a	FR1	1	R1457T
943.047	0.0	845293	PROB	3.684	n/a	n/a	-999	7	[2, 4, 3]	9.0	FR1	1	R1457T
809.196	1.6	845339	WORD	n/a	wordpools/wordpool_long_EN.txt	SKATE	5	6	[0, 0, 0]	n/a	FR1	1	R1457T
810.798	0.999	846940	WORD_OFF	n/a	n/a	SKATE	5	6	[0, 0, 0]	n/a	FR1	1	R1457T
811.797	1.6	847946	WORD	n/a	wordpools/wordpool_long_EN.txt	GLOBE	6	6	[0, 0, 0]	n/a	FR1	1	R1457T
946.747	0.0	848993	PROB	3.15	n/a	n/a	-999	7	[1, 8, 2]	11.0	FR1	1	R1457T
813.414	0.8	849562	WORD_OFF	n/a	n/a	GLOBE	6	6	[0, 0, 0]	n/a	FR1	1	R1457T
814.214	1.6	850355	WORD	n/a	wordpools/wordpool_long_EN.txt	SMOG	7	6	[0, 0, 0]	n/a	FR1	1	R1457T
815.83	134.084	851971	WORD_OFF	n/a	n/a	SMOG	7	6	[0, 0, 0]	n/a	FR1	1	R1457T
949.914	0.0	852160	PROB	5.266	n/a	n/a	-999	7	[1, 5, 3]	9.0	FR1	1	R1457T
816.831	1.6	852977	WORD	n/a	wordpools/wordpool_long_EN.txt	BOWL	8	6	[0, 0, 0]	n/a	FR1	1	R1457T
818.448	0.999	854593	WORD_OFF	n/a	n/a	BOWL	8	6	[0, 0, 0]	n/a	FR1	1	R1457T
819.447	1.6	855599	WORD	n/a	wordpools/wordpool_long_EN.txt	OX	9	6	[0, 0, 0]	n/a	FR1	1	R1457T
821.063	134.134	857214	WORD_OFF	n/a	n/a	OX	9	6	[0, 0, 0]	n/a	FR1	1	R1457T
955.197	0.0	857444	STOP	n/a	n/a	n/a	-999	7	[-999, -999, -999]	n/a	FR1	1	R1457T
822.03	1.6	858178	WORD	n/a	wordpools/wordpool_long_EN.txt	SCHOOL	10	6	[0, 0, 0]	n/a	FR1	1	R1457T
823.647	0.95	859793	WORD_OFF	n/a	n/a	SCHOOL	10	6	[0, 0, 0]	n/a	FR1	1	R1457T
824.597	1.6	860743	WORD	n/a	wordpools/wordpool_long_EN.txt	SINK	11	6	[0, 0, 0]	n/a	FR1	1	R1457T
960.435	0.0	862682	REC_WORD	2.837	n/a	TOOTH	5	7	[0, 0, 0]	n/a	FR1	1	R1457T
826.212	135.223	862358	WORD_OFF	n/a	n/a	SINK	11	6	[0, 0, 0]	n/a	FR1	1	R1457T
961.435	0.0	863682	REC_WORD	3.837	n/a	TOOTH	5	7	[0, 0, 0]	n/a	FR1	1	R1457T
827.097	1.6	863251	WORD	n/a	wordpools/wordpool_long_EN.txt	BOOK	12	6	[0, 0, 0]	n/a	FR1	1	R1457T
828.712	0.001	864853	WORD_OFF	n/a	n/a	BOOK	12	6	[0, 0, 0]	n/a	FR1	1	R1457T
828.713	0.0	864867	ENCODING_END	n/a	n/a	n/a	-999	6	[0, 0, 0]	n/a	FR1	1	R1457T
828.713	148.077	864867	DISTRACT_START	n/a	n/a	n/a	-999	6	[0, 0, 0]	n/a	FR1	1	R1457T
976.79	0.0	879038	REC_WORD	19.192	n/a	PEA	11	7	[0, 0, 0]	n/a	FR1	1	R1457T
853.579	2.401	889724	DISTRACT_END	n/a	n/a	n/a	-999	6	[0, 0, 0]	n/a	FR1	1	R1457T
855.98	30.216	892126	REC_START	n/a	n/a	n/a	-999	6	[0, 0, 0]	n/a	FR1	1	R1457T
886.196	2.518	922346	REC_END	n/a	n/a	n/a	-999	6	[0, 0, 0]	n/a	FR1	1	R1457T
888.714	10.0	924854	COUNTDOWN_START	n/a	n/a	n/a	-999	7	[0, 0, 0]	n/a	FR1	1	R1457T
1032.098	0.001	934350	PROB	4.883	n/a	n/a	-999	8	[5, 5, 2]	12.0	FR1	1	R1457T
1032.099	0.0	934351	START	n/a	n/a	n/a	-999	8	[-999, -999, -999]	n/a	FR1	1	R1457T
899.063	0.0	935214	COUNTDOWN_END	n/a	n/a	n/a	-999	7	[0, 0, 0]	n/a	FR1	1	R1457T
899.063	2.05	935214	ENCODING_START	n/a	n/a	n/a	-999	7	[0, 0, 0]	n/a	FR1	1	R1457T
901.113	1.6	937254	WORD	n/a	wordpools/wordpool_long_EN.txt	CONE	1	7	[0, 0, 0]	n/a	FR1	1	R1457T
902.713	134.285	938856	WORD_OFF	n/a	n/a	CONE	1	7	[0, 0, 0]	n/a	FR1	1	R1457T
1036.998	0.0	939251	PROB	5.016	n/a	n/a	-999	8	[2, 5, 8]	15.0	FR1	1	R1457T
903.58	1.6	939720	WORD	n/a	wordpools/wordpool_long_EN.txt	WING	2	7	[0, 0, 0]	n/a	FR1	1	R1457T
905.197	1.0	941336	WORD_OFF	n/a	n/a	WING	2	7	[0, 0, 0]	n/a	FR1	1	R1457T
906.197	1.6	942342	WORD	n/a	wordpools/wordpool_long_EN.txt	FLAME	3	7	[0, 0, 0]	n/a	FR1	1	R1457T
907.797	134.234	943943	WORD_OFF	n/a	n/a	FLAME	3	7	[0, 0, 0]	n/a	FR1	1	R1457T
1042.031	0.0	944284	PROB	4.516	n/a	n/a	-999	8	[1, 2, 7]	10.0	FR1	1	R1457T
908.664	1.6	944808	WORD	n/a	wordpools/wordpool_long_EN.txt	SPARK	4	7	[0, 0, 0]	n/a	FR1	1	R1457T
910.264	0.917	946409	WORD_OFF	n/a	n/a	SPARK	4	7	[0, 0, 0]	n/a	FR1	1	R1457T
911.181	1.6	947330	WORD	n/a	wordpools/wordpool_long_EN.txt	TOOTH	5	7	[0, 0, 0]	n/a	FR1	1	R1457T
1046.564	0.0	948817	PROB	3.499	n/a	n/a	-999	8	[3, 1, 3]	7.0	FR1	1	R1457T
912.781	0.833	948918	WORD_OFF	n/a	n/a	TOOTH	5	7	[0, 0, 0]	n/a	FR1	1	R1457T
913.614	1.6	949754	WORD	n/a	wordpools/wordpool_long_EN.txt	QUEEN	6	7	[0, 0, 0]	n/a	FR1	1	R1457T
915.214	0.915	951355	WORD_OFF	n/a	n/a	QUEEN	6	7	[0, 0, 0]	n/a	FR1	1	R1457T
916.129	1.6	952276	WORD	n/a	wordpools/wordpool_long_EN.txt	SLIDE	7	7	[0, 0, 0]	n/a	FR1	1	R1457T
1050.08	0.0	952334	PROB	5.683	n/a	n/a	-999	8	[2, 8, 2]	12.0	FR1	1	R1457T
917.731	0.983	953878	WORD_OFF	n/a	n/a	SLIDE	7	7	[0, 0, 0]	n/a	FR1	1	R1457T
918.714	1.6	954855	WORD	n/a	wordpools/wordpool_long_EN.txt	LOFT	8	7	[0, 0, 0]	n/a	FR1	1	R1457T
920.314	0.966	956457	WORD_OFF	n/a	n/a	LOFT	8	7	[0, 0, 0]	n/a	FR1	1	R1457T
921.28	1.6	957420	WORD	n/a	wordpools/wordpool_long_EN.txt	YARD	9	7	[0, 0, 0]	n/a	FR1	1	R1457T
1055.78	0.0	958034	STOP	n/a	n/a	n/a	-999	8	[-999, -999, -999]	n/a	FR1	1	R1457T
922.881	135.757	959022	WORD_OFF	n/a	n/a	YARD	9	7	[0, 0, 0]	n/a	FR1	1	R1457T
1058.638	0.0	960892	REC_WORD	0.607	n/a	PLAID	12	8	[0, 0, 0]	n/a	FR1	1	R1457T
923.831	1.6	959971	WORD	n/a	wordpools/wordpool_long_EN.txt	BAG	10	7	[0, 0, 0]	n/a	FR1	1	R1457T
1060.274	0.0	962528	REC_WORD	2.243	n/a	SCARF	9	8	[0, 0, 0]	n/a	FR1	1	R1457T
925.447	0.783	961587	WORD_OFF	n/a	n/a	BAG	10	7	[0, 0, 0]	n/a	FR1	1	R1457T
926.23	1.6	962366	WORD	n/a	wordpools/wordpool_long_EN.txt	PEA	11	7	[0, 0, 0]	n/a	FR1	1	R1457T
927.83	0.85	963968	WORD_OFF	n/a	n/a	PEA	11	7	[0, 0, 0]	n/a	FR1	1	R1457T
928.68	1.6	964818	WORD	n/a	wordpools/wordpool_long_EN.txt	CHIEF	12	7	[0, 0, 0]	n/a	FR1	1	R1457T
930.28	0.001	966419	WORD_OFF	n/a	n/a	CHIEF	12	7	[0, 0, 0]	n/a	FR1	1	R1457T
930.281	0.0	966419	ENCODING_END	n/a	n/a	n/a	-999	7	[0, 0, 0]	n/a	FR1	1	R1457T
930.281	24.916	966433	DISTRACT_START	n/a	n/a	n/a	-999	7	[0, 0, 0]	n/a	FR1	1	R1457T
955.197	2.401	991333	DISTRACT_END	n/a	n/a	n/a	-999	7	[0, 0, 0]	n/a	FR1	1	R1457T
957.598	30.243	993736	REC_START	n/a	n/a	n/a	-999	7	[0, 0, 0]	n/a	FR1	1	R1457T
987.841	2.54	1023983	REC_END	n/a	n/a	n/a	-999	7	[0, 0, 0]	n/a	FR1	1	R1457T
990.381	10.0	1026520	COUNTDOWN_START	n/a	n/a	n/a	-999	8	[0, 0, 0]	n/a	FR1	1	R1457T
1133.281	0.001	1035540	PROB	6.749	n/a	n/a	-999	9	[6, 7, 2]	15.0	FR1	1	R1457T
1133.282	0.0	1035541	START	n/a	n/a	n/a	-999	9	[-999, -999, -999]	n/a	FR1	1	R1457T
1000.731	0.0	1036865	COUNTDOWN_END	n/a	n/a	n/a	-999	8	[0, 0, 0]	n/a	FR1	1	R1457T
1000.731	2.166	1036865	ENCODING_START	n/a	n/a	n/a	-999	8	[0, 0, 0]	n/a	FR1	1	R1457T
1002.897	1.6	1039034	WORD	n/a	wordpools/wordpool_long_EN.txt	RICE	1	8	[0, 0, 0]	n/a	FR1	1	R1457T
1004.497	0.784	1040635	WORD_OFF	n/a	n/a	RICE	1	8	[0, 0, 0]	n/a	FR1	1	R1457T
1005.281	1.6	1041414	WORD	n/a	wordpools/wordpool_long_EN.txt	BLADE	2	8	[0, 0, 0]	n/a	FR1	1	R1457T
1140.047	0.0	1042307	PROB	2.8	n/a	n/a	-999	9	[1, 4, 6]	11.0	FR1	1	R1457T
1006.88	0.834	1043016	WORD_OFF	n/a	n/a	BLADE	2	8	[0, 0, 0]	n/a	FR1	1	R1457T
1007.714	1.6	1043852	WORD	n/a	wordpools/wordpool_long_EN.txt	VINE	3	8	[0, 0, 0]	n/a	FR1	1	R1457T
1142.864	0.0	1045124	PROB	4.633	n/a	n/a	-999	9	[4, 2, 5]	11.0	FR1	1	R1457T
1009.331	0.833	1045467	WORD_OFF	n/a	n/a	VINE	3	8	[0, 0, 0]	n/a	FR1	1	R1457T
1010.164	1.6	1046303	WORD	n/a	wordpools/wordpool_long_EN.txt	BOARD	4	8	[0, 0, 0]	n/a	FR1	1	R1457T
1011.764	0.833	1047905	WORD_OFF	n/a	n/a	BOARD	4	8	[0, 0, 0]	n/a	FR1	1	R1457T
1012.597	1.6	1048741	WORD	n/a	wordpools/wordpool_long_EN.txt	CLOTH	5	8	[0, 0, 0]	n/a	FR1	1	R1457T
1147.514	0.0	1049774	PROB	6.966	n/a	n/a	-999	9	[4, 8, 1]	13.0	FR1	1	R1457T
1014.198	0.933	1050328	WORD_OFF	n/a	n/a	CLOTH	5	8	[0, 0, 0]	n/a	FR1	1	R1457T
1015.131	1.6	1051263	WORD	n/a	wordpools/wordpool_long_EN.txt	DITCH	6	8	[0, 0, 0]	n/a	FR1	1	R1457T
1016.747	1.001	1052879	WORD_OFF	n/a	n/a	DITCH	6	8	[0, 0, 0]	n/a	FR1	1	R1457T
1017.748	1.6	1053885	WORD	n/a	wordpools/wordpool_long_EN.txt	CHILD	7	8	[0, 0, 0]	n/a	FR1	1	R1457T
1019.364	0.983	1055501	WORD_OFF	n/a	n/a	CHILD	7	8	[0, 0, 0]	n/a	FR1	1	R1457T
1020.347	1.6	1056479	WORD	n/a	wordpools/wordpool_long_EN.txt	YARN	8	8	[0, 0, 0]	n/a	FR1	1	R1457T
1154.497	0.0	1056758	STOP	n/a	n/a	n/a	-999	9	[-999, -999, -999]	n/a	FR1	1	R1457T
1021.947	135.345	1058080	WORD_OFF	n/a	n/a	YARN	8	8	[0, 0, 0]	n/a	FR1	1	R1457T
1157.292	0.0	1059553	REC_WORD	0.778	n/a	RIB	-999	9	[0, 0, 0]	n/a	FR1	1	R1457T
1022.947	1.6	1059086	WORD	n/a	wordpools/wordpool_long_EN.txt	SCARF	9	8	[0, 0, 0]	n/a	FR1	1	R1457T
1024.548	135.436	1060687	WORD_OFF	n/a	n/a	SCARF	9	8	[0, 0, 0]	n/a	FR1	1	R1457T
1159.984	0.0	1062245	REC_WORD_VV	3.47	n/a	<>	-999	9	[0, 0, 0]	n/a	FR1	1	R1457T
1025.498	1.6	1061637	WORD	n/a	wordpools/wordpool_long_EN.txt	NET	10	8	[0, 0, 0]	n/a	FR1	1	R1457T
1027.098	135.018	1063238	WORD_OFF	n/a	n/a	NET	10	8	[0, 0, 0]	n/a	FR1	1	R1457T
1162.116	0.0	1064377	REC_WORD	5.602	n/a	SCARF	-999	9	[0, 0, 0]	n/a	FR1	1	R1457T
1027.997	1.6	1064131	WORD	n/a	wordpools/wordpool_long_EN.txt	SWAMP	11	8	[0, 0, 0]	n/a	FR1	1	R1457T
1029.598	0.883	1065732	WORD_OFF	n/a	n/a	SWAMP	11	8	[0, 0, 0]	n/a	FR1	1	R1457T
1030.481	1.6	1066611	WORD	n/a	wordpools/wordpool_long_EN.txt	PLAID	12	8	[0, 0, 0]	n/a	FR1	1	R1457T
1032.097	0.002	1068241	WORD_OFF	n/a	n/a	PLAID	12	8	[0, 0, 0]	n/a	FR1	1	R1457T
1032.099	0.0	1068241	ENCODING_END	n/a	n/a	n/a	-999	8	[0, 0, 0]	n/a	FR1	1	R1457T
1032.099	23.681	1068241	DISTRACT_START	n/a	n/a	n/a	-999	8	[0, 0, 0]	n/a	FR1	1	R1457T
1055.78	2.251	1091921	DISTRACT_END	n/a	n/a	n/a	-999	8	[0, 0, 0]	n/a	FR1	1	R1457T
1058.031	30.228	1094168	REC_START	n/a	n/a	n/a	-999	8	[0, 0, 0]	n/a	FR1	1	R1457T
1088.259	3.186	1124388	REC_END	n/a	n/a	n/a	-999	8	[0, 0, 0]	n/a	FR1	1	R1457T
1091.445	10.0	1127577	COUNTDOWN_START	n/a	n/a	n/a	-999	9	[0, 0, 0]	n/a	FR1	1	R1457T
1230.181	0.001	1132447	PROB	4.283	n/a	n/a	-999	10	[1, 2, 2]	5.0	FR1	1	R1457T
1230.182	4.299	1132448	START	n/a	n/a	n/a	-999	10	[-999, -999, -999]	n/a	FR1	1	R1457T
1234.481	0.0	1136748	PROB	5.617	n/a	n/a	-999	10	[5, 4, 5]	14.0	FR1	1	R1457T
1101.796	0.001	1137936	COUNTDOWN_END	n/a	n/a	n/a	-999	9	[0, 0, 0]	n/a	FR1	1	R1457T
1101.797	2.083	1137936	ENCODING_START	n/a	n/a	n/a	-999	9	[0, 0, 0]	n/a	FR1	1	R1457T
1103.88	1.6	1140019	WORD	n/a	wordpools/wordpool_long_EN.txt	SHOE	1	9	[0, 0, 0]	n/a	FR1	1	R1457T
1105.481	134.634	1141620	WORD_OFF	n/a	n/a	SHOE	1	9	[0, 0, 0]	n/a	FR1	1	R1457T
1240.115	0.0	1142382	PROB	5.715	n/a	n/a	-999	10	[8, 8, 4]	20.0	FR1	1	R1457T
1106.397	1.6	1142527	WORD	n/a	wordpools/wordpool_long_EN.txt	BAT	2	9	[0, 0, 0]	n/a	FR1	1	R1457T
1108.013	0.918	1144143	WORD_OFF	n/a	n/a	BAT	2	9	[0, 0, 0]	n/a	FR1	1	R1457T
1108.931	1.6	1145064	WORD	n/a	wordpools/wordpool_long_EN.txt	WORLD	3	9	[0, 0, 0]	n/a	FR1	1	R1457T
1110.531	1.0	1146665	WORD_OFF	n/a	n/a	WORLD	3	9	[0, 0, 0]	n/a	FR1	1	R1457T
1111.531	1.6	1147657	WORD	n/a	wordpools/wordpool_long_EN.txt	SLEEVE	4	9	[0, 0, 0]	n/a	FR1	1	R1457T
1245.847	0.0	1148114	PROB	6.099	n/a	n/a	-999	10	[3, 1, 8]	12.0	FR1	1	R1457T
1113.131	0.966	1149259	WORD_OFF	n/a	n/a	SLEEVE	4	9	[0, 0, 0]	n/a	FR1	1	R1457T
1114.097	1.6	1150222	WORD	n/a	wordpools/wordpool_long_EN.txt	HOOD	5	9	[0, 0, 0]	n/a	FR1	1	R1457T
1115.697	0.95	1151824	WORD_OFF	n/a	n/a	HOOD	5	9	[0, 0, 0]	n/a	FR1	1	R1457T
1116.647	1.6	1152773	WORD	n/a	wordpools/wordpool_long_EN.txt	SHEET	6	9	[0, 0, 0]	n/a	FR1	1	R1457T
1251.964	0.0	1154232	STOP	n/a	n/a	n/a	-999	10	[-999, -999, -999]	n/a	FR1	1	R1457T
1118.247	0.983	1154375	WORD_OFF	n/a	n/a	SHEET	6	9	[0, 0, 0]	n/a	FR1	1	R1457T
1119.23	1.6	1155367	WORD	n/a	wordpools/wordpool_long_EN.txt	BUSH	7	9	[0, 0, 0]	n/a	FR1	1	R1457T
1254.838	0.0	1157106	REC_WORD	0.657	n/a	NAIL	10	10	[0, 0, 0]	n/a	FR1	1	R1457T
1120.831	134.945	1156968	WORD_OFF	n/a	n/a	BUSH	7	9	[0, 0, 0]	n/a	FR1	1	R1457T
1255.776	0.0	1158044	REC_WORD	1.595	n/a	SWORD	11	10	[0, 0, 0]	n/a	FR1	1	R1457T
1121.781	1.6	1157918	WORD	n/a	wordpools/wordpool_long_EN.txt	STEM	8	9	[0, 0, 0]	n/a	FR1	1	R1457T
1256.932	0.0	1159200	REC_WORD	2.751	n/a	OWL	12	10	[0, 0, 0]	n/a	FR1	1	R1457T
1123.395	0.953	1159533	WORD_OFF	n/a	n/a	STEM	8	9	[0, 0, 0]	n/a	FR1	1	R1457T
1124.348	1.6	1160483	WORD	n/a	wordpools/wordpool_long_EN.txt	PRINCE	9	9	[0, 0, 0]	n/a	FR1	1	R1457T
1125.948	135.614	1162084	WORD_OFF	n/a	n/a	PRINCE	9	9	[0, 0, 0]	n/a	FR1	1	R1457T
1261.562	0.0	1163830	REC_WORD_VV	7.381	n/a	<>	-999	10	[0, 0, 0]	n/a	FR1	1	R1457T
1126.714	1.6	1162849	WORD	n/a	wordpools/wordpool_long_EN.txt	TROUT	10	9	[0, 0, 0]	n/a	FR1	1	R1457T
1128.314	0.933	1164451	WORD_OFF	n/a	n/a	TROUT	10	9	[0, 0, 0]	n/a	FR1	1	R1457T
1129.247	1.6	1165386	WORD	n/a	wordpools/wordpool_long_EN.txt	GEESE	11	9	[0, 0, 0]	n/a	FR1	1	R1457T
1130.848	0.833	1166973	WORD_OFF	n/a	n/a	GEESE	11	9	[0, 0, 0]	n/a	FR1	1	R1457T
1131.681	1.6	1167809	WORD	n/a	wordpools/wordpool_long_EN.txt	ROD	12	9	[0, 0, 0]	n/a	FR1	1	R1457T
1133.281	0.001	1169411	WORD_OFF	n/a	n/a	ROD	12	9	[0, 0, 0]	n/a	FR1	1	R1457T
1133.282	0.0	1169411	ENCODING_END	n/a	n/a	n/a	-999	9	[0, 0, 0]	n/a	FR1	1	R1457T
1133.282	135.654	1169411	DISTRACT_START	n/a	n/a	n/a	-999	9	[0, 0, 0]	n/a	FR1	1	R1457T
1268.936	0.0	1171205	REC_WORD	14.755	n/a	OAR	2	10	[0, 0, 0]	n/a	FR1	1	R1457T
1154.497	2.017	1190625	DISTRACT_END	n/a	n/a	n/a	-999	9	[0, 0, 0]	n/a	FR1	1	R1457T
1156.514	30.233	1192646	REC_START	n/a	n/a	n/a	-999	9	[0, 0, 0]	n/a	FR1	1	R1457T
1186.747	2.383	1222879	REC_END	n/a	n/a	n/a	-999	9	[0, 0, 0]	n/a	FR1	1	R1457T
1189.13	10.0	1225260	COUNTDOWN_START	n/a	n/a	n/a	-999	10	[0, 0, 0]	n/a	FR1	1	R1457T
1327.765	0.0	1230038	PROB	8.966	n/a	n/a	-999	11	[2, 6, 2]	10.0	FR1	1	R1457T
1327.765	0.0	1230038	START	n/a	n/a	n/a	-999	11	[-999, -999, -999]	n/a	FR1	1	R1457T
1199.481	0.0	1235605	COUNTDOWN_END	n/a	n/a	n/a	-999	10	[0, 0, 0]	n/a	FR1	1	R1457T
1199.481	1.983	1235605	ENCODING_START	n/a	n/a	n/a	-999	10	[0, 0, 0]	n/a	FR1	1	R1457T
1201.464	1.6	1237589	WORD	n/a	wordpools/wordpool_long_EN.txt	RUG	1	10	[0, 0, 0]	n/a	FR1	1	R1457T
1336.747	0.0	1239021	PROB	5.734	n/a	n/a	-999	11	[8, 6, 5]	19.0	FR1	1	R1457T
1203.08	0.918	1239205	WORD_OFF	n/a	n/a	RUG	1	10	[0, 0, 0]	n/a	FR1	1	R1457T
1203.998	1.6	1240126	WORD	n/a	wordpools/wordpool_long_EN.txt	OAR	2	10	[0, 0, 0]	n/a	FR1	1	R1457T
1205.613	0.817	1241741	WORD_OFF	n/a	n/a	OAR	2	10	[0, 0, 0]	n/a	FR1	1	R1457T
1206.43	1.6	1242563	WORD	n/a	wordpools/wordpool_long_EN.txt	VASE	3	10	[0, 0, 0]	n/a	FR1	1	R1457T
1208.031	134.467	1244165	WORD_OFF	n/a	n/a	VASE	3	10	[0, 0, 0]	n/a	FR1	1	R1457T
1342.498	0.0	1244772	PROB	4.133	n/a	n/a	-999	11	[4, 2, 1]	7.0	FR1	1	R1457T
1208.981	1.6	1245114	WORD	n/a	wordpools/wordpool_long_EN.txt	STONE	4	10	[0, 0, 0]	n/a	FR1	1	R1457T
1210.597	0.933	1246730	WORD_OFF	n/a	n/a	STONE	4	10	[0, 0, 0]	n/a	FR1	1	R1457T
1211.53	1.6	1247651	WORD	n/a	wordpools/wordpool_long_EN.txt	PLATE	5	10	[0, 0, 0]	n/a	FR1	1	R1457T
1346.647	0.0	1248921	PROB	2.867	n/a	n/a	-999	11	[3, 3, 1]	7.0	FR1	1	R1457T
1213.13	0.867	1249252	WORD_OFF	n/a	n/a	PLATE	5	10	[0, 0, 0]	n/a	FR1	1	R1457T
1213.997	1.6	1250131	WORD	n/a	wordpools/wordpool_long_EN.txt	NEST	6	10	[0, 0, 0]	n/a	FR1	1	R1457T
1215.613	133.917	1251746	WORD_OFF	n/a	n/a	NEST	6	10	[0, 0, 0]	n/a	FR1	1	R1457T
1349.53	0.0	1251805	STOP	n/a	n/a	n/a	-999	11	[-999, -999, -999]	n/a	FR1	1	R1457T
1216.414	1.6	1252540	WORD	n/a	wordpools/wordpool_long_EN.txt	STORE	7	10	[0, 0, 0]	n/a	FR1	1	R1457T
1352.804	0.0	1255079	REC_WORD	0.873	n/a	FLEA	12	11	[0, 0, 0]	n/a	FR1	1	R1457T
1218.03	0.8	1254156	WORD_OFF	n/a	n/a	STORE	7	10	[0, 0, 0]	n/a	FR1	1	R1457T
1218.83	1.6	1254963	WORD	n/a	wordpools/wordpool_long_EN.txt	PASTE	8	10	[0, 0, 0]	n/a	FR1	1	R1457T
1354.025	0.0	1256300	REC_WORD	2.094	n/a	WORM	-999	11	[0, 0, 0]	n/a	FR1	1	R1457T
1220.431	0.866	1256565	WORD_OFF	n/a	n/a	PASTE	8	10	[0, 0, 0]	n/a	FR1	1	R1457T
1221.297	1.6	1257429	WORD	n/a	wordpools/wordpool_long_EN.txt	LAWN	9	10	[0, 0, 0]	n/a	FR1	1	R1457T
1356.803	0.0	1259078	REC_WORD_VV	4.872	n/a	<>	-999	11	[0, 0, 0]	n/a	FR1	1	R1457T
1222.898	0.884	1259031	WORD_OFF	n/a	n/a	LAWN	9	10	[0, 0, 0]	n/a	FR1	1	R1457T
1223.782	1.6	1259909	WORD	n/a	wordpools/wordpool_long_EN.txt	NAIL	10	10	[0, 0, 0]	n/a	FR1	1	R1457T
1225.398	0.782	1261525	WORD_OFF	n/a	n/a	NAIL	10	10	[0, 0, 0]	n/a	FR1	1	R1457T
1226.18	1.6	1262304	WORD	n/a	wordpools/wordpool_long_EN.txt	SWORD	11	10	[0, 0, 0]	n/a	FR1	1	R1457T
1227.781	0.783	1263906	WORD_OFF	n/a	n/a	SWORD	11	10	[0, 0, 0]	n/a	FR1	1	R1457T
1228.564	1.6	1264685	WORD	n/a	wordpools/wordpool_long_EN.txt	OWL	12	10	[0, 0, 0]	n/a	FR1	1	R1457T
1230.18	0.002	1266300	WORD_OFF	n/a	n/a	OWL	12	10	[0, 0, 0]	n/a	FR1	1	R1457T
1230.182	0.0	1266315	ENCODING_END	n/a	n/a	n/a	-999	10	[0, 0, 0]	n/a	FR1	1	R1457T
1230.182	21.782	1266315	DISTRACT_START	n/a	n/a	n/a	-999	10	[0, 0, 0]	n/a	FR1	1	R1457T
1251.964	2.217	1288096	DISTRACT_END	n/a	n/a	n/a	-999	10	[0, 0, 0]	n/a	FR1	1	R1457T
1254.181	30.232	1290301	REC_START	n/a	n/a	n/a	-999	10	[0, 0, 0]	n/a	FR1	1	R1457T
1284.413	2.366	1320535	REC_END	n/a	n/a	n/a	-999	10	[0, 0, 0]	n/a	FR1	1	R1457T
1286.779	10.0	1322901	COUNTDOWN_START	n/a	n/a	n/a	-999	11	[0, 0, 0]	n/a	FR1	1	R1457T
1425.814	0.001	1328094	START	n/a	n/a	n/a	-999	12	[-999, -999, -999]	n/a	FR1	1	R1457T
1425.815	0.0	1328095	PROB	8.549	n/a	n/a	-999	12	[1, 5, 8]	14.0	FR1	1	R1457T
1297.131	0.0	1333260	COUNTDOWN_END	n/a	n/a	n/a	-999	11	[0, 0, 0]	n/a	FR1	1	R1457T
1297.131	2.033	1333260	ENCODING_START	n/a	n/a	n/a	-999	11	[0, 0, 0]	n/a	FR1	1	R1457T
1299.164	1.6	1335287	WORD	n/a	wordpools/wordpool_long_EN.txt	THRONE	1	11	[0, 0, 0]	n/a	FR1	1	R1457T
1434.381	0.0	1336662	PROB	3.983	n/a	n/a	-999	12	[4, 8, 1]	13.0	FR1	1	R1457T
1300.764	0.766	1336888	WORD_OFF	n/a	n/a	THRONE	1	11	[0, 0, 0]	n/a	FR1	1	R1457T
1301.53	1.6	1337654	WORD	n/a	wordpools/wordpool_long_EN.txt	SKI	2	11	[0, 0, 0]	n/a	FR1	1	R1457T
1303.131	0.916	1339255	WORD_OFF	n/a	n/a	SKI	2	11	[0, 0, 0]	n/a	FR1	1	R1457T
1304.047	1.6	1340176	WORD	n/a	wordpools/wordpool_long_EN.txt	MUG	3	11	[0, 0, 0]	n/a	FR1	1	R1457T
1438.381	0.0	1340662	PROB	5.465	n/a	n/a	-999	12	[7, 5, 4]	16.0	FR1	1	R1457T
1305.663	0.801	1341792	WORD_OFF	n/a	n/a	MUG	3	11	[0, 0, 0]	n/a	FR1	1	R1457T
1306.464	1.6	1342585	WORD	n/a	wordpools/wordpool_long_EN.txt	CANE	4	11	[0, 0, 0]	n/a	FR1	1	R1457T
1308.065	0.799	1344187	WORD_OFF	n/a	n/a	CANE	4	11	[0, 0, 0]	n/a	FR1	1	R1457T
1308.864	1.6	1344980	WORD	n/a	wordpools/wordpool_long_EN.txt	FRUIT	5	11	[0, 0, 0]	n/a	FR1	1	R1457T
1443.864	0.0	1346145	PROB	5.55	n/a	n/a	-999	12	[5, 3, 4]	12.0	FR1	1	R1457T
1310.48	0.783	1346596	WORD_OFF	n/a	n/a	FRUIT	5	11	[0, 0, 0]	n/a	FR1	1	R1457T
1311.263	1.6	1347389	WORD	n/a	wordpools/wordpool_long_EN.txt	MOON	6	11	[0, 0, 0]	n/a	FR1	1	R1457T
1312.879	0.784	1349005	WORD_OFF	n/a	n/a	MOON	6	11	[0, 0, 0]	n/a	FR1	1	R1457T
1313.663	1.6	1349784	WORD	n/a	wordpools/wordpool_long_EN.txt	PORK	7	11	[0, 0, 0]	n/a	FR1	1	R1457T
1315.264	134.167	1351386	WORD_OFF	n/a	n/a	PORK	7	11	[0, 0, 0]	n/a	FR1	1	R1457T
1449.431	0.0	1351713	STOP	n/a	n/a	n/a	-999	12	[-999, -999, -999]	n/a	FR1	1	R1457T
1316.08	1.6	1352208	WORD	n/a	wordpools/wordpool_long_EN.txt	FILM	8	11	[0, 0, 0]	n/a	FR1	1	R1457T
1452.207	0.0	1354489	REC_WORD	0.659	n/a	STEAM	12	12	[0, 0, 0]	n/a	FR1	1	R1457T
1317.697	0.917	1353823	WORD_OFF	n/a	n/a	FILM	8	11	[0, 0, 0]	n/a	FR1	1	R1457T
1318.614	1.6	1354730	WORD	n/a	wordpools/wordpool_long_EN.txt	CAVE	9	11	[0, 0, 0]	n/a	FR1	1	R1457T
1454.735	0.0	1357017	REC_WORD	3.187	n/a	HOLE	10	12	[0, 0, 0]	n/a	FR1	1	R1457T
1320.214	0.966	1356332	WORD_OFF	n/a	n/a	CAVE	9	11	[0, 0, 0]	n/a	FR1	1	R1457T
1321.18	1.6	1357309	WORD	n/a	wordpools/wordpool_long_EN.txt	COIN	10	11	[0, 0, 0]	n/a	FR1	1	R1457T
1322.781	0.999	1358897	WORD_OFF	n/a	n/a	COIN	10	11	[0, 0, 0]	n/a	FR1	1	R1457T
1323.78	1.6	1359903	WORD	n/a	wordpools/wordpool_long_EN.txt	SMOKE	11	11	[0, 0, 0]	n/a	FR1	1	R1457T
1325.38	0.783	1361504	WORD_OFF	n/a	n/a	SMOKE	11	11	[0, 0, 0]	n/a	FR1	1	R1457T
1326.163	1.6	1362284	WORD	n/a	wordpools/wordpool_long_EN.txt	FLEA	12	11	[0, 0, 0]	n/a	FR1	1	R1457T
1327.764	0.001	1363885	WORD_OFF	n/a	n/a	FLEA	12	11	[0, 0, 0]	n/a	FR1	1	R1457T
1327.765	0.0	1363885	ENCODING_END	n/a	n/a	n/a	-999	11	[0, 0, 0]	n/a	FR1	1	R1457T
1327.765	146.566	1363885	DISTRACT_START	n/a	n/a	n/a	-999	11	[0, 0, 0]	n/a	FR1	1	R1457T
1474.331	0.0	1376614	REC_WORD	22.783	n/a	OAR	-999	12	[0, 0, 0]	n/a	FR1	1	R1457T
1349.53	2.401	1385652	DISTRACT_END	n/a	n/a	n/a	-999	11	[0, 0, 0]	n/a	FR1	1	R1457T
1351.931	30.252	1388055	REC_START	n/a	n/a	n/a	-999	11	[0, 0, 0]	n/a	FR1	1	R1457T
1382.183	2.031	1418303	REC_END	n/a	n/a	n/a	-999	11	[0, 0, 0]	n/a	FR1	1	R1457T
1384.214	10.0	1420330	COUNTDOWN_START	n/a	n/a	n/a	-999	12	[0, 0, 0]	n/a	FR1	1	R1457T
1394.564	0.0	1430689	COUNTDOWN_END	n/a	n/a	n/a	-999	12	[0, 0, 0]	n/a	FR1	1	R1457T
1394.564	2.067	1430689	ENCODING_START	n/a	n/a	n/a	-999	12	[0, 0, 0]	n/a	FR1	1	R1457T
1396.631	1.6	1432744	WORD	n/a	wordpools/wordpool_long_EN.txt	RAIL	1	12	[0, 0, 0]	n/a	FR1	1	R1457T
1398.231	0.798	1434345	WORD_OFF	n/a	n/a	RAIL	1	12	[0, 0, 0]	n/a	FR1	1	R1457T
1399.029	1.6	1435153	WORD	n/a	wordpools/wordpool_long_EN.txt	TWIG	2	12	[0, 0, 0]	n/a	FR1	1	R1457T
1400.631	0.95	1436754	WORD_OFF	n/a	n/a	TWIG	2	12	[0, 0, 0]	n/a	FR1	1	R1457T
1401.581	1.6	1437704	WORD	n/a	wordpools/wordpool_long_EN.txt	FUR	3	12	[0, 0, 0]	n/a	FR1	1	R1457T
1403.181	0.95	1439305	WORD_OFF	n/a	n/a	FUR	3	12	[0, 0, 0]	n/a	FR1	1	R1457T
1404.131	1.6	1440255	WORD	n/a	wordpools/wordpool_long_EN.txt	FORT	4	12	[0, 0, 0]	n/a	FR1	1	R1457T
1405.747	0.767	1441870	WORD_OFF	n/a	n/a	FORT	4	12	[0, 0, 0]	n/a	FR1	1	R1457T
1406.514	1.6	1442635	WORD	n/a	wordpools/wordpool_long_EN.txt	BADGE	5	12	[0, 0, 0]	n/a	FR1	1	R1457T
1408.114	0.967	1444237	WORD_OFF	n/a	n/a	BADGE	5	12	[0, 0, 0]	n/a	FR1	1	R1457T
1409.081	1.6	1445200	WORD	n/a	wordpools/wordpool_long_EN.txt	MAZE	6	12	[0, 0, 0]	n/a	FR1	1	R1457T
1410.681	0.999	1446802	WORD_OFF	n/a	n/a	MAZE	6	12	[0, 0, 0]	n/a	FR1	1	R1457T
1411.68	1.6	1447794	WORD	n/a	wordpools/wordpool_long_EN.txt	KITE	7	12	[0, 0, 0]	n/a	FR1	1	R1457T
1413.28	0.968	1449395	WORD_OFF	n/a	n/a	KITE	7	12	[0, 0, 0]	n/a	FR1	1	R1457T
1414.248	1.6	1450359	WORD	n/a	wordpools/wordpool_long_EN.txt	CLAM	8	12	[0, 0, 0]	n/a	FR1	1	R1457T
1415.863	0.817	1451974	WORD_OFF	n/a	n/a	CLAM	8	12	[0, 0, 0]	n/a	FR1	1	R1457T
1416.68	1.6	1452796	WORD	n/a	wordpools/wordpool_long_EN.txt	HOUND	9	12	[0, 0, 0]	n/a	FR1	1	R1457T
1418.28	0.867	1454398	WORD_OFF	n/a	n/a	HOUND	9	12	[0, 0, 0]	n/a	FR1	1	R1457T
1419.147	1.6	1455262	WORD	n/a	wordpools/wordpool_long_EN.txt	HOLE	10	12	[0, 0, 0]	n/a	FR1	1	R1457T
1420.764	0.95	1456878	WORD_OFF	n/a	n/a	HOLE	10	12	[0, 0, 0]	n/a	FR1	1	R1457T
1421.714	1.6	1457827	WORD	n/a	wordpools/wordpool_long_EN.txt	YOLK	11	12	[0, 0, 0]	n/a	FR1	1	R1457T
1423.33	0.868	1459443	WORD_OFF	n/a	n/a	YOLK	11	12	[0, 0, 0]	n/a	FR1	1	R1457T
1424.198	1.6	1460321	WORD	n/a	wordpools/wordpool_long_EN.txt	STEAM	12	12	[0, 0, 0]	n/a	FR1	1	R1457T
1425.813	0.001	1461937	WORD_OFF	n/a	n/a	STEAM	12	12	[0, 0, 0]	n/a	FR1	1	R1457T
1425.814	0.0	1461937	ENCODING_END	n/a	n/a	n/a	-999	12	[0, 0, 0]	n/a	FR1	1	R1457T
1425.814	23.617	1461937	DISTRACT_START	n/a	n/a	n/a	-999	12	[0, 0, 0]	n/a	FR1	1	R1457T
1449.431	2.117	1485546	DISTRACT_END	n/a	n/a	n/a	-999	12	[0, 0, 0]	n/a	FR1	1	R1457T
1451.548	30.261	1487666	REC_START	n/a	n/a	n/a	-999	12	[0, 0, 0]	n/a	FR1	1	R1457T
1481.809	0.0	1517928	REC_END	n/a	n/a	n/a	-999	12	[0, 0, 0]	n/a	FR1	1	R1457T
